"success","ttype","start_time","trial_type","trial_index","time_elapsed","internal_node_id","warning","missed_checkup","PID","view_history","rt","responses","repeat_instructions","key_press","index","keypress_isi","keypress_S2","block","trial_num","phase","group_type","pair_type","S1_stim","S2_stim","S1_img","S2_img","S1_chosen","S1_higher","accuracy","keypress_iti","total_bonus_tally"
"true","full_screen","d08012022hr1341","fullscreen","0","25154","0.0-0.0","0","0","47507","","","","","","","","","","","","","","","","","","","","","",""
"","instructions","","instructions","1","86746","0.0-1.0-0.0-0.0","0","0","47507","[{""page_index"":0,""viewing_time"":8323},{""page_index"":1,""viewing_time"":28067},{""page_index"":2,""viewing_time"":21900},{""page_index"":3,""viewing_time"":3299}]","61590","","","","","","","","","","","","","","","","","","","",""
"","comprehension_check","","survey-multi-choice","2","117432","0.0-1.0-0.0-1.0","0","0","47507","","30681","{""Q0"":""True"",""Q1"":""K"",""Q2"":""When you see the prompt 'MAKE A CHOICE' after the second image was presented"",""Q3"":""Green mark"",""Q4"":""either D or K""}","0","","","","","","","","","","","","","","","","","",""
"","start_exp","","html-keyboard-response","3","119976","0.0-1.0-1.0","0","0","47507","","2538","","","32","","","","","","","","","","","","","","","","",""
"","S1","","html-keyboard-response","4","120233","0.0-1.0-2.0","0","0","47507","","null","","","null","0","","","","","","","","","","","","","","","",""
"","ISI","","html-keyboard-response","5","122239","0.0-1.0-3.0","0","0","47507","","null","","","null","0","NaN","","","","","","","","","","","","","","",""
"","S2","","html-keyboard-response","6","122495","0.0-1.0-4.0","0","0","47507","","null","","","null","0","","NaN","","","","","","","","","","","","","",""
"","response","","html-keyboard-response","7","124027","0.0-1.0-5.0","0","0","47507","","1527","","","68","0","","","1","0","training","adjacent","FG","6","7","R.jpg","O.jpg","0","1","0","",""
"","feedback","","html-keyboard-response","8","125033","0.0-1.0-6.0-0.0","0","0","47507","","null","","","null","0","","","","","","","","","","","","","","","",""
"","time_out","","html-keyboard-response","9","127040","0.0-1.0-8.0-0.0","0","0","47507","","null","","","null","0","","","","","","","","","","","","","","","",""
"","ITI","","html-keyboard-response","10","128047","0.0-1.0-9.0","0","0","47507","","null","","","null","0","","","","","","","","","","","","","","","NaN",""
"","S1","","html-keyboard-response","11","128302","0.0-1.0-11.0","0","0","47507","","null","","","null","1","","","","","","","","","","","","","","","",""
"","ISI","","html-keyboard-response","12","130311","0.0-1.0-12.0","0","0","47507","","null","","","null","1","NaN","","","","","","","","","","","","","","",""
"","S2","","html-keyboard-response","13","130569","0.0-1.0-13.0","0","0","47507","","null","","","null","1","","NaN","","","","","","","","","","","","","",""
"","response","","html-keyboard-response","14","131587","0.0-1.0-14.0","0","0","47507","","1014","","","75","1","","","1","1","training","adjacent","DC","4","3","L.jpg","N.jpg","1","0","0","",""
"","feedback","","html-keyboard-response","15","132596","0.0-1.0-15.0-0.0","0","0","47507","","null","","","null","1","","","","","","","","","","","","","","","",""
"","time_out","","html-keyboard-response","16","134601","0.0-1.0-17.0-0.0","0","0","47507","","null","","","null","1","","","","","","","","","","","","","","","",""
"","ITI","","html-keyboard-response","17","135609","0.0-1.0-18.0","0","0","47507","","null","","","null","1","","","","","","","","","","","","","","","NaN",""
"","S1","","html-keyboard-response","18","135868","0.0-1.0-20.0","0","0","47507","","null","","","null","2","","","","","","","","","","","","","","","",""
"","ISI","","html-keyboard-response","19","137875","0.0-1.0-21.0","0","0","47507","","null","","","null","2","NaN","","","","","","","","","","","","","","",""
"","S2","","html-keyboard-response","20","138132","0.0-1.0-22.0","0","0","47507","","null","","","null","2","","NaN","","","","","","","","","","","","","",""
"","response","","html-keyboard-response","21","138853","0.0-1.0-23.0","0","0","47507","","718","","","75","2","","","1","2","training","adjacent","BC","2","3","P.jpg","N.jpg","1","1","1","",""
"","feedback","","html-keyboard-response","22","139859","0.0-1.0-24.0-0.0","0","0","47507","","null","","","null","2","","","","","","","","","","","","","","","",""
"","ITI","","html-keyboard-response","23","140867","0.0-1.0-27.0","0","0","47507","","null","","","null","2","","","","","","","","","","","","","","","NaN",""
"","S1","","html-keyboard-response","24","141125","0.0-1.0-29.0","0","0","47507","","null","","","null","3","","","","","","","","","","","","","","","",""
"","ISI","","html-keyboard-response","25","143134","0.0-1.0-30.0","0","0","47507","","null","","","null","3","NaN","","","","","","","","","","","","","","",""
"","S2","","html-keyboard-response","26","143392","0.0-1.0-31.0","0","0","47507","","null","","","null","3","","NaN","","","","","","","","","","","","","",""
"","response","","html-keyboard-response","27","144030","0.0-1.0-32.0","0","0","47507","","634","","","68","3","","","1","3","training","adjacent","DE","4","5","L.jpg","Q.jpg","0","1","0","",""
"","feedback","","html-keyboard-response","28","145038","0.0-1.0-33.0-0.0","0","0","47507","","null","","","null","3","","","","","","","","","","","","","","","",""
"","time_out","","html-keyboard-response","29","147044","0.0-1.0-35.0-0.0","0","0","47507","","null","","","null","3","","","","","","","","","","","","","","","",""
"","ITI","","html-keyboard-response","30","148051","0.0-1.0-36.0","0","0","47507","","null","","","null","3","","","","","","","","","","","","","","","NaN",""
"","S1","","html-keyboard-response","31","148307","0.0-1.0-38.0","0","0","47507","","null","","","null","4","","","","","","","","","","","","","","","",""
"","ISI","","html-keyboard-response","32","150313","0.0-1.0-39.0","0","0","47507","","null","","","null","4","NaN","","","","","","","","","","","","","","",""
"","S2","","html-keyboard-response","33","150568","0.0-1.0-40.0","0","0","47507","","null","","","null","4","","NaN","","","","","","","","","","","","","",""
"","response","","html-keyboard-response","34","151521","0.0-1.0-41.0","0","0","47507","","949","","","75","4","","","1","4","training","adjacent","DC","4","3","L.jpg","N.jpg","1","0","0","",""
"","feedback","","html-keyboard-response","35","152531","0.0-1.0-42.0-0.0","0","0","47507","","null","","","null","4","","","","","","","","","","","","","","","",""
"","time_out","","html-keyboard-response","36","154537","0.0-1.0-44.0-0.0","0","0","47507","","null","","","null","4","","","","","","","","","","","","","","","",""
"","ITI","","html-keyboard-response","37","155546","0.0-1.0-45.0","0","0","47507","","null","","","null","4","","","","","","","","","","","","","","","NaN",""
"","S1","","html-keyboard-response","38","155806","0.0-1.0-47.0","0","0","47507","","null","","","null","5","","","","","","","","","","","","","","","",""
"","ISI","","html-keyboard-response","39","157811","0.0-1.0-48.0","0","0","47507","","null","","","null","5","NaN","","","","","","","","","","","","","","",""
"","S2","","html-keyboard-response","40","158070","0.0-1.0-49.0","0","0","47507","","null","","","null","5","","NaN","","","","","","","","","","","","","",""
"","response","","html-keyboard-response","41","158926","0.0-1.0-50.0","0","0","47507","","852","","","75","5","","","1","5","training","adjacent","EF","5","6","Q.jpg","R.jpg","1","1","1","",""
"","feedback","","html-keyboard-response","42","159934","0.0-1.0-51.0-0.0","0","0","47507","","null","","","null","5","","","","","","","","","","","","","","","",""
"","ITI","","html-keyboard-response","43","160941","0.0-1.0-54.0","0","0","47507","","null","","","null","5","","","","","","","","","","","","","","","NaN",""
"","S1","","html-keyboard-response","44","161198","0.0-1.0-56.0","0","0","47507","","null","","","null","6","","","","","","","","","","","","","","","",""
"","ISI","","html-keyboard-response","45","163203","0.0-1.0-57.0","0","0","47507","","null","","","null","6","NaN","","","","","","","","","","","","","","",""
"","S2","","html-keyboard-response","46","163459","0.0-1.0-58.0","0","0","47507","","null","","","null","6","","NaN","","","","","","","","","","","","","",""
"","response","","html-keyboard-response","47","164010","0.0-1.0-59.0","0","0","47507","","546","","","75","6","","","1","6","training","adjacent","CB","3","2","N.jpg","P.jpg","1","0","0","",""
"","feedback","","html-keyboard-response","48","165016","0.0-1.0-60.0-0.0","0","0","47507","","null","","","null","6","","","","","","","","","","","","","","","",""
"","time_out","","html-keyboard-response","49","167022","0.0-1.0-62.0-0.0","0","0","47507","","null","","","null","6","","","","","","","","","","","","","","","",""
"","ITI","","html-keyboard-response","50","168030","0.0-1.0-63.0","0","0","47507","","null","","","null","6","","","","","","","","","","","","","","","NaN",""
"","S1","","html-keyboard-response","51","168285","0.0-1.0-65.0","0","0","47507","","null","","","null","7","","","","","","","","","","","","","","","",""
"","ISI","","html-keyboard-response","52","170294","0.0-1.0-66.0","0","0","47507","","null","","","null","7","NaN","","","","","","","","","","","","","","",""
"","S2","","html-keyboard-response","53","170552","0.0-1.0-67.0","0","0","47507","","null","","","null","7","","NaN","","","","","","","","","","","","","",""
"","response","","html-keyboard-response","54","171322","0.0-1.0-68.0","0","0","47507","","766","","","75","7","","","1","7","training","adjacent","GF","7","6","O.jpg","R.jpg","1","0","0","",""
"","feedback","","html-keyboard-response","55","172328","0.0-1.0-69.0-0.0","0","0","47507","","null","","","null","7","","","","","","","","","","","","","","","",""
"","time_out","","html-keyboard-response","56","174333","0.0-1.0-71.0-0.0","0","0","47507","","null","","","null","7","","","","","","","","","","","","","","","",""
"","ITI","","html-keyboard-response","57","175341","0.0-1.0-72.0","0","0","47507","","null","","","null","7","","","","","","","","","","","","","","","NaN",""
"","S1","","html-keyboard-response","58","175597","0.0-1.0-74.0","0","0","47507","","null","","","null","8","","","","","","","","","","","","","","","",""
"","ISI","","html-keyboard-response","59","177603","0.0-1.0-75.0","0","0","47507","","null","","","null","8","NaN","","","","","","","","","","","","","","",""
"","S2","","html-keyboard-response","60","177859","0.0-1.0-76.0","0","0","47507","","null","","","null","8","","NaN","","","","","","","","","","","","","",""
"","response","","html-keyboard-response","61","178162","0.0-1.0-77.0","0","0","47507","","299","","","68","8","","","1","8","training","adjacent","FE","6","5","R.jpg","Q.jpg","0","0","1","",""
"","feedback","","html-keyboard-response","62","179171","0.0-1.0-78.0-0.0","0","0","47507","","null","","","null","8","","","","","","","","","","","","","","","",""
"","ITI","","html-keyboard-response","63","180179","0.0-1.0-81.0","0","0","47507","","null","","","null","8","","","","","","","","","","","","","","","NaN",""
"","S1","","html-keyboard-response","64","180434","0.0-1.0-83.0","0","0","47507","","null","","","null","9","","","","","","","","","","","","","","","",""
"","ISI","","html-keyboard-response","65","182440","0.0-1.0-84.0","0","0","47507","","null","","","null","9","NaN","","","","","","","","","","","","","","",""
"","S2","","html-keyboard-response","66","182698","0.0-1.0-85.0","0","0","47507","","null","","","null","9","","NaN","","","","","","","","","","","","","",""
"","response","","html-keyboard-response","67","183181","0.0-1.0-86.0","0","0","47507","","478","","","75","9","","","1","9","training","adjacent","EF","5","6","Q.jpg","R.jpg","1","1","1","",""
"","feedback","","html-keyboard-response","68","184189","0.0-1.0-87.0-0.0","0","0","47507","","null","","","null","9","","","","","","","","","","","","","","","",""
"","ITI","","html-keyboard-response","69","185197","0.0-1.0-90.0","0","0","47507","","null","","","null","9","","","","","","","","","","","","","","","NaN",""
"","S1","","html-keyboard-response","70","185453","0.0-1.0-92.0","0","0","47507","","null","","","null","10","","","","","","","","","","","","","","","",""
"","ISI","","html-keyboard-response","71","187459","0.0-1.0-93.0","0","0","47507","","null","","","null","10","NaN","","","","","","","","","","","","","","",""
"","S2","","html-keyboard-response","72","187714","0.0-1.0-94.0","0","0","47507","","null","","","null","10","","NaN","","","","","","","","","","","","","",""
"","response","","html-keyboard-response","73","188038","0.0-1.0-95.0","0","0","47507","","320","","","68","10","","","1","10","training","adjacent","BC","2","3","P.jpg","N.jpg","0","1","0","",""
"","feedback","","html-keyboard-response","74","189045","0.0-1.0-96.0-0.0","0","0","47507","","null","","","null","10","","","","","","","","","","","","","","","",""
"","time_out","","html-keyboard-response","75","191053","0.0-1.0-98.0-0.0","0","0","47507","","null","","","null","10","","","","","","","","","","","","","","","",""
"","ITI","","html-keyboard-response","76","192061","0.0-1.0-99.0","0","0","47507","","null","","","null","10","","","","","","","","","","","","","","","NaN",""
"","S1","","html-keyboard-response","77","192317","0.0-1.0-101.0","0","0","47507","","null","","","null","11","","","","","","","","","","","","","","","",""
"","ISI","","html-keyboard-response","78","194322","0.0-1.0-102.0","0","0","47507","","null","","","null","11","NaN","","","","","","","","","","","","","","",""
"","S2","","html-keyboard-response","79","194578","0.0-1.0-103.0","0","0","47507","","null","","","null","11","","NaN","","","","","","","","","","","","","",""
"","response","","html-keyboard-response","80","195083","0.0-1.0-104.0","0","0","47507","","501","","","68","11","","","1","11","training","adjacent","FE","6","5","R.jpg","Q.jpg","0","0","1","",""
"","feedback","","html-keyboard-response","81","196093","0.0-1.0-105.0-0.0","0","0","47507","","null","","","null","11","","","","","","","","","","","","","","","",""
"","ITI","","html-keyboard-response","82","197101","0.0-1.0-108.0","0","0","47507","","null","","","null","11","","","","","","","","","","","","","","","NaN",""
"","S1","","html-keyboard-response","83","197357","0.0-1.0-110.0","0","0","47507","","null","","","null","12","","","","","","","","","","","","","","","",""
"","ISI","","html-keyboard-response","84","199361","0.0-1.0-111.0","0","0","47507","","null","","","null","12","NaN","","","","","","","","","","","","","","",""
"","S2","","html-keyboard-response","85","199618","0.0-1.0-112.0","0","0","47507","","null","","","null","12","","NaN","","","","","","","","","","","","","",""
"","response","","html-keyboard-response","86","200021","0.0-1.0-113.0","0","0","47507","","400","","","75","12","","","1","12","training","adjacent","BC","2","3","P.jpg","N.jpg","1","1","1","",""
"","feedback","","html-keyboard-response","87","201026","0.0-1.0-114.0-0.0","0","0","47507","","null","","","null","12","","","","","","","","","","","","","","","",""
"","ITI","","html-keyboard-response","88","202034","0.0-1.0-117.0","0","0","47507","","null","","","null","12","","","","","","","","","","","","","","","NaN",""
"","S1","","html-keyboard-response","89","202293","0.0-1.0-119.0","0","0","47507","","null","","","null","13","","","","","","","","","","","","","","","",""
"","ISI","","html-keyboard-response","90","204301","0.0-1.0-120.0","0","0","47507","","null","","","null","13","NaN","","","","","","","","","","","","","","",""
"","S2","","html-keyboard-response","91","204557","0.0-1.0-121.0","0","0","47507","","null","","","null","13","","NaN","","","","","","","","","","","","","",""
"","response","","html-keyboard-response","92","204574","0.0-1.0-122.0","0","0","47507","","14","","","75","13","","","1","13","training","adjacent","FG","6","7","R.jpg","O.jpg","1","1","1","",""
"","feedback","","html-keyboard-response","93","205579","0.0-1.0-123.0-0.0","0","0","47507","","null","","","null","13","","","","","","","","","","","","","","","",""
"","ITI","","html-keyboard-response","94","206583","0.0-1.0-126.0","0","0","47507","","null","","","null","13","","","","","","","","","","","","","","","NaN",""
"","S1","","html-keyboard-response","95","206839","0.0-1.0-128.0","0","0","47507","","null","","","null","14","","","","","","","","","","","","","","","",""
"","ISI","","html-keyboard-response","96","208844","0.0-1.0-129.0","0","0","47507","","null","","","null","14","NaN","","","","","","","","","","","","","","",""
"","S2","","html-keyboard-response","97","209101","0.0-1.0-130.0","0","0","47507","","null","","","null","14","","NaN","","","","","","","","","","","","","",""
"","response","","html-keyboard-response","98","209211","0.0-1.0-131.0","0","0","47507","","106","","","68","14","","","1","14","training","adjacent","CD","3","4","N.jpg","L.jpg","0","1","0","",""
"","feedback","","html-keyboard-response","99","210221","0.0-1.0-132.0-0.0","0","0","47507","","null","","","null","14","","","","","","","","","","","","","","","",""
"","time_out","","html-keyboard-response","100","212226","0.0-1.0-134.0-0.0","0","0","47507","","null","","","null","14","","","","","","","","","","","","","","","",""
"","ITI","","html-keyboard-response","101","213234","0.0-1.0-135.0","0","0","47507","","null","","","null","14","","","","","","","","","","","","","","","NaN",""
"","S1","","html-keyboard-response","102","213490","0.0-1.0-137.0","0","0","47507","","null","","","null","15","","","","","","","","","","","","","","","",""
"","ISI","","html-keyboard-response","103","215495","0.0-1.0-138.0","0","0","47507","","null","","","null","15","NaN","","","","","","","","","","","","","","",""
"","S2","","html-keyboard-response","104","215751","0.0-1.0-139.0","0","0","47507","","null","","","null","15","","NaN","","","","","","","","","","","","","",""
"","response","","html-keyboard-response","105","216008","0.0-1.0-140.0","0","0","47507","","252","","","75","15","","","1","15","training","adjacent","EF","5","6","Q.jpg","R.jpg","1","1","1","",""
"","feedback","","html-keyboard-response","106","217015","0.0-1.0-141.0-0.0","0","0","47507","","null","","","null","15","","","","","","","","","","","","","","","",""
"","ITI","","html-keyboard-response","107","218023","0.0-1.0-144.0","0","0","47507","","null","","","null","15","","","","","","","","","","","","","","","NaN",""
"","S1","","html-keyboard-response","108","218279","0.0-1.0-146.0","0","0","47507","","null","","","null","16","","","","","","","","","","","","","","","",""
"","ISI","","html-keyboard-response","109","220284","0.0-1.0-147.0","0","0","47507","","null","","","null","16","NaN","","","","","","","","","","","","","","",""
"","S2","","html-keyboard-response","110","220540","0.0-1.0-148.0","0","0","47507","","null","","","null","16","","NaN","","","","","","","","","","","","","",""
"","response","","html-keyboard-response","111","220912","0.0-1.0-149.0","0","0","47507","","368","","","75","16","","","1","16","training","adjacent","AB","1","2","M.jpg","P.jpg","1","1","1","",""
"","feedback","","html-keyboard-response","112","221922","0.0-1.0-150.0-0.0","0","0","47507","","null","","","null","16","","","","","","","","","","","","","","","",""
"","ITI","","html-keyboard-response","113","222930","0.0-1.0-153.0","0","0","47507","","null","","","null","16","","","","","","","","","","","","","","","NaN",""
"","S1","","html-keyboard-response","114","223185","0.0-1.0-155.0","0","0","47507","","null","","","null","17","","","","","","","","","","","","","","","",""
"","ISI","","html-keyboard-response","115","225191","0.0-1.0-156.0","0","0","47507","","null","","","null","17","NaN","","","","","","","","","","","","","","",""
"","S2","","html-keyboard-response","116","225447","0.0-1.0-157.0","0","0","47507","","null","","","null","17","","NaN","","","","","","","","","","","","","",""
"","response","","html-keyboard-response","117","226096","0.0-1.0-158.0","0","0","47507","","647","","","68","17","","","1","17","training","adjacent","CD","3","4","N.jpg","L.jpg","0","1","0","",""
"","feedback","","html-keyboard-response","118","227101","0.0-1.0-159.0-0.0","0","0","47507","","null","","","null","17","","","","","","","","","","","","","","","",""
"","time_out","","html-keyboard-response","119","229112","0.0-1.0-161.0-0.0","0","0","47507","","null","","","null","17","","","","","","","","","","","","","","","",""
"","ITI","","html-keyboard-response","120","230119","0.0-1.0-162.0","0","0","47507","","null","","","null","17","","","","","","","","","","","","","","","NaN",""
"","S1","","html-keyboard-response","121","230378","0.0-1.0-164.0","0","0","47507","","null","","","null","18","","","","","","","","","","","","","","","",""
"","ISI","","html-keyboard-response","122","232385","0.0-1.0-165.0","0","0","47507","","null","","","null","18","NaN","","","","","","","","","","","","","","",""
"","S2","","html-keyboard-response","123","232641","0.0-1.0-166.0","0","0","47507","","null","","","null","18","","NaN","","","","","","","","","","","","","",""
"","response","","html-keyboard-response","124","232972","0.0-1.0-167.0","0","0","47507","","327","","","68","18","","","1","18","training","adjacent","BA","2","1","P.jpg","M.jpg","0","0","1","",""
"","feedback","","html-keyboard-response","125","233980","0.0-1.0-168.0-0.0","0","0","47507","","null","","","null","18","","","","","","","","","","","","","","","",""
"","ITI","","html-keyboard-response","126","234988","0.0-1.0-171.0","0","0","47507","","null","","","null","18","","","","","","","","","","","","","","","NaN",""
"","S1","","html-keyboard-response","127","235244","0.0-1.0-173.0","0","0","47507","","null","","","null","19","","","","","","","","","","","","","","","",""
"","ISI","","html-keyboard-response","128","237249","0.0-1.0-174.0","0","0","47507","","null","","","null","19","NaN","","","","","","","","","","","","","","",""
"","S2","","html-keyboard-response","129","237505","0.0-1.0-175.0","0","0","47507","","null","","","null","19","","NaN","","","","","","","","","","","","","",""
"","response","","html-keyboard-response","130","237572","0.0-1.0-176.0","0","0","47507","","63","","","75","19","","","1","19","training","adjacent","AB","1","2","M.jpg","P.jpg","1","1","1","",""
"","feedback","","html-keyboard-response","131","238577","0.0-1.0-177.0-0.0","0","0","47507","","null","","","null","19","","","","","","","","","","","","","","","",""
"","ITI","","html-keyboard-response","132","239585","0.0-1.0-180.0","0","0","47507","","null","","","null","19","","","","","","","","","","","","","","","NaN",""
"","S1","","html-keyboard-response","133","239841","0.0-1.0-182.0","0","0","47507","","null","","","null","20","","","","","","","","","","","","","","","",""
"","ISI","","html-keyboard-response","134","241846","0.0-1.0-183.0","0","0","47507","","null","","","null","20","NaN","","","","","","","","","","","","","","",""
"","S2","","html-keyboard-response","135","242103","0.0-1.0-184.0","0","0","47507","","null","","","null","20","","NaN","","","","","","","","","","","","","",""
"","response","","html-keyboard-response","136","242126","0.0-1.0-185.0","0","0","47507","","21","","","75","20","","","1","20","training","adjacent","CB","3","2","N.jpg","P.jpg","1","0","0","",""
"","feedback","","html-keyboard-response","137","243132","0.0-1.0-186.0-0.0","0","0","47507","","null","","","null","20","","","","","","","","","","","","","","","",""
"","time_out","","html-keyboard-response","138","245137","0.0-1.0-188.0-0.0","0","0","47507","","null","","","null","20","","","","","","","","","","","","","","","",""
"","ITI","","html-keyboard-response","139","246145","0.0-1.0-189.0","0","0","47507","","null","","","null","20","","","","","","","","","","","","","","","NaN",""
"","S1","","html-keyboard-response","140","246401","0.0-1.0-191.0","0","0","47507","","null","","","null","21","","","","","","","","","","","","","","","",""
"","ISI","","html-keyboard-response","141","248406","0.0-1.0-192.0","0","0","47507","","null","","","null","21","NaN","","","","","","","","","","","","","","",""
"","S2","","html-keyboard-response","142","248666","0.0-1.0-193.0","0","0","47507","","null","","","null","21","","NaN","","","","","","","","","","","","","",""
"","response","","html-keyboard-response","143","248801","0.0-1.0-194.0","0","0","47507","","131","","","75","21","","","1","21","training","adjacent","GF","7","6","O.jpg","R.jpg","1","0","0","",""
"","feedback","","html-keyboard-response","144","249809","0.0-1.0-195.0-0.0","0","0","47507","","null","","","null","21","","","","","","","","","","","","","","","",""
"","time_out","","html-keyboard-response","145","251814","0.0-1.0-197.0-0.0","0","0","47507","","null","","","null","21","","","","","","","","","","","","","","","",""
"","ITI","","html-keyboard-response","146","252822","0.0-1.0-198.0","0","0","47507","","null","","","null","21","","","","","","","","","","","","","","","NaN",""
"","S1","","html-keyboard-response","147","253078","0.0-1.0-200.0","0","0","47507","","null","","","null","22","","","","","","","","","","","","","","","",""
"","ISI","","html-keyboard-response","148","255084","0.0-1.0-201.0","0","0","47507","","null","","","null","22","NaN","","","","","","","","","","","","","","",""
"","S2","","html-keyboard-response","149","255340","0.0-1.0-202.0","0","0","47507","","null","","","null","22","","NaN","","","","","","","","","","","","","",""
"","response","","html-keyboard-response","150","255945","0.0-1.0-203.0","0","0","47507","","600","","","68","22","","","1","22","training","adjacent","CD","3","4","N.jpg","L.jpg","0","1","0","",""
"","feedback","","html-keyboard-response","151","256951","0.0-1.0-204.0-0.0","0","0","47507","","null","","","null","22","","","","","","","","","","","","","","","",""
"","time_out","","html-keyboard-response","152","258956","0.0-1.0-206.0-0.0","0","0","47507","","null","","","null","22","","","","","","","","","","","","","","","",""
"","ITI","","html-keyboard-response","153","259963","0.0-1.0-207.0","0","0","47507","","null","","","null","22","","","","","","","","","","","","","","","NaN",""
"","S1","","html-keyboard-response","154","260219","0.0-1.0-209.0","0","0","47507","","null","","","null","23","","","","","","","","","","","","","","","",""
"","ISI","","html-keyboard-response","155","262228","0.0-1.0-210.0","0","0","47507","","null","","","null","23","NaN","","","","","","","","","","","","","","",""
"","S2","","html-keyboard-response","156","262486","0.0-1.0-211.0","0","0","47507","","null","","","null","23","","NaN","","","","","","","","","","","","","",""
"","response","","html-keyboard-response","157","263056","0.0-1.0-212.0","0","0","47507","","565","","","68","23","","","1","23","training","adjacent","ED","5","4","Q.jpg","L.jpg","0","0","1","",""
"","feedback","","html-keyboard-response","158","264065","0.0-1.0-213.0-0.0","0","0","47507","","null","","","null","23","","","","","","","","","","","","","","","",""
"","ITI","","html-keyboard-response","159","265073","0.0-1.0-216.0","0","0","47507","","null","","","null","23","","","","","","","","","","","","","","","NaN",""
"","S1","","html-keyboard-response","160","265329","0.0-1.0-218.0","0","0","47507","","null","","","null","24","","","","","","","","","","","","","","","",""
"","ISI","","html-keyboard-response","161","267334","0.0-1.0-219.0","0","0","47507","","null","","","null","24","NaN","","","","","","","","","","","","","","",""
"","S2","","html-keyboard-response","162","267590","0.0-1.0-220.0","0","0","47507","","null","","","null","24","","NaN","","","","","","","","","","","","","",""
"","response","","html-keyboard-response","163","269489","0.0-1.0-221.0","0","0","47507","","1895","","","75","24","","","1","24","training","adjacent","FG","6","7","R.jpg","O.jpg","1","1","1","",""
"","feedback","","html-keyboard-response","164","270496","0.0-1.0-222.0-0.0","0","0","47507","","null","","","null","24","","","","","","","","","","","","","","","",""
"","ITI","","html-keyboard-response","165","271504","0.0-1.0-225.0","0","0","47507","","null","","","null","24","","","","","","","","","","","","","","","NaN",""
"","S1","","html-keyboard-response","166","271761","0.0-1.0-227.0","0","0","47507","","null","","","null","25","","","","","","","","","","","","","","","",""
"","ISI","","html-keyboard-response","167","273766","0.0-1.0-228.0","0","0","47507","","null","","","null","25","NaN","","","","","","","","","","","","","","",""
"","S2","","html-keyboard-response","168","274022","0.0-1.0-229.0","0","0","47507","","null","","","null","25","","NaN","","","","","","","","","","","","","",""
"","response","","html-keyboard-response","169","274554","0.0-1.0-230.0","0","0","47507","","528","","","75","25","","","1","25","training","adjacent","BA","2","1","P.jpg","M.jpg","1","0","0","",""
"","feedback","","html-keyboard-response","170","275563","0.0-1.0-231.0-0.0","0","0","47507","","null","","","null","25","","","","","","","","","","","","","","","",""
"","time_out","","html-keyboard-response","171","277568","0.0-1.0-233.0-0.0","0","0","47507","","null","","","null","25","","","","","","","","","","","","","","","",""
"","ITI","","html-keyboard-response","172","278576","0.0-1.0-234.0","0","0","47507","","null","","","null","25","","","","","","","","","","","","","","","NaN",""
"","S1","","html-keyboard-response","173","278832","0.0-1.0-236.0","0","0","47507","","null","","","null","26","","","","","","","","","","","","","","","",""
"","ISI","","html-keyboard-response","174","280838","0.0-1.0-237.0","0","0","47507","","1407","","","75","26","k","","","","","","","","","","","","","","",""
"","S2","","html-keyboard-response","175","281094","0.0-1.0-238.0","0","0","47507","","null","","","null","26","","NaN","","","","","","","","","","","","","",""
"","response","","html-keyboard-response","176","281166","0.0-1.0-239.0","0","0","47507","","68","","","75","26","","","1","26","training","adjacent","CB","3","2","N.jpg","P.jpg","1","0","0","",""
"","feedback","","html-keyboard-response","177","282171","0.0-1.0-240.0-0.0","0","0","47507","","null","","","null","26","","","","","","","","","","","","","","","",""
"","time_out","","html-keyboard-response","178","284176","0.0-1.0-242.0-0.0","0","0","47507","","null","","","null","26","","","","","","","","","","","","","","","",""
"","ITI","","html-keyboard-response","179","285184","0.0-1.0-243.0","0","0","47507","","null","","","null","26","","","","","","","","","","","","","","","NaN",""
"","S1","","html-keyboard-response","180","285440","0.0-1.0-245.0","0","0","47507","","null","","","null","27","","","","","","","","","","","","","","","",""
"","ISI","","html-keyboard-response","181","287445","0.0-1.0-246.0","0","0","47507","","null","","","null","27","NaN","","","","","","","","","","","","","","",""
"","S2","","html-keyboard-response","182","287701","0.0-1.0-247.0","0","0","47507","","null","","","null","27","","NaN","","","","","","","","","","","","","",""
"","response","","html-keyboard-response","183","288120","0.0-1.0-248.0","0","0","47507","","415","","","68","27","","","1","27","training","adjacent","DE","4","5","L.jpg","Q.jpg","0","1","0","",""
"","feedback","","html-keyboard-response","184","289126","0.0-1.0-249.0-0.0","0","0","47507","","null","","","null","27","","","","","","","","","","","","","","","",""
"","time_out","","html-keyboard-response","185","291131","0.0-1.0-251.0-0.0","0","0","47507","","null","","","null","27","","","","","","","","","","","","","","","",""
"","ITI","","html-keyboard-response","186","292139","0.0-1.0-252.0","0","0","47507","","null","","","null","27","","","","","","","","","","","","","","","NaN",""
"","S1","","html-keyboard-response","187","292395","0.0-1.0-254.0","0","0","47507","","null","","","null","28","","","","","","","","","","","","","","","",""
"","ISI","","html-keyboard-response","188","294400","0.0-1.0-255.0","0","0","47507","","null","","","null","28","NaN","","","","","","","","","","","","","","",""
"","S2","","html-keyboard-response","189","294657","0.0-1.0-256.0","0","0","47507","","null","","","null","28","","NaN","","","","","","","","","","","","","",""
"","response","","html-keyboard-response","190","294708","0.0-1.0-257.0","0","0","47507","","47","","","68","28","","","1","28","training","adjacent","CB","3","2","N.jpg","P.jpg","0","0","1","",""
"","feedback","","html-keyboard-response","191","295716","0.0-1.0-258.0-0.0","0","0","47507","","null","","","null","28","","","","","","","","","","","","","","","",""
"","ITI","","html-keyboard-response","192","296725","0.0-1.0-261.0","0","0","47507","","null","","","null","28","","","","","","","","","","","","","","","NaN",""
"","S1","","html-keyboard-response","193","296981","0.0-1.0-263.0","0","0","47507","","null","","","null","29","","","","","","","","","","","","","","","",""
"","ISI","","html-keyboard-response","194","298987","0.0-1.0-264.0","0","0","47507","","null","","","null","29","NaN","","","","","","","","","","","","","","",""
"","S2","","html-keyboard-response","195","299242","0.0-1.0-265.0","0","0","47507","","null","","","null","29","","NaN","","","","","","","","","","","","","",""
"","response","","html-keyboard-response","196","299728","0.0-1.0-266.0","0","0","47507","","482","","","75","29","","","1","29","training","adjacent","EF","5","6","Q.jpg","R.jpg","1","1","1","",""
"","feedback","","html-keyboard-response","197","300736","0.0-1.0-267.0-0.0","0","0","47507","","null","","","null","29","","","","","","","","","","","","","","","",""
"","ITI","","html-keyboard-response","198","301745","0.0-1.0-270.0","0","0","47507","","null","","","null","29","","","","","","","","","","","","","","","NaN",""
"","S1","","html-keyboard-response","199","301999","0.0-1.0-272.0","0","0","47507","","null","","","null","30","","","","","","","","","","","","","","","",""
"","ISI","","html-keyboard-response","200","304006","0.0-1.0-273.0","0","0","47507","","null","","","null","30","NaN","","","","","","","","","","","","","","",""
"","S2","","html-keyboard-response","201","304262","0.0-1.0-274.0","0","0","47507","","null","","","null","30","","NaN","","","","","","","","","","","","","",""
"","response","","html-keyboard-response","202","304803","0.0-1.0-275.0","0","0","47507","","537","","","75","30","","","1","30","training","adjacent","GF","7","6","O.jpg","R.jpg","1","0","0","",""
"","feedback","","html-keyboard-response","203","305813","0.0-1.0-276.0-0.0","0","0","47507","","null","","","null","30","","","","","","","","","","","","","","","",""
"","time_out","","html-keyboard-response","204","307818","0.0-1.0-278.0-0.0","0","0","47507","","null","","","null","30","","","","","","","","","","","","","","","",""
"","ITI","","html-keyboard-response","205","308826","0.0-1.0-279.0","0","0","47507","","null","","","null","30","","","","","","","","","","","","","","","NaN",""
"","S1","","html-keyboard-response","206","309082","0.0-1.0-281.0","0","0","47507","","null","","","null","31","","","","","","","","","","","","","","","",""
"","ISI","","html-keyboard-response","207","311088","0.0-1.0-282.0","0","0","47507","","null","","","null","31","NaN","","","","","","","","","","","","","","",""
"","S2","","html-keyboard-response","208","311343","0.0-1.0-283.0","0","0","47507","","null","","","null","31","","NaN","","","","","","","","","","","","","",""
"","response","","html-keyboard-response","209","311948","0.0-1.0-284.0","0","0","47507","","600","","","75","31","","","1","31","training","adjacent","CD","3","4","N.jpg","L.jpg","1","1","1","",""
"","feedback","","html-keyboard-response","210","312954","0.0-1.0-285.0-0.0","0","0","47507","","null","","","null","31","","","","","","","","","","","","","","","",""
"","ITI","","html-keyboard-response","211","313962","0.0-1.0-288.0","0","0","47507","","null","","","null","31","","","","","","","","","","","","","","","NaN",""
"","S1","","html-keyboard-response","212","314218","0.0-1.0-290.0","0","0","47507","","null","","","null","32","","","","","","","","","","","","","","","",""
"","ISI","","html-keyboard-response","213","316223","0.0-1.0-291.0","0","0","47507","","null","","","null","32","NaN","","","","","","","","","","","","","","",""
"","S2","","html-keyboard-response","214","316479","0.0-1.0-292.0","0","0","47507","","null","","","null","32","","NaN","","","","","","","","","","","","","",""
"","response","","html-keyboard-response","215","316920","0.0-1.0-293.0","0","0","47507","","436","","","68","32","","","1","32","training","adjacent","FE","6","5","R.jpg","Q.jpg","0","0","1","",""
"","feedback","","html-keyboard-response","216","317925","0.0-1.0-294.0-0.0","0","0","47507","","null","","","null","32","","","","","","","","","","","","","","","",""
"","ITI","","html-keyboard-response","217","318933","0.0-1.0-297.0","0","0","47507","","null","","","null","32","","","","","","","","","","","","","","","NaN",""
"","S1","","html-keyboard-response","218","319189","0.0-1.0-299.0","0","0","47507","","null","","","null","33","","","","","","","","","","","","","","","",""
"","ISI","","html-keyboard-response","219","321194","0.0-1.0-300.0","0","0","47507","","null","","","null","33","NaN","","","","","","","","","","","","","","",""
"","S2","","html-keyboard-response","220","321450","0.0-1.0-301.0","0","0","47507","","null","","","null","33","","NaN","","","","","","","","","","","","","",""
"","response","","html-keyboard-response","221","322208","0.0-1.0-302.0","0","0","47507","","753","","","68","33","","","1","33","training","adjacent","DC","4","3","L.jpg","N.jpg","0","0","1","",""
"","feedback","","html-keyboard-response","222","323215","0.0-1.0-303.0-0.0","0","0","47507","","null","","","null","33","","","","","","","","","","","","","","","",""
"","ITI","","html-keyboard-response","223","324221","0.0-1.0-306.0","0","0","47507","","null","","","null","33","","","","","","","","","","","","","","","NaN",""
"","S1","","html-keyboard-response","224","324479","0.0-1.0-308.0","0","0","47507","","null","","","null","34","","","","","","","","","","","","","","","",""
"","ISI","","html-keyboard-response","225","326485","0.0-1.0-309.0","0","0","47507","","null","","","null","34","NaN","","","","","","","","","","","","","","",""
"","S2","","html-keyboard-response","226","326741","0.0-1.0-310.0","0","0","47507","","null","","","null","34","","NaN","","","","","","","","","","","","","",""
"","response","","html-keyboard-response","227","327717","0.0-1.0-311.0","0","0","47507","","972","","","68","34","","","1","34","training","adjacent","BA","2","1","P.jpg","M.jpg","0","0","1","",""
"","feedback","","html-keyboard-response","228","328724","0.0-1.0-312.0-0.0","0","0","47507","","null","","","null","34","","","","","","","","","","","","","","","",""
"","ITI","","html-keyboard-response","229","329733","0.0-1.0-315.0","0","0","47507","","null","","","null","34","","","","","","","","","","","","","","","NaN",""
"","S1","","html-keyboard-response","230","329989","0.0-1.0-317.0","0","0","47507","","null","","","null","35","","","","","","","","","","","","","","","",""
"","ISI","","html-keyboard-response","231","331997","0.0-1.0-318.0","0","0","47507","","null","","","null","35","NaN","","","","","","","","","","","","","","",""
"","S2","","html-keyboard-response","232","332255","0.0-1.0-319.0","0","0","47507","","null","","","null","35","","NaN","","","","","","","","","","","","","",""
"","response","","html-keyboard-response","233","332804","0.0-1.0-320.0","0","0","47507","","545","","","75","35","","","1","35","training","adjacent","BA","2","1","P.jpg","M.jpg","1","0","0","",""
"","feedback","","html-keyboard-response","234","333812","0.0-1.0-321.0-0.0","0","0","47507","","null","","","null","35","","","","","","","","","","","","","","","",""
"","time_out","","html-keyboard-response","235","335818","0.0-1.0-323.0-0.0","0","0","47507","","null","","","null","35","","","","","","","","","","","","","","","",""
"","ITI","","html-keyboard-response","236","336826","0.0-1.0-324.0","0","0","47507","","null","","","null","35","","","","","","","","","","","","","","","NaN",""
"","S1","","html-keyboard-response","237","337082","0.0-1.0-326.0","0","0","47507","","null","","","null","36","","","","","","","","","","","","","","","",""
"","ISI","","html-keyboard-response","238","339088","0.0-1.0-327.0","0","0","47507","","null","","","null","36","NaN","","","","","","","","","","","","","","",""
"","S2","","html-keyboard-response","239","339348","0.0-1.0-328.0","0","0","47507","","null","","","null","36","","NaN","","","","","","","","","","","","","",""
"","response","","html-keyboard-response","240","340197","0.0-1.0-329.0","0","0","47507","","844","","","75","36","","","1","36","training","adjacent","DE","4","5","L.jpg","Q.jpg","1","1","1","",""
"","feedback","","html-keyboard-response","241","341205","0.0-1.0-330.0-0.0","0","0","47507","","null","","","null","36","","","","","","","","","","","","","","","",""
"","ITI","","html-keyboard-response","242","342212","0.0-1.0-333.0","0","0","47507","","null","","","null","36","","","","","","","","","","","","","","","NaN",""
"","S1","","html-keyboard-response","243","342468","0.0-1.0-335.0","0","0","47507","","null","","","null","37","","","","","","","","","","","","","","","",""
"","ISI","","html-keyboard-response","244","344474","0.0-1.0-336.0","0","0","47507","","null","","","null","37","NaN","","","","","","","","","","","","","","",""
"","S2","","html-keyboard-response","245","344730","0.0-1.0-337.0","0","0","47507","","null","","","null","37","","NaN","","","","","","","","","","","","","",""
"","response","","html-keyboard-response","246","345268","0.0-1.0-338.0","0","0","47507","","535","","","68","37","","","1","37","training","adjacent","AB","1","2","M.jpg","P.jpg","0","1","0","",""
"","feedback","","html-keyboard-response","247","346276","0.0-1.0-339.0-0.0","0","0","47507","","null","","","null","37","","","","","","","","","","","","","","","",""
"","time_out","","html-keyboard-response","248","348281","0.0-1.0-341.0-0.0","0","0","47507","","null","","","null","37","","","","","","","","","","","","","","","",""
"","ITI","","html-keyboard-response","249","349289","0.0-1.0-342.0","0","0","47507","","null","","","null","37","","","","","","","","","","","","","","","NaN",""
"","S1","","html-keyboard-response","250","349545","0.0-1.0-344.0","0","0","47507","","null","","","null","38","","","","","","","","","","","","","","","",""
"","ISI","","html-keyboard-response","251","351551","0.0-1.0-345.0","0","0","47507","","null","","","null","38","NaN","","","","","","","","","","","","","","",""
"","S2","","html-keyboard-response","252","351807","0.0-1.0-346.0","0","0","47507","","null","","","null","38","","NaN","","","","","","","","","","","","","",""
"","response","","html-keyboard-response","253","352177","0.0-1.0-347.0","0","0","47507","","366","","","75","38","","","1","38","training","adjacent","ED","5","4","Q.jpg","L.jpg","1","0","0","",""
"","feedback","","html-keyboard-response","254","353183","0.0-1.0-348.0-0.0","0","0","47507","","null","","","null","38","","","","","","","","","","","","","","","",""
"","time_out","","html-keyboard-response","255","355188","0.0-1.0-350.0-0.0","0","0","47507","","null","","","null","38","","","","","","","","","","","","","","","",""
"","ITI","","html-keyboard-response","256","356196","0.0-1.0-351.0","0","0","47507","","null","","","null","38","","","","","","","","","","","","","","","NaN",""
"","S1","","html-keyboard-response","257","356452","0.0-1.0-353.0","0","0","47507","","null","","","null","39","","","","","","","","","","","","","","","",""
"","ISI","","html-keyboard-response","258","358457","0.0-1.0-354.0","0","0","47507","","null","","","null","39","NaN","","","","","","","","","","","","","","",""
"","S2","","html-keyboard-response","259","358713","0.0-1.0-355.0","0","0","47507","","null","","","null","39","","NaN","","","","","","","","","","","","","",""
"","response","","html-keyboard-response","260","359308","0.0-1.0-356.0","0","0","47507","","591","","","68","39","","","1","39","training","adjacent","FG","6","7","R.jpg","O.jpg","0","1","0","",""
"","feedback","","html-keyboard-response","261","360310","0.0-1.0-357.0-0.0","0","0","47507","","null","","","null","39","","","","","","","","","","","","","","","",""
"","time_out","","html-keyboard-response","262","362319","0.0-1.0-359.0-0.0","0","0","47507","","null","","","null","39","","","","","","","","","","","","","","","",""
"","ITI","","html-keyboard-response","263","363326","0.0-1.0-360.0","0","0","47507","","null","","","null","39","","","","","","","","","","","","","","","NaN",""
"","S1","","html-keyboard-response","264","363582","0.0-1.0-362.0","0","0","47507","","null","","","null","40","","","","","","","","","","","","","","","",""
"","ISI","","html-keyboard-response","265","365588","0.0-1.0-363.0","0","0","47507","","null","","","null","40","NaN","","","","","","","","","","","","","","",""
"","S2","","html-keyboard-response","266","365844","0.0-1.0-364.0","0","0","47507","","null","","","null","40","","NaN","","","","","","","","","","","","","",""
"","response","","html-keyboard-response","267","366487","0.0-1.0-365.0","0","0","47507","","639","","","75","40","","","1","40","training","adjacent","GF","7","6","O.jpg","R.jpg","1","0","0","",""
"","feedback","","html-keyboard-response","268","367497","0.0-1.0-366.0-0.0","0","0","47507","","null","","","null","40","","","","","","","","","","","","","","","",""
"","time_out","","html-keyboard-response","269","369502","0.0-1.0-368.0-0.0","0","0","47507","","null","","","null","40","","","","","","","","","","","","","","","",""
"","ITI","","html-keyboard-response","270","370510","0.0-1.0-369.0","0","0","47507","","null","","","null","40","","","","","","","","","","","","","","","NaN",""
"","S1","","html-keyboard-response","271","370766","0.0-1.0-371.0","0","0","47507","","null","","","null","41","","","","","","","","","","","","","","","",""
"","ISI","","html-keyboard-response","272","372772","0.0-1.0-372.0","0","0","47507","","null","","","null","41","NaN","","","","","","","","","","","","","","",""
"","S2","","html-keyboard-response","273","373028","0.0-1.0-373.0","0","0","47507","","null","","","null","41","","NaN","","","","","","","","","","","","","",""
"","response","","html-keyboard-response","274","373663","0.0-1.0-374.0","0","0","47507","","631","","","68","41","","","1","41","training","adjacent","FE","6","5","R.jpg","Q.jpg","0","0","1","",""
"","feedback","","html-keyboard-response","275","374670","0.0-1.0-375.0-0.0","0","0","47507","","null","","","null","41","","","","","","","","","","","","","","","",""
"","ITI","","html-keyboard-response","276","375678","0.0-1.0-378.0","0","0","47507","","null","","","null","41","","","","","","","","","","","","","","","NaN",""
"","S1","","html-keyboard-response","277","375934","0.0-1.0-380.0","0","0","47507","","null","","","null","42","","","","","","","","","","","","","","","",""
"","ISI","","html-keyboard-response","278","377940","0.0-1.0-381.0","0","0","47507","","null","","","null","42","NaN","","","","","","","","","","","","","","",""
"","S2","","html-keyboard-response","279","378196","0.0-1.0-382.0","0","0","47507","","null","","","null","42","","NaN","","","","","","","","","","","","","",""
"","response","","html-keyboard-response","280","378615","0.0-1.0-383.0","0","0","47507","","414","","","75","42","","","1","42","training","adjacent","ED","5","4","Q.jpg","L.jpg","1","0","0","",""
"","feedback","","html-keyboard-response","281","379625","0.0-1.0-384.0-0.0","0","0","47507","","null","","","null","42","","","","","","","","","","","","","","","",""
"","time_out","","html-keyboard-response","282","381630","0.0-1.0-386.0-0.0","0","0","47507","","null","","","null","42","","","","","","","","","","","","","","","",""
"","ITI","","html-keyboard-response","283","382638","0.0-1.0-387.0","0","0","47507","","null","","","null","42","","","","","","","","","","","","","","","NaN",""
"","S1","","html-keyboard-response","284","382894","0.0-1.0-389.0","0","0","47507","","null","","","null","43","","","","","","","","","","","","","","","",""
"","ISI","","html-keyboard-response","285","384899","0.0-1.0-390.0","0","0","47507","","null","","","null","43","NaN","","","","","","","","","","","","","","",""
"","S2","","html-keyboard-response","286","385155","0.0-1.0-391.0","0","0","47507","","null","","","null","43","","NaN","","","","","","","","","","","","","",""
"","response","","html-keyboard-response","287","386535","0.0-1.0-392.0","0","0","47507","","1376","","","68","43","","","1","43","training","adjacent","DE","4","5","L.jpg","Q.jpg","0","1","0","",""
"","feedback","","html-keyboard-response","288","387545","0.0-1.0-393.0-0.0","0","0","47507","","null","","","null","43","","","","","","","","","","","","","","","",""
"","time_out","","html-keyboard-response","289","389550","0.0-1.0-395.0-0.0","0","0","47507","","null","","","null","43","","","","","","","","","","","","","","","",""
"","ITI","","html-keyboard-response","290","390558","0.0-1.0-396.0","0","0","47507","","null","","","null","43","","","","","","","","","","","","","","","NaN",""
"","S1","","html-keyboard-response","291","390814","0.0-1.0-398.0","0","0","47507","","null","","","null","44","","","","","","","","","","","","","","","",""
"","ISI","","html-keyboard-response","292","392819","0.0-1.0-399.0","0","0","47507","","null","","","null","44","NaN","","","","","","","","","","","","","","",""
"","S2","","html-keyboard-response","293","393075","0.0-1.0-400.0","0","0","47507","","null","","","null","44","","NaN","","","","","","","","","","","","","",""
"","response","","html-keyboard-response","294","393688","0.0-1.0-401.0","0","0","47507","","609","","","68","44","","","1","44","training","adjacent","ED","5","4","Q.jpg","L.jpg","0","0","1","",""
"","feedback","","html-keyboard-response","295","394696","0.0-1.0-402.0-0.0","0","0","47507","","null","","","null","44","","","","","","","","","","","","","","","",""
"","ITI","","html-keyboard-response","296","395704","0.0-1.0-405.0","0","0","47507","","null","","","null","44","","","","","","","","","","","","","","","NaN",""
"","S1","","html-keyboard-response","297","395960","0.0-1.0-407.0","0","0","47507","","null","","","null","45","","","","","","","","","","","","","","","",""
"","ISI","","html-keyboard-response","298","397966","0.0-1.0-408.0","0","0","47507","","null","","","null","45","NaN","","","","","","","","","","","","","","",""
"","S2","","html-keyboard-response","299","398222","0.0-1.0-409.0","0","0","47507","","null","","","null","45","","NaN","","","","","","","","","","","","","",""
"","response","","html-keyboard-response","300","399923","0.0-1.0-410.0","0","0","47507","","1696","","","68","45","","","1","45","training","adjacent","AB","1","2","M.jpg","P.jpg","0","1","0","",""
"","feedback","","html-keyboard-response","301","400931","0.0-1.0-411.0-0.0","0","0","47507","","null","","","null","45","","","","","","","","","","","","","","","",""
"","time_out","","html-keyboard-response","302","402936","0.0-1.0-413.0-0.0","0","0","47507","","null","","","null","45","","","","","","","","","","","","","","","",""
"","ITI","","html-keyboard-response","303","403944","0.0-1.0-414.0","0","0","47507","","null","","","null","45","","","","","","","","","","","","","","","NaN",""
"","S1","","html-keyboard-response","304","404200","0.0-1.0-416.0","0","0","47507","","null","","","null","46","","","","","","","","","","","","","","","",""
"","ISI","","html-keyboard-response","305","406206","0.0-1.0-417.0","0","0","47507","","null","","","null","46","NaN","","","","","","","","","","","","","","",""
"","S2","","html-keyboard-response","306","406461","0.0-1.0-418.0","0","0","47507","","null","","","null","46","","NaN","","","","","","","","","","","","","",""
"","response","","html-keyboard-response","307","407550","0.0-1.0-419.0","0","0","47507","","1084","","","75","46","","","1","46","training","adjacent","BC","2","3","P.jpg","N.jpg","1","1","1","",""
"","feedback","","html-keyboard-response","308","408559","0.0-1.0-420.0-0.0","0","0","47507","","null","","","null","46","","","","","","","","","","","","","","","",""
"","ITI","","html-keyboard-response","309","409566","0.0-1.0-423.0","0","0","47507","","null","","","null","46","","","","","","","","","","","","","","","NaN",""
"","S1","","html-keyboard-response","310","409823","0.0-1.0-425.0","0","0","47507","","null","","","null","47","","","","","","","","","","","","","","","",""
"","ISI","","html-keyboard-response","311","411831","0.0-1.0-426.0","0","0","47507","","null","","","null","47","NaN","","","","","","","","","","","","","","",""
"","S2","","html-keyboard-response","312","412088","0.0-1.0-427.0","0","0","47507","","null","","","null","47","","NaN","","","","","","","","","","","","","",""
"","response","","html-keyboard-response","313","413579","0.0-1.0-428.0","0","0","47507","","1487","","","68","47","","","1","47","training","adjacent","DC","4","3","L.jpg","N.jpg","0","0","1","",""
"","feedback","","html-keyboard-response","314","414584","0.0-1.0-429.0-0.0","0","0","47507","","null","","","null","47","","","","","","","","","","","","","","","",""
"","ITI","","html-keyboard-response","315","415592","0.0-1.0-432.0","0","0","47507","","null","","","null","47","","","","","","","","","","","","","","","NaN",""
"","block_over","","html-keyboard-response","316","422151","0.0-1.0-433.0-0.0","0","0","47507","","6554","","","32","47","","","","","","","","","","","","","","","",""
"","S1","","html-keyboard-response","317","422408","0.0-1.0-434.0","0","0","47507","","null","","","null","48","","","","","","","","","","","","","","","",""
"","ISI","","html-keyboard-response","318","424413","0.0-1.0-435.0","0","0","47507","","null","","","null","48","NaN","","","","","","","","","","","","","","",""
"","S2","","html-keyboard-response","319","424669","0.0-1.0-436.0","0","0","47507","","null","","","null","48","","NaN","","","","","","","","","","","","","",""
"","response","","html-keyboard-response","320","425190","0.0-1.0-437.0","0","0","47507","","516","","","75","48","","","2","48","training","adjacent","FG","6","7","R.jpg","O.jpg","1","1","1","",""
"","feedback","","html-keyboard-response","321","426200","0.0-1.0-438.0-0.0","0","0","47507","","null","","","null","48","","","","","","","","","","","","","","","",""
"","ITI","","html-keyboard-response","322","427208","0.0-1.0-441.0","0","0","47507","","null","","","null","48","","","","","","","","","","","","","","","NaN",""
"","S1","","html-keyboard-response","323","427465","0.0-1.0-443.0","0","0","47507","","null","","","null","49","","","","","","","","","","","","","","","",""
"","ISI","","html-keyboard-response","324","429474","0.0-1.0-444.0","0","0","47507","","null","","","null","49","NaN","","","","","","","","","","","","","","",""
"","S2","","html-keyboard-response","325","429730","0.0-1.0-445.0","0","0","47507","","null","","","null","49","","NaN","","","","","","","","","","","","","",""
"","response","","html-keyboard-response","326","430049","0.0-1.0-446.0","0","0","47507","","315","","","75","49","","","2","49","training","adjacent","CD","3","4","N.jpg","L.jpg","1","1","1","",""
"","feedback","","html-keyboard-response","327","431058","0.0-1.0-447.0-0.0","0","0","47507","","null","","","null","49","","","","","","","","","","","","","","","",""
"","ITI","","html-keyboard-response","328","432066","0.0-1.0-450.0","0","0","47507","","null","","","null","49","","","","","","","","","","","","","","","NaN",""
"","S1","","html-keyboard-response","329","432322","0.0-1.0-452.0","0","0","47507","","null","","","null","50","","","","","","","","","","","","","","","",""
"","ISI","","html-keyboard-response","330","434328","0.0-1.0-453.0","0","0","47507","","null","","","null","50","NaN","","","","","","","","","","","","","","",""
"","S2","","html-keyboard-response","331","434583","0.0-1.0-454.0","0","0","47507","","null","","","null","50","","NaN","","","","","","","","","","","","","",""
"","response","","html-keyboard-response","332","435178","0.0-1.0-455.0","0","0","47507","","591","","","68","50","","","2","50","training","adjacent","CD","3","4","N.jpg","L.jpg","0","1","0","",""
"","feedback","","html-keyboard-response","333","436183","0.0-1.0-456.0-0.0","0","0","47507","","null","","","null","50","","","","","","","","","","","","","","","",""
"","time_out","","html-keyboard-response","334","438189","0.0-1.0-458.0-0.0","0","0","47507","","null","","","null","50","","","","","","","","","","","","","","","",""
"","ITI","","html-keyboard-response","335","439197","0.0-1.0-459.0","0","0","47507","","null","","","null","50","","","","","","","","","","","","","","","NaN",""
"","S1","","html-keyboard-response","336","439453","0.0-1.0-461.0","0","0","47507","","null","","","null","51","","","","","","","","","","","","","","","",""
"","ISI","","html-keyboard-response","337","441458","0.0-1.0-462.0","0","0","47507","","null","","","null","51","NaN","","","","","","","","","","","","","","",""
"","S2","","html-keyboard-response","338","441714","0.0-1.0-463.0","0","0","47507","","null","","","null","51","","NaN","","","","","","","","","","","","","",""
"","response","","html-keyboard-response","339","442628","0.0-1.0-464.0","0","0","47507","","909","","","75","51","","","2","51","training","adjacent","BA","2","1","P.jpg","M.jpg","1","0","0","",""
"","feedback","","html-keyboard-response","340","443634","0.0-1.0-465.0-0.0","0","0","47507","","null","","","null","51","","","","","","","","","","","","","","","",""
"","time_out","","html-keyboard-response","341","445639","0.0-1.0-467.0-0.0","0","0","47507","","null","","","null","51","","","","","","","","","","","","","","","",""
"","ITI","","html-keyboard-response","342","446647","0.0-1.0-468.0","0","0","47507","","null","","","null","51","","","","","","","","","","","","","","","NaN",""
"","S1","","html-keyboard-response","343","446903","0.0-1.0-470.0","0","0","47507","","null","","","null","52","","","","","","","","","","","","","","","",""
"","ISI","","html-keyboard-response","344","448909","0.0-1.0-471.0","0","0","47507","","null","","","null","52","NaN","","","","","","","","","","","","","","",""
"","S2","","html-keyboard-response","345","449164","0.0-1.0-472.0","0","0","47507","","null","","","null","52","","NaN","","","","","","","","","","","","","",""
"","response","","html-keyboard-response","346","450591","0.0-1.0-473.0","0","0","47507","","1422","","","68","52","","","2","52","training","adjacent","FE","6","5","R.jpg","Q.jpg","0","0","1","",""
"","feedback","","html-keyboard-response","347","451597","0.0-1.0-474.0-0.0","0","0","47507","","null","","","null","52","","","","","","","","","","","","","","","",""
"","ITI","","html-keyboard-response","348","452604","0.0-1.0-477.0","0","0","47507","","null","","","null","52","","","","","","","","","","","","","","","NaN",""
"","S1","","html-keyboard-response","349","452860","0.0-1.0-479.0","0","0","47507","","null","","","null","53","","","","","","","","","","","","","","","",""
"","ISI","","html-keyboard-response","350","454866","0.0-1.0-480.0","0","0","47507","","null","","","null","53","NaN","","","","","","","","","","","","","","",""
"","S2","","html-keyboard-response","351","455122","0.0-1.0-481.0","0","0","47507","","null","","","null","53","","NaN","","","","","","","","","","","","","",""
"","response","","html-keyboard-response","352","455497","0.0-1.0-482.0","0","0","47507","","371","","","75","53","","","2","53","training","adjacent","CB","3","2","N.jpg","P.jpg","1","0","0","",""
"","feedback","","html-keyboard-response","353","456503","0.0-1.0-483.0-0.0","0","0","47507","","null","","","null","53","","","","","","","","","","","","","","","",""
"","time_out","","html-keyboard-response","354","458508","0.0-1.0-485.0-0.0","0","0","47507","","null","","","null","53","","","","","","","","","","","","","","","",""
"","ITI","","html-keyboard-response","355","459516","0.0-1.0-486.0","0","0","47507","","null","","","null","53","","","","","","","","","","","","","","","NaN",""
"","S1","","html-keyboard-response","356","459772","0.0-1.0-488.0","0","0","47507","","null","","","null","54","","","","","","","","","","","","","","","",""
"","ISI","","html-keyboard-response","357","461777","0.0-1.0-489.0","0","0","47507","","null","","","null","54","NaN","","","","","","","","","","","","","","",""
"","S2","","html-keyboard-response","358","462034","0.0-1.0-490.0","0","0","47507","","null","","","null","54","","NaN","","","","","","","","","","","","","",""
"","response","","html-keyboard-response","359","463462","0.0-1.0-491.0","0","0","47507","","1424","","","75","54","","","2","54","training","adjacent","CD","3","4","N.jpg","L.jpg","1","1","1","",""
"","feedback","","html-keyboard-response","360","464471","0.0-1.0-492.0-0.0","0","0","47507","","null","","","null","54","","","","","","","","","","","","","","","",""
"","ITI","","html-keyboard-response","361","465481","0.0-1.0-495.0","0","0","47507","","null","","","null","54","","","","","","","","","","","","","","","NaN",""
"","S1","","html-keyboard-response","362","465740","0.0-1.0-497.0","0","0","47507","","null","","","null","55","","","","","","","","","","","","","","","",""
"","ISI","","html-keyboard-response","363","467745","0.0-1.0-498.0","0","0","47507","","null","","","null","55","NaN","","","","","","","","","","","","","","",""
"","S2","","html-keyboard-response","364","468001","0.0-1.0-499.0","0","0","47507","","null","","","null","55","","NaN","","","","","","","","","","","","","",""
"","response","","html-keyboard-response","365","468435","0.0-1.0-500.0","0","0","47507","","430","","","68","55","","","2","55","training","adjacent","FE","6","5","R.jpg","Q.jpg","0","0","1","",""
"","feedback","","html-keyboard-response","366","469441","0.0-1.0-501.0-0.0","0","0","47507","","null","","","null","55","","","","","","","","","","","","","","","",""
"","ITI","","html-keyboard-response","367","470449","0.0-1.0-504.0","0","0","47507","","null","","","null","55","","","","","","","","","","","","","","","NaN",""
"","S1","","html-keyboard-response","368","470708","0.0-1.0-506.0","0","0","47507","","null","","","null","56","","","","","","","","","","","","","","","",""
"","ISI","","html-keyboard-response","369","472716","0.0-1.0-507.0","0","0","47507","","null","","","null","56","NaN","","","","","","","","","","","","","","",""
"","S2","","html-keyboard-response","370","472973","0.0-1.0-508.0","0","0","47507","","null","","","null","56","","NaN","","","","","","","","","","","","","",""
"","response","","html-keyboard-response","371","473384","0.0-1.0-509.0","0","0","47507","","407","","","68","56","","","2","56","training","adjacent","CD","3","4","N.jpg","L.jpg","0","1","0","",""
"","feedback","","html-keyboard-response","372","474390","0.0-1.0-510.0-0.0","0","0","47507","","null","","","null","56","","","","","","","","","","","","","","","",""
"","time_out","","html-keyboard-response","373","476396","0.0-1.0-512.0-0.0","0","0","47507","","null","","","null","56","","","","","","","","","","","","","","","",""
"","ITI","","html-keyboard-response","374","477404","0.0-1.0-513.0","0","0","47507","","null","","","null","56","","","","","","","","","","","","","","","NaN",""
"","S1","","html-keyboard-response","375","477660","0.0-1.0-515.0","0","0","47507","","null","","","null","57","","","","","","","","","","","","","","","",""
"","ISI","","html-keyboard-response","376","479665","0.0-1.0-516.0","0","0","47507","","null","","","null","57","NaN","","","","","","","","","","","","","","",""
"","S2","","html-keyboard-response","377","479921","0.0-1.0-517.0","0","0","47507","","null","","","null","57","","NaN","","","","","","","","","","","","","",""
"","response","","html-keyboard-response","378","480652","0.0-1.0-518.0","0","0","47507","","727","","","75","57","","","2","57","training","adjacent","EF","5","6","Q.jpg","R.jpg","1","1","1","",""
"","feedback","","html-keyboard-response","379","481662","0.0-1.0-519.0-0.0","0","0","47507","","null","","","null","57","","","","","","","","","","","","","","","",""
"","ITI","","html-keyboard-response","380","482671","0.0-1.0-522.0","0","0","47507","","null","","","null","57","","","","","","","","","","","","","","","NaN",""
"","S1","","html-keyboard-response","381","482929","0.0-1.0-524.0","0","0","47507","","null","","","null","58","","","","","","","","","","","","","","","",""
"","ISI","","html-keyboard-response","382","484934","0.0-1.0-525.0","0","0","47507","","null","","","null","58","NaN","","","","","","","","","","","","","","",""
"","S2","","html-keyboard-response","383","485190","0.0-1.0-526.0","0","0","47507","","null","","","null","58","","NaN","","","","","","","","","","","","","",""
"","response","","html-keyboard-response","384","485514","0.0-1.0-527.0","0","0","47507","","318","","","75","58","","","2","58","training","adjacent","AB","1","2","M.jpg","P.jpg","1","1","1","",""
"","feedback","","html-keyboard-response","385","486523","0.0-1.0-528.0-0.0","0","0","47507","","null","","","null","58","","","","","","","","","","","","","","","",""
"","ITI","","html-keyboard-response","386","487532","0.0-1.0-531.0","0","0","47507","","null","","","null","58","","","","","","","","","","","","","","","NaN",""
"","S1","","html-keyboard-response","387","487788","0.0-1.0-533.0","0","0","47507","","null","","","null","59","","","","","","","","","","","","","","","",""
"","ISI","","html-keyboard-response","388","489793","0.0-1.0-534.0","0","0","47507","","null","","","null","59","NaN","","","","","","","","","","","","","","",""
"","S2","","html-keyboard-response","389","490049","0.0-1.0-535.0","0","0","47507","","null","","","null","59","","NaN","","","","","","","","","","","","","",""
"","response","","html-keyboard-response","390","491722","0.0-1.0-536.0","0","0","47507","","1668","","","75","59","","","2","59","training","adjacent","EF","5","6","Q.jpg","R.jpg","1","1","1","",""
"","feedback","","html-keyboard-response","391","492731","0.0-1.0-537.0-0.0","0","0","47507","","null","","","null","59","","","","","","","","","","","","","","","",""
"","ITI","","html-keyboard-response","392","493739","0.0-1.0-540.0","0","0","47507","","null","","","null","59","","","","","","","","","","","","","","","NaN",""
"","S1","","html-keyboard-response","393","493995","0.0-1.0-542.0","0","0","47507","","null","","","null","60","","","","","","","","","","","","","","","",""
"","ISI","","html-keyboard-response","394","496001","0.0-1.0-543.0","0","0","47507","","null","","","null","60","NaN","","","","","","","","","","","","","","",""
"","S2","","html-keyboard-response","395","496260","0.0-1.0-544.0","0","0","47507","","null","","","null","60","","NaN","","","","","","","","","","","","","",""
"","response","","html-keyboard-response","396","496672","0.0-1.0-545.0","0","0","47507","","407","","","68","60","","","2","60","training","adjacent","BC","2","3","P.jpg","N.jpg","0","1","0","",""
"","feedback","","html-keyboard-response","397","497681","0.0-1.0-546.0-0.0","0","0","47507","","null","","","null","60","","","","","","","","","","","","","","","",""
"","time_out","","html-keyboard-response","398","499686","0.0-1.0-548.0-0.0","0","0","47507","","null","","","null","60","","","","","","","","","","","","","","","",""
"","ITI","","html-keyboard-response","399","500694","0.0-1.0-549.0","0","0","47507","","null","","","null","60","","","","","","","","","","","","","","","NaN",""
"","S1","","html-keyboard-response","400","500950","0.0-1.0-551.0","0","0","47507","","null","","","null","61","","","","","","","","","","","","","","","",""
"","ISI","","html-keyboard-response","401","502955","0.0-1.0-552.0","0","0","47507","","null","","","null","61","NaN","","","","","","","","","","","","","","",""
"","S2","","html-keyboard-response","402","503211","0.0-1.0-553.0","0","0","47507","","null","","","null","61","","NaN","","","","","","","","","","","","","",""
"","response","","html-keyboard-response","403","504795","0.0-1.0-554.0","0","0","47507","","1580","","","68","61","","","2","61","training","adjacent","CB","3","2","N.jpg","P.jpg","0","0","1","",""
"","feedback","","html-keyboard-response","404","505803","0.0-1.0-555.0-0.0","0","0","47507","","null","","","null","61","","","","","","","","","","","","","","","",""
"","ITI","","html-keyboard-response","405","506811","0.0-1.0-558.0","0","0","47507","","null","","","null","61","","","","","","","","","","","","","","","NaN",""
"","S1","","html-keyboard-response","406","507067","0.0-1.0-560.0","0","0","47507","","null","","","null","62","","","","","","","","","","","","","","","",""
"","ISI","","html-keyboard-response","407","509072","0.0-1.0-561.0","0","0","47507","","null","","","null","62","NaN","","","","","","","","","","","","","","",""
"","S2","","html-keyboard-response","408","509328","0.0-1.0-562.0","0","0","47507","","null","","","null","62","","NaN","","","","","","","","","","","","","",""
"","response","","html-keyboard-response","409","511117","0.0-1.0-563.0","0","0","47507","","1783","","","68","62","","","2","62","training","adjacent","DC","4","3","L.jpg","N.jpg","0","0","1","",""
"","feedback","","html-keyboard-response","410","512123","0.0-1.0-564.0-0.0","0","0","47507","","null","","","null","62","","","","","","","","","","","","","","","",""
"","ITI","","html-keyboard-response","411","513131","0.0-1.0-567.0","0","0","47507","","null","","","null","62","","","","","","","","","","","","","","","NaN",""
"","S1","","html-keyboard-response","412","513387","0.0-1.0-569.0","0","0","47507","","null","","","null","63","","","","","","","","","","","","","","","",""
"","ISI","","html-keyboard-response","413","515395","0.0-1.0-570.0","0","0","47507","","null","","","null","63","NaN","","","","","","","","","","","","","","",""
"","S2","","html-keyboard-response","414","515655","0.0-1.0-571.0","0","0","47507","","null","","","null","63","","NaN","","","","","","","","","","","","","",""
"","response","","html-keyboard-response","415","516428","0.0-1.0-572.0","0","0","47507","","768","","","75","63","","","2","63","training","adjacent","GF","7","6","O.jpg","R.jpg","1","0","0","",""
"","feedback","","html-keyboard-response","416","517435","0.0-1.0-573.0-0.0","0","0","47507","","null","","","null","63","","","","","","","","","","","","","","","",""
"","time_out","","html-keyboard-response","417","519440","0.0-1.0-575.0-0.0","0","0","47507","","null","","","null","63","","","","","","","","","","","","","","","",""
"","ITI","","html-keyboard-response","418","520448","0.0-1.0-576.0","0","0","47507","","null","","","null","63","","","","","","","","","","","","","","","NaN",""
"","S1","","html-keyboard-response","419","520704","0.0-1.0-578.0","0","0","47507","","null","","","null","64","","","","","","","","","","","","","","","",""
"","ISI","","html-keyboard-response","420","522709","0.0-1.0-579.0","0","0","47507","","null","","","null","64","NaN","","","","","","","","","","","","","","",""
"","S2","","html-keyboard-response","421","522965","0.0-1.0-580.0","0","0","47507","","null","","","null","64","","NaN","","","","","","","","","","","","","",""
"","response","","html-keyboard-response","422","524144","0.0-1.0-581.0","0","0","47507","","1175","","","68","64","","","2","64","training","adjacent","FE","6","5","R.jpg","Q.jpg","0","0","1","",""
"","feedback","","html-keyboard-response","423","525152","0.0-1.0-582.0-0.0","0","0","47507","","null","","","null","64","","","","","","","","","","","","","","","",""
"","ITI","","html-keyboard-response","424","526160","0.0-1.0-585.0","0","0","47507","","null","","","null","64","","","","","","","","","","","","","","","NaN",""
"","S1","","html-keyboard-response","425","526416","0.0-1.0-587.0","0","0","47507","","null","","","null","65","","","","","","","","","","","","","","","",""
"","ISI","","html-keyboard-response","426","528424","0.0-1.0-588.0","0","0","47507","","null","","","null","65","NaN","","","","","","","","","","","","","","",""
"","S2","","html-keyboard-response","427","528682","0.0-1.0-589.0","0","0","47507","","null","","","null","65","","NaN","","","","","","","","","","","","","",""
"","response","","html-keyboard-response","428","529027","0.0-1.0-590.0","0","0","47507","","341","","","75","65","","","2","65","training","adjacent","AB","1","2","M.jpg","P.jpg","1","1","1","",""
"","feedback","","html-keyboard-response","429","530037","0.0-1.0-591.0-0.0","0","0","47507","","null","","","null","65","","","","","","","","","","","","","","","",""
"","ITI","","html-keyboard-response","430","531045","0.0-1.0-594.0","0","0","47507","","null","","","null","65","","","","","","","","","","","","","","","NaN",""
"","S1","","html-keyboard-response","431","531301","0.0-1.0-596.0","0","0","47507","","null","","","null","66","","","","","","","","","","","","","","","",""
"","ISI","","html-keyboard-response","432","533306","0.0-1.0-597.0","0","0","47507","","null","","","null","66","NaN","","","","","","","","","","","","","","",""
"","S2","","html-keyboard-response","433","533563","0.0-1.0-598.0","0","0","47507","","null","","","null","66","","NaN","","","","","","","","","","","","","",""
"","response","","html-keyboard-response","434","534919","0.0-1.0-599.0","0","0","47507","","1353","","","68","66","","","2","66","training","adjacent","BC","2","3","P.jpg","N.jpg","0","1","0","",""
"","feedback","","html-keyboard-response","435","535925","0.0-1.0-600.0-0.0","0","0","47507","","null","","","null","66","","","","","","","","","","","","","","","",""
"","time_out","","html-keyboard-response","436","537930","0.0-1.0-602.0-0.0","0","0","47507","","null","","","null","66","","","","","","","","","","","","","","","",""
"","ITI","","html-keyboard-response","437","538938","0.0-1.0-603.0","0","0","47507","","null","","","null","66","","","","","","","","","","","","","","","NaN",""
"","S1","","html-keyboard-response","438","539194","0.0-1.0-605.0","0","0","47507","","null","","","null","67","","","","","","","","","","","","","","","",""
"","ISI","","html-keyboard-response","439","541199","0.0-1.0-606.0","0","0","47507","","null","","","null","67","NaN","","","","","","","","","","","","","","",""
"","S2","","html-keyboard-response","440","541455","0.0-1.0-607.0","0","0","47507","","null","","","null","67","","NaN","","","","","","","","","","","","","",""
"","response","","html-keyboard-response","441","542099","0.0-1.0-608.0","0","0","47507","","640","","","75","67","","","2","67","training","adjacent","DE","4","5","L.jpg","Q.jpg","1","1","1","",""
"","feedback","","html-keyboard-response","442","543104","0.0-1.0-609.0-0.0","0","0","47507","","null","","","null","67","","","","","","","","","","","","","","","",""
"","ITI","","html-keyboard-response","443","544112","0.0-1.0-612.0","0","0","47507","","null","","","null","67","","","","","","","","","","","","","","","NaN",""
"","S1","","html-keyboard-response","444","544368","0.0-1.0-614.0","0","0","47507","","null","","","null","68","","","","","","","","","","","","","","","",""
"","ISI","","html-keyboard-response","445","546373","0.0-1.0-615.0","0","0","47507","","null","","","null","68","NaN","","","","","","","","","","","","","","",""
"","S2","","html-keyboard-response","446","546629","0.0-1.0-616.0","0","0","47507","","null","","","null","68","","NaN","","","","","","","","","","","","","",""
"","response","","html-keyboard-response","447","547274","0.0-1.0-617.0","0","0","47507","","642","","","75","68","","","2","68","training","adjacent","DC","4","3","L.jpg","N.jpg","1","0","0","",""
"","feedback","","html-keyboard-response","448","548281","0.0-1.0-618.0-0.0","0","0","47507","","null","","","null","68","","","","","","","","","","","","","","","",""
"","time_out","","html-keyboard-response","449","550287","0.0-1.0-620.0-0.0","0","0","47507","","null","","","null","68","","","","","","","","","","","","","","","",""
"","ITI","","html-keyboard-response","450","551295","0.0-1.0-621.0","0","0","47507","","null","","","null","68","","","","","","","","","","","","","","","NaN",""
"","S1","","html-keyboard-response","451","551551","0.0-1.0-623.0","0","0","47507","","null","","","null","69","","","","","","","","","","","","","","","",""
"","ISI","","html-keyboard-response","452","553556","0.0-1.0-624.0","0","0","47507","","null","","","null","69","NaN","","","","","","","","","","","","","","",""
"","S2","","html-keyboard-response","453","553812","0.0-1.0-625.0","0","0","47507","","null","","","null","69","","NaN","","","","","","","","","","","","","",""
"","response","","html-keyboard-response","454","554544","0.0-1.0-626.0","0","0","47507","","727","","","68","69","","","2","69","training","adjacent","FG","6","7","R.jpg","O.jpg","0","1","0","",""
"","feedback","","html-keyboard-response","455","555554","0.0-1.0-627.0-0.0","0","0","47507","","null","","","null","69","","","","","","","","","","","","","","","",""
"","time_out","","html-keyboard-response","456","557562","0.0-1.0-629.0-0.0","0","0","47507","","null","","","null","69","","","","","","","","","","","","","","","",""
"","ITI","","html-keyboard-response","457","558570","0.0-1.0-630.0","0","0","47507","","null","","","null","69","","","","","","","","","","","","","","","NaN",""
"","S1","","html-keyboard-response","458","558828","0.0-1.0-632.0","0","0","47507","","null","","","null","70","","","","","","","","","","","","","","","",""
"","ISI","","html-keyboard-response","459","560836","0.0-1.0-633.0","0","0","47507","","null","","","null","70","NaN","","","","","","","","","","","","","","",""
"","S2","","html-keyboard-response","460","561092","0.0-1.0-634.0","0","0","47507","","null","","","null","70","","NaN","","","","","","","","","","","","","",""
"","response","","html-keyboard-response","461","561853","0.0-1.0-635.0","0","0","47507","","756","","","75","70","","","2","70","training","adjacent","ED","5","4","Q.jpg","L.jpg","1","0","0","",""
"","feedback","","html-keyboard-response","462","562860","0.0-1.0-636.0-0.0","0","0","47507","","null","","","null","70","","","","","","","","","","","","","","","",""
"","time_out","","html-keyboard-response","463","564865","0.0-1.0-638.0-0.0","0","0","47507","","null","","","null","70","","","","","","","","","","","","","","","",""
"","ITI","","html-keyboard-response","464","565874","0.0-1.0-639.0","0","0","47507","","null","","","null","70","","","","","","","","","","","","","","","NaN",""
"","S1","","html-keyboard-response","465","566132","0.0-1.0-641.0","0","0","47507","","null","","","null","71","","","","","","","","","","","","","","","",""
"","ISI","","html-keyboard-response","466","568137","0.0-1.0-642.0","0","0","47507","","null","","","null","71","NaN","","","","","","","","","","","","","","",""
"","S2","","html-keyboard-response","467","568394","0.0-1.0-643.0","0","0","47507","","null","","","null","71","","NaN","","","","","","","","","","","","","",""
"","response","","html-keyboard-response","468","568852","0.0-1.0-644.0","0","0","47507","","454","","","68","71","","","2","71","training","adjacent","ED","5","4","Q.jpg","L.jpg","0","0","1","",""
"","feedback","","html-keyboard-response","469","569860","0.0-1.0-645.0-0.0","0","0","47507","","null","","","null","71","","","","","","","","","","","","","","","",""
"","ITI","","html-keyboard-response","470","570868","0.0-1.0-648.0","0","0","47507","","null","","","null","71","","","","","","","","","","","","","","","NaN",""
"","S1","","html-keyboard-response","471","571124","0.0-1.0-650.0","0","0","47507","","null","","","null","72","","","","","","","","","","","","","","","",""
"","ISI","","html-keyboard-response","472","573129","0.0-1.0-651.0","0","0","47507","","null","","","null","72","NaN","","","","","","","","","","","","","","",""
"","S2","","html-keyboard-response","473","573385","0.0-1.0-652.0","0","0","47507","","null","","","null","72","","NaN","","","","","","","","","","","","","",""
"","response","","html-keyboard-response","474","573823","0.0-1.0-653.0","0","0","47507","","432","","","75","72","","","2","72","training","adjacent","DE","4","5","L.jpg","Q.jpg","1","1","1","",""
"","feedback","","html-keyboard-response","475","574831","0.0-1.0-654.0-0.0","0","0","47507","","null","","","null","72","","","","","","","","","","","","","","","",""
"","ITI","","html-keyboard-response","476","575838","0.0-1.0-657.0","0","0","47507","","null","","","null","72","","","","","","","","","","","","","","","NaN",""
"","S1","","html-keyboard-response","477","576095","0.0-1.0-659.0","0","0","47507","","null","","","null","73","","","","","","","","","","","","","","","",""
"","ISI","","html-keyboard-response","478","578100","0.0-1.0-660.0","0","0","47507","","null","","","null","73","NaN","","","","","","","","","","","","","","",""
"","S2","","html-keyboard-response","479","578360","0.0-1.0-661.0","0","0","47507","","null","","","null","73","","NaN","","","","","","","","","","","","","",""
"","response","","html-keyboard-response","480","579337","0.0-1.0-662.0","0","0","47507","","973","","","75","73","","","2","73","training","adjacent","GF","7","6","O.jpg","R.jpg","1","0","0","",""
"","feedback","","html-keyboard-response","481","580345","0.0-1.0-663.0-0.0","0","0","47507","","null","","","null","73","","","","","","","","","","","","","","","",""
"","time_out","","html-keyboard-response","482","582350","0.0-1.0-665.0-0.0","0","0","47507","","null","","","null","73","","","","","","","","","","","","","","","",""
"","ITI","","html-keyboard-response","483","583358","0.0-1.0-666.0","0","0","47507","","null","","","null","73","","","","","","","","","","","","","","","NaN",""
"","S1","","html-keyboard-response","484","583614","0.0-1.0-668.0","0","0","47507","","null","","","null","74","","","","","","","","","","","","","","","",""
"","ISI","","html-keyboard-response","485","585620","0.0-1.0-669.0","0","0","47507","","null","","","null","74","NaN","","","","","","","","","","","","","","",""
"","S2","","html-keyboard-response","486","585876","0.0-1.0-670.0","0","0","47507","","null","","","null","74","","NaN","","","","","","","","","","","","","",""
"","response","","html-keyboard-response","487","586920","0.0-1.0-671.0","0","0","47507","","1039","","","75","74","","","2","74","training","adjacent","AB","1","2","M.jpg","P.jpg","1","1","1","",""
"","feedback","","html-keyboard-response","488","587929","0.0-1.0-672.0-0.0","0","0","47507","","null","","","null","74","","","","","","","","","","","","","","","",""
"","ITI","","html-keyboard-response","489","588937","0.0-1.0-675.0","0","0","47507","","null","","","null","74","","","","","","","","","","","","","","","NaN",""
"","S1","","html-keyboard-response","490","589193","0.0-1.0-677.0","0","0","47507","","null","","","null","75","","","","","","","","","","","","","","","",""
"","ISI","","html-keyboard-response","491","591198","0.0-1.0-678.0","0","0","47507","","null","","","null","75","NaN","","","","","","","","","","","","","","",""
"","S2","","html-keyboard-response","492","591454","0.0-1.0-679.0","0","0","47507","","null","","","null","75","","NaN","","","","","","","","","","","","","",""
"","response","","html-keyboard-response","493","592072","0.0-1.0-680.0","0","0","47507","","613","","","75","75","","","2","75","training","adjacent","CB","3","2","N.jpg","P.jpg","1","0","0","",""
"","feedback","","html-keyboard-response","494","593081","0.0-1.0-681.0-0.0","0","0","47507","","null","","","null","75","","","","","","","","","","","","","","","",""
"","time_out","","html-keyboard-response","495","595086","0.0-1.0-683.0-0.0","0","0","47507","","null","","","null","75","","","","","","","","","","","","","","","",""
"","ITI","","html-keyboard-response","496","596095","0.0-1.0-684.0","0","0","47507","","null","","","null","75","","","","","","","","","","","","","","","NaN",""
"","S1","","html-keyboard-response","497","596350","0.0-1.0-686.0","0","0","47507","","null","","","null","76","","","","","","","","","","","","","","","",""
"","ISI","","html-keyboard-response","498","598355","0.0-1.0-687.0","0","0","47507","","null","","","null","76","NaN","","","","","","","","","","","","","","",""
"","S2","","html-keyboard-response","499","598611","0.0-1.0-688.0","0","0","47507","","null","","","null","76","","NaN","","","","","","","","","","","","","",""
"","response","","html-keyboard-response","500","599092","0.0-1.0-689.0","0","0","47507","","477","","","68","76","","","2","76","training","adjacent","DE","4","5","L.jpg","Q.jpg","0","1","0","",""
"","feedback","","html-keyboard-response","501","600100","0.0-1.0-690.0-0.0","0","0","47507","","null","","","null","76","","","","","","","","","","","","","","","",""
"","time_out","","html-keyboard-response","502","602105","0.0-1.0-692.0-0.0","0","0","47507","","null","","","null","76","","","","","","","","","","","","","","","",""
"","ITI","","html-keyboard-response","503","603113","0.0-1.0-693.0","0","0","47507","","null","","","null","76","","","","","","","","","","","","","","","NaN",""
"","S1","","html-keyboard-response","504","603369","0.0-1.0-695.0","0","0","47507","","null","","","null","77","","","","","","","","","","","","","","","",""
"","ISI","","html-keyboard-response","505","605374","0.0-1.0-696.0","0","0","47507","","null","","","null","77","NaN","","","","","","","","","","","","","","",""
"","S2","","html-keyboard-response","506","605630","0.0-1.0-697.0","0","0","47507","","null","","","null","77","","NaN","","","","","","","","","","","","","",""
"","response","","html-keyboard-response","507","605955","0.0-1.0-698.0","0","0","47507","","321","","","68","77","","","2","77","training","adjacent","FG","6","7","R.jpg","O.jpg","0","1","0","",""
"","feedback","","html-keyboard-response","508","606965","0.0-1.0-699.0-0.0","0","0","47507","","null","","","null","77","","","","","","","","","","","","","","","",""
"","time_out","","html-keyboard-response","509","608974","0.0-1.0-701.0-0.0","0","0","47507","","null","","","null","77","","","","","","","","","","","","","","","",""
"","ITI","","html-keyboard-response","510","609982","0.0-1.0-702.0","0","0","47507","","null","","","null","77","","","","","","","","","","","","","","","NaN",""
"","S1","","html-keyboard-response","511","610238","0.0-1.0-704.0","0","0","47507","","null","","","null","78","","","","","","","","","","","","","","","",""
"","ISI","","html-keyboard-response","512","612243","0.0-1.0-705.0","0","0","47507","","null","","","null","78","NaN","","","","","","","","","","","","","","",""
"","S2","","html-keyboard-response","513","612499","0.0-1.0-706.0","0","0","47507","","null","","","null","78","","NaN","","","","","","","","","","","","","",""
"","response","","html-keyboard-response","514","613086","0.0-1.0-707.0","0","0","47507","","583","","","75","78","","","2","78","training","adjacent","EF","5","6","Q.jpg","R.jpg","1","1","1","",""
"","feedback","","html-keyboard-response","515","614093","0.0-1.0-708.0-0.0","0","0","47507","","null","","","null","78","","","","","","","","","","","","","","","",""
"","ITI","","html-keyboard-response","516","615102","0.0-1.0-711.0","0","0","47507","","null","","","null","78","","","","","","","","","","","","","","","NaN",""
"","S1","","html-keyboard-response","517","615358","0.0-1.0-713.0","0","0","47507","","null","","","null","79","","","","","","","","","","","","","","","",""
"","ISI","","html-keyboard-response","518","617363","0.0-1.0-714.0","0","0","47507","","null","","","null","79","NaN","","","","","","","","","","","","","","",""
"","S2","","html-keyboard-response","519","617619","0.0-1.0-715.0","0","0","47507","","null","","","null","79","","NaN","","","","","","","","","","","","","",""
"","response","","html-keyboard-response","520","618621","0.0-1.0-716.0","0","0","47507","","998","","","68","79","","","2","79","training","adjacent","DC","4","3","L.jpg","N.jpg","0","0","1","",""
"","feedback","","html-keyboard-response","521","619627","0.0-1.0-717.0-0.0","0","0","47507","","null","","","null","79","","","","","","","","","","","","","","","",""
"","ITI","","html-keyboard-response","522","620634","0.0-1.0-720.0","0","0","47507","","null","","","null","79","","","","","","","","","","","","","","","NaN",""
"","S1","","html-keyboard-response","523","620894","0.0-1.0-722.0","0","0","47507","","null","","","null","80","","","","","","","","","","","","","","","",""
"","ISI","","html-keyboard-response","524","622899","0.0-1.0-723.0","0","0","47507","","null","","","null","80","NaN","","","","","","","","","","","","","","",""
"","S2","","html-keyboard-response","525","623159","0.0-1.0-724.0","0","0","47507","","null","","","null","80","","NaN","","","","","","","","","","","","","",""
"","response","","html-keyboard-response","526","623662","0.0-1.0-725.0","0","0","47507","","499","","","75","80","","","2","80","training","adjacent","EF","5","6","Q.jpg","R.jpg","1","1","1","",""
"","feedback","","html-keyboard-response","527","624670","0.0-1.0-726.0-0.0","0","0","47507","","null","","","null","80","","","","","","","","","","","","","","","",""
"","ITI","","html-keyboard-response","528","625677","0.0-1.0-729.0","0","0","47507","","null","","","null","80","","","","","","","","","","","","","","","NaN",""
"","S1","","html-keyboard-response","529","625933","0.0-1.0-731.0","0","0","47507","","null","","","null","81","","","","","","","","","","","","","","","",""
"","ISI","","html-keyboard-response","530","627939","0.0-1.0-732.0","0","0","47507","","null","","","null","81","NaN","","","","","","","","","","","","","","",""
"","S2","","html-keyboard-response","531","628195","0.0-1.0-733.0","0","0","47507","","null","","","null","81","","NaN","","","","","","","","","","","","","",""
"","response","","html-keyboard-response","532","629444","0.0-1.0-734.0","0","0","47507","","1245","","","75","81","","","2","81","training","adjacent","CB","3","2","N.jpg","P.jpg","1","0","0","",""
"","feedback","","html-keyboard-response","533","630451","0.0-1.0-735.0-0.0","0","0","47507","","null","","","null","81","","","","","","","","","","","","","","","",""
"","time_out","","html-keyboard-response","534","632456","0.0-1.0-737.0-0.0","0","0","47507","","null","","","null","81","","","","","","","","","","","","","","","",""
"","ITI","","html-keyboard-response","535","633464","0.0-1.0-738.0","0","0","47507","","null","","","null","81","","","","","","","","","","","","","","","NaN",""
"","S1","","html-keyboard-response","536","633720","0.0-1.0-740.0","0","0","47507","","null","","","null","82","","","","","","","","","","","","","","","",""
"","ISI","","html-keyboard-response","537","635725","0.0-1.0-741.0","0","0","47507","","null","","","null","82","NaN","","","","","","","","","","","","","","",""
"","S2","","html-keyboard-response","538","635981","0.0-1.0-742.0","0","0","47507","","null","","","null","82","","NaN","","","","","","","","","","","","","",""
"","response","","html-keyboard-response","539","636442","0.0-1.0-743.0","0","0","47507","","456","","","68","82","","","2","82","training","adjacent","BC","2","3","P.jpg","N.jpg","0","1","0","",""
"","feedback","","html-keyboard-response","540","637448","0.0-1.0-744.0-0.0","0","0","47507","","null","","","null","82","","","","","","","","","","","","","","","",""
"","time_out","","html-keyboard-response","541","639453","0.0-1.0-746.0-0.0","0","0","47507","","null","","","null","82","","","","","","","","","","","","","","","",""
"","ITI","","html-keyboard-response","542","640461","0.0-1.0-747.0","0","0","47507","","null","","","null","82","","","","","","","","","","","","","","","NaN",""
"","S1","","html-keyboard-response","543","640717","0.0-1.0-749.0","0","0","47507","","null","","","null","83","","","","","","","","","","","","","","","",""
"","ISI","","html-keyboard-response","544","642722","0.0-1.0-750.0","0","0","47507","","null","","","null","83","NaN","","","","","","","","","","","","","","",""
"","S2","","html-keyboard-response","545","642980","0.0-1.0-751.0","0","0","47507","","null","","","null","83","","NaN","","","","","","","","","","","","","",""
"","response","","html-keyboard-response","546","643552","0.0-1.0-752.0","0","0","47507","","568","","","75","83","","","2","83","training","adjacent","BA","2","1","P.jpg","M.jpg","1","0","0","",""
"","feedback","","html-keyboard-response","547","644562","0.0-1.0-753.0-0.0","0","0","47507","","null","","","null","83","","","","","","","","","","","","","","","",""
"","time_out","","html-keyboard-response","548","646568","0.0-1.0-755.0-0.0","0","0","47507","","null","","","null","83","","","","","","","","","","","","","","","",""
"","ITI","","html-keyboard-response","549","647575","0.0-1.0-756.0","0","0","47507","","null","","","null","83","","","","","","","","","","","","","","","NaN",""
"","S1","","html-keyboard-response","550","647832","0.0-1.0-758.0","0","0","47507","","null","","","null","84","","","","","","","","","","","","","","","",""
"","ISI","","html-keyboard-response","551","649837","0.0-1.0-759.0","0","0","47507","","null","","","null","84","NaN","","","","","","","","","","","","","","",""
"","S2","","html-keyboard-response","552","650093","0.0-1.0-760.0","0","0","47507","","null","","","null","84","","NaN","","","","","","","","","","","","","",""
"","response","","html-keyboard-response","553","650436","0.0-1.0-761.0","0","0","47507","","339","","","68","84","","","2","84","training","adjacent","BC","2","3","P.jpg","N.jpg","0","1","0","",""
"","feedback","","html-keyboard-response","554","651442","0.0-1.0-762.0-0.0","0","0","47507","","null","","","null","84","","","","","","","","","","","","","","","",""
"","time_out","","html-keyboard-response","555","653447","0.0-1.0-764.0-0.0","0","0","47507","","null","","","null","84","","","","","","","","","","","","","","","",""
"","ITI","","html-keyboard-response","556","654456","0.0-1.0-765.0","0","0","47507","","null","","","null","84","","","","","","","","","","","","","","","NaN",""
"","S1","","html-keyboard-response","557","654712","0.0-1.0-767.0","0","0","47507","","null","","","null","85","","","","","","","","","","","","","","","",""
"","ISI","","html-keyboard-response","558","656717","0.0-1.0-768.0","0","0","47507","","null","","","null","85","NaN","","","","","","","","","","","","","","",""
"","S2","","html-keyboard-response","559","656972","0.0-1.0-769.0","0","0","47507","","null","","","null","85","","NaN","","","","","","","","","","","","","",""
"","response","","html-keyboard-response","560","657703","0.0-1.0-770.0","0","0","47507","","727","","","75","85","","","2","85","training","adjacent","DE","4","5","L.jpg","Q.jpg","1","1","1","",""
"","feedback","","html-keyboard-response","561","658711","0.0-1.0-771.0-0.0","0","0","47507","","null","","","null","85","","","","","","","","","","","","","","","",""
"","ITI","","html-keyboard-response","562","659719","0.0-1.0-774.0","0","0","47507","","null","","","null","85","","","","","","","","","","","","","","","NaN",""
"","S1","","html-keyboard-response","563","659975","0.0-1.0-776.0","0","0","47507","","null","","","null","86","","","","","","","","","","","","","","","",""
"","ISI","","html-keyboard-response","564","661981","0.0-1.0-777.0","0","0","47507","","null","","","null","86","NaN","","","","","","","","","","","","","","",""
"","S2","","html-keyboard-response","565","662237","0.0-1.0-778.0","0","0","47507","","null","","","null","86","","NaN","","","","","","","","","","","","","",""
"","response","","html-keyboard-response","566","662903","0.0-1.0-779.0","0","0","47507","","661","","","68","86","","","2","86","training","adjacent","FG","6","7","R.jpg","O.jpg","0","1","0","",""
"","feedback","","html-keyboard-response","567","663911","0.0-1.0-780.0-0.0","0","0","47507","","null","","","null","86","","","","","","","","","","","","","","","",""
"","time_out","","html-keyboard-response","568","665918","0.0-1.0-782.0-0.0","0","0","47507","","null","","","null","86","","","","","","","","","","","","","","","",""
"","ITI","","html-keyboard-response","569","666925","0.0-1.0-783.0","0","0","47507","","null","","","null","86","","","","","","","","","","","","","","","NaN",""
"","S1","","html-keyboard-response","570","667184","0.0-1.0-785.0","0","0","47507","","null","","","null","87","","","","","","","","","","","","","","","",""
"","ISI","","html-keyboard-response","571","669191","0.0-1.0-786.0","0","0","47507","","null","","","null","87","NaN","","","","","","","","","","","","","","",""
"","S2","","html-keyboard-response","572","669447","0.0-1.0-787.0","0","0","47507","","null","","","null","87","","NaN","","","","","","","","","","","","","",""
"","response","","html-keyboard-response","573","669786","0.0-1.0-788.0","0","0","47507","","334","","","75","87","","","2","87","training","adjacent","GF","7","6","O.jpg","R.jpg","1","0","0","",""
"","feedback","","html-keyboard-response","574","670791","0.0-1.0-789.0-0.0","0","0","47507","","null","","","null","87","","","","","","","","","","","","","","","",""
"","time_out","","html-keyboard-response","575","672801","0.0-1.0-791.0-0.0","0","0","47507","","null","","","null","87","","","","","","","","","","","","","","","",""
"","ITI","","html-keyboard-response","576","673810","0.0-1.0-792.0","0","0","47507","","null","","","null","87","","","","","","","","","","","","","","","NaN",""
"","S1","","html-keyboard-response","577","674068","0.0-1.0-794.0","0","0","47507","","null","","","null","88","","","","","","","","","","","","","","","",""
"","ISI","","html-keyboard-response","578","676076","0.0-1.0-795.0","0","0","47507","","null","","","null","88","NaN","","","","","","","","","","","","","","",""
"","S2","","html-keyboard-response","579","676332","0.0-1.0-796.0","0","0","47507","","null","","","null","88","","NaN","","","","","","","","","","","","","",""
"","response","","html-keyboard-response","580","676470","0.0-1.0-797.0","0","0","47507","","133","","","68","88","","","2","88","training","adjacent","ED","5","4","Q.jpg","L.jpg","0","0","1","",""
"","feedback","","html-keyboard-response","581","677480","0.0-1.0-798.0-0.0","0","0","47507","","null","","","null","88","","","","","","","","","","","","","","","",""
"","ITI","","html-keyboard-response","582","678487","0.0-1.0-801.0","0","0","47507","","null","","","null","88","","","","","","","","","","","","","","","NaN",""
"","S1","","html-keyboard-response","583","678743","0.0-1.0-803.0","0","0","47507","","null","","","null","89","","","","","","","","","","","","","","","",""
"","ISI","","html-keyboard-response","584","680748","0.0-1.0-804.0","0","0","47507","","null","","","null","89","NaN","","","","","","","","","","","","","","",""
