"success","ttype","start_time","trial_type","trial_index","time_elapsed","internal_node_id","warning","missed_checkup","PID","view_history","rt","responses","repeat_instructions","key_press","index","keypress_isi","keypress_S2","block","trial_num","phase","group_type","pair_type","S1_stim","S2_stim","S1_img","S2_img","S1_chosen","S1_higher","accuracy","keypress_iti","total_bonus_tally"
"true","full_screen","d08012022hr1341","fullscreen","0","78157","0.0-0.0","0","0","86488","","","","","","","","","","","","","","","","","","","","","",""
"","instructions","","instructions","1","217203","0.0-1.0-0.0-0.0","0","0","86488","[{""page_index"":0,""viewing_time"":10450},{""page_index"":1,""viewing_time"":33796},{""page_index"":2,""viewing_time"":91994},{""page_index"":3,""viewing_time"":2790}]","139034","","","","","","","","","","","","","","","","","","","",""
"","comprehension_check","","survey-multi-choice","2","244419","0.0-1.0-0.0-1.0","0","0","86488","","27176","{""Q0"":""True"",""Q1"":""D"",""Q2"":""When you see the prompt 'MAKE A CHOICE' after the second image was presented"",""Q3"":""Green mark"",""Q4"":""either D or K""}","0","","","","","","","","","","","","","","","","","",""
"","start_exp","","html-keyboard-response","3","247182","0.0-1.0-1.0","0","0","86488","","2746","","","32","","","","","","","","","","","","","","","","",""
"","S1","","html-keyboard-response","4","247445","0.0-1.0-2.0","0","0","86488","","null","","","null","0","","","","","","","","","","","","","","","",""
"","ISI","","html-keyboard-response","5","249455","0.0-1.0-3.0","0","0","86488","","null","","","null","0","NaN","","","","","","","","","","","","","","",""
"","S2","","html-keyboard-response","6","249721","0.0-1.0-4.0","0","0","86488","","null","","","null","0","","NaN","","","","","","","","","","","","","",""
"","response","","html-keyboard-response","7","250981","0.0-1.0-5.0","0","0","86488","","1248","","","75","0","","","1","0","training","adjacent","CB","3","2","Q.jpg","R.jpg","0","0","1","",""
"","feedback","","html-keyboard-response","8","251995","0.0-1.0-6.0-0.0","0","0","86488","","null","","","null","0","","","","","","","","","","","","","","","",""
"","ITI","","html-keyboard-response","9","253007","0.0-1.0-9.0","0","0","86488","","null","","","null","0","","","","","","","","","","","","","","","NaN",""
"","S1","","html-keyboard-response","10","253273","0.0-1.0-11.0","0","0","86488","","null","","","null","1","","","","","","","","","","","","","","","",""
"","ISI","","html-keyboard-response","11","255284","0.0-1.0-12.0","0","0","86488","","null","","","null","1","NaN","","","","","","","","","","","","","","",""
"","S2","","html-keyboard-response","12","255546","0.0-1.0-13.0","0","0","86488","","null","","","null","1","","NaN","","","","","","","","","","","","","",""
"","response","","html-keyboard-response","13","256188","0.0-1.0-14.0","0","0","86488","","630","","","75","1","","","1","1","training","adjacent","ED","5","4","L.jpg","P.jpg","0","0","1","",""
"","feedback","","html-keyboard-response","14","257199","0.0-1.0-15.0-0.0","0","0","86488","","null","","","null","1","","","","","","","","","","","","","","","",""
"","ITI","","html-keyboard-response","15","258211","0.0-1.0-18.0","0","0","86488","","null","","","null","1","","","","","","","","","","","","","","","NaN",""
"","S1","","html-keyboard-response","16","258474","0.0-1.0-20.0","0","0","86488","","null","","","null","2","","","","","","","","","","","","","","","",""
"","ISI","","html-keyboard-response","17","260486","0.0-1.0-21.0","0","0","86488","","null","","","null","2","NaN","","","","","","","","","","","","","","",""
"","S2","","html-keyboard-response","18","260749","0.0-1.0-22.0","0","0","86488","","null","","","null","2","","NaN","","","","","","","","","","","","","",""
"","response","","html-keyboard-response","19","261321","0.0-1.0-23.0","0","0","86488","","560","","","75","2","","","1","2","training","adjacent","CB","3","2","Q.jpg","R.jpg","0","0","1","",""
"","feedback","","html-keyboard-response","20","262333","0.0-1.0-24.0-0.0","0","0","86488","","null","","","null","2","","","","","","","","","","","","","","","",""
"","ITI","","html-keyboard-response","21","263345","0.0-1.0-27.0","0","0","86488","","null","","","null","2","","","","","","","","","","","","","","","NaN",""
"","S1","","html-keyboard-response","22","263605","0.0-1.0-29.0","0","0","86488","","null","","","null","3","","","","","","","","","","","","","","","",""
"","ISI","","html-keyboard-response","23","265617","0.0-1.0-30.0","0","0","86488","","null","","","null","3","NaN","","","","","","","","","","","","","","",""
"","S2","","html-keyboard-response","24","265880","0.0-1.0-31.0","0","0","86488","","null","","","null","3","","NaN","","","","","","","","","","","","","",""
"","response","","html-keyboard-response","25","266424","0.0-1.0-32.0","0","0","86488","","533","","","75","3","","","1","3","training","adjacent","AB","1","2","N.jpg","R.jpg","0","1","0","",""
"","feedback","","html-keyboard-response","26","267435","0.0-1.0-33.0-0.0","0","0","86488","","null","","","null","3","","","","","","","","","","","","","","","",""
"","time_out","","html-keyboard-response","27","269447","0.0-1.0-35.0-0.0","0","0","86488","","null","","","null","3","","","","","","","","","","","","","","","",""
"","ITI","","html-keyboard-response","28","270459","0.0-1.0-36.0","0","0","86488","","null","","","null","3","","","","","","","","","","","","","","","NaN",""
"","S1","","html-keyboard-response","29","270718","0.0-1.0-38.0","0","0","86488","","null","","","null","4","","","","","","","","","","","","","","","",""
"","ISI","","html-keyboard-response","30","272728","0.0-1.0-39.0","0","0","86488","","null","","","null","4","NaN","","","","","","","","","","","","","","",""
"","S2","","html-keyboard-response","31","272991","0.0-1.0-40.0","0","0","86488","","null","","","null","4","","NaN","","","","","","","","","","","","","",""
"","response","","html-keyboard-response","32","273531","0.0-1.0-41.0","0","0","86488","","529","","","75","4","","","1","4","training","adjacent","FE","6","5","O.jpg","L.jpg","0","0","1","",""
"","feedback","","html-keyboard-response","33","274543","0.0-1.0-42.0-0.0","0","0","86488","","null","","","null","4","","","","","","","","","","","","","","","",""
"","ITI","","html-keyboard-response","34","275556","0.0-1.0-45.0","0","0","86488","","null","","","null","4","","","","","","","","","","","","","","","NaN",""
"","S1","","html-keyboard-response","35","275819","0.0-1.0-47.0","0","0","86488","","null","","","null","5","","","","","","","","","","","","","","","",""
"","ISI","","html-keyboard-response","36","277830","0.0-1.0-48.0","0","0","86488","","null","","","null","5","NaN","","","","","","","","","","","","","","",""
"","S2","","html-keyboard-response","37","278092","0.0-1.0-49.0","0","0","86488","","null","","","null","5","","NaN","","","","","","","","","","","","","",""
"","response","","html-keyboard-response","38","278587","0.0-1.0-50.0","0","0","86488","","484","","","75","5","","","1","5","training","adjacent","GF","7","6","M.jpg","O.jpg","0","0","1","",""
"","feedback","","html-keyboard-response","39","279600","0.0-1.0-51.0-0.0","0","0","86488","","null","","","null","5","","","","","","","","","","","","","","","",""
"","ITI","","html-keyboard-response","40","280613","0.0-1.0-54.0","0","0","86488","","null","","","null","5","","","","","","","","","","","","","","","NaN",""
"","S1","","html-keyboard-response","41","280875","0.0-1.0-56.0","0","0","86488","","null","","","null","6","","","","","","","","","","","","","","","",""
"","ISI","","html-keyboard-response","42","282886","0.0-1.0-57.0","0","0","86488","","null","","","null","6","NaN","","","","","","","","","","","","","","",""
"","S2","","html-keyboard-response","43","283149","0.0-1.0-58.0","0","0","86488","","null","","","null","6","","NaN","","","","","","","","","","","","","",""
"","response","","html-keyboard-response","44","283968","0.0-1.0-59.0","0","0","86488","","808","","","68","6","","","1","6","training","adjacent","ED","5","4","L.jpg","P.jpg","1","0","0","",""
"","feedback","","html-keyboard-response","45","284981","0.0-1.0-60.0-0.0","0","0","86488","","null","","","null","6","","","","","","","","","","","","","","","",""
"","time_out","","html-keyboard-response","46","286992","0.0-1.0-62.0-0.0","0","0","86488","","null","","","null","6","","","","","","","","","","","","","","","",""
"","ITI","","html-keyboard-response","47","288005","0.0-1.0-63.0","0","0","86488","","null","","","null","6","","","","","","","","","","","","","","","NaN",""
"","S1","","html-keyboard-response","48","288266","0.0-1.0-65.0","0","0","86488","","null","","","null","7","","","","","","","","","","","","","","","",""
"","ISI","","html-keyboard-response","49","290278","0.0-1.0-66.0","0","0","86488","","null","","","null","7","NaN","","","","","","","","","","","","","","",""
"","S2","","html-keyboard-response","50","290540","0.0-1.0-67.0","0","0","86488","","null","","","null","7","","NaN","","","","","","","","","","","","","",""
"","response","","html-keyboard-response","51","291160","0.0-1.0-68.0","0","0","86488","","608","","","75","7","","","1","7","training","adjacent","ED","5","4","L.jpg","P.jpg","0","0","1","",""
"","feedback","","html-keyboard-response","52","292172","0.0-1.0-69.0-0.0","0","0","86488","","null","","","null","7","","","","","","","","","","","","","","","",""
"","ITI","","html-keyboard-response","53","293183","0.0-1.0-72.0","0","0","86488","","null","","","null","7","","","","","","","","","","","","","","","NaN",""
"","S1","","html-keyboard-response","54","293447","0.0-1.0-74.0","0","0","86488","","null","","","null","8","","","","","","","","","","","","","","","",""
"","ISI","","html-keyboard-response","55","295458","0.0-1.0-75.0","0","0","86488","","null","","","null","8","NaN","","","","","","","","","","","","","","",""
"","S2","","html-keyboard-response","56","295720","0.0-1.0-76.0","0","0","86488","","null","","","null","8","","NaN","","","","","","","","","","","","","",""
"","response","","html-keyboard-response","57","296348","0.0-1.0-77.0","0","0","86488","","616","","","75","8","","","1","8","training","adjacent","FE","6","5","O.jpg","L.jpg","0","0","1","",""
"","feedback","","html-keyboard-response","58","297360","0.0-1.0-78.0-0.0","0","0","86488","","null","","","null","8","","","","","","","","","","","","","","","",""
"","ITI","","html-keyboard-response","59","298372","0.0-1.0-81.0","0","0","86488","","null","","","null","8","","","","","","","","","","","","","","","NaN",""
"","S1","","html-keyboard-response","60","298635","0.0-1.0-83.0","0","0","86488","","null","","","null","9","","","","","","","","","","","","","","","",""
"","ISI","","html-keyboard-response","61","300646","0.0-1.0-84.0","0","0","86488","","null","","","null","9","NaN","","","","","","","","","","","","","","",""
"","S2","","html-keyboard-response","62","300908","0.0-1.0-85.0","0","0","86488","","null","","","null","9","","NaN","","","","","","","","","","","","","",""
"","response","","html-keyboard-response","63","301343","0.0-1.0-86.0","0","0","86488","","424","","","75","9","","","1","9","training","adjacent","DE","4","5","P.jpg","L.jpg","0","1","0","",""
"","feedback","","html-keyboard-response","64","302355","0.0-1.0-87.0-0.0","0","0","86488","","null","","","null","9","","","","","","","","","","","","","","","",""
"","time_out","","html-keyboard-response","65","304368","0.0-1.0-89.0-0.0","0","0","86488","","null","","","null","9","","","","","","","","","","","","","","","",""
"","ITI","","html-keyboard-response","66","305379","0.0-1.0-90.0","0","0","86488","","null","","","null","9","","","","","","","","","","","","","","","NaN",""
"","S1","","html-keyboard-response","67","305641","0.0-1.0-92.0","0","0","86488","","null","","","null","10","","","","","","","","","","","","","","","",""
"","ISI","","html-keyboard-response","68","307653","0.0-1.0-93.0","0","0","86488","","null","","","null","10","NaN","","","","","","","","","","","","","","",""
"","S2","","html-keyboard-response","69","307915","0.0-1.0-94.0","0","0","86488","","null","","","null","10","","NaN","","","","","","","","","","","","","",""
"","response","","html-keyboard-response","70","308393","0.0-1.0-95.0","0","0","86488","","467","","","75","10","","","1","10","training","adjacent","CB","3","2","Q.jpg","R.jpg","0","0","1","",""
"","feedback","","html-keyboard-response","71","309406","0.0-1.0-96.0-0.0","0","0","86488","","null","","","null","10","","","","","","","","","","","","","","","",""
"","ITI","","html-keyboard-response","72","310417","0.0-1.0-99.0","0","0","86488","","null","","","null","10","","","","","","","","","","","","","","","NaN",""
"","S1","","html-keyboard-response","73","310681","0.0-1.0-101.0","0","0","86488","","null","","","null","11","","","","","","","","","","","","","","","",""
"","ISI","","html-keyboard-response","74","312694","0.0-1.0-102.0","0","0","86488","","null","","","null","11","NaN","","","","","","","","","","","","","","",""
"","S2","","html-keyboard-response","75","312957","0.0-1.0-103.0","0","0","86488","","null","","","null","11","","NaN","","","","","","","","","","","","","",""
"","response","","html-keyboard-response","76","313485","0.0-1.0-104.0","0","0","86488","","516","","","68","11","","","1","11","training","adjacent","ED","5","4","L.jpg","P.jpg","1","0","0","",""
"","feedback","","html-keyboard-response","77","314497","0.0-1.0-105.0-0.0","0","0","86488","","null","","","null","11","","","","","","","","","","","","","","","",""
"","time_out","","html-keyboard-response","78","316509","0.0-1.0-107.0-0.0","0","0","86488","","null","","","null","11","","","","","","","","","","","","","","","",""
"","ITI","","html-keyboard-response","79","317521","0.0-1.0-108.0","0","0","86488","","null","","","null","11","","","","","","","","","","","","","","","NaN",""
"","S1","","html-keyboard-response","80","317784","0.0-1.0-110.0","0","0","86488","","null","","","null","12","","","","","","","","","","","","","","","",""
"","ISI","","html-keyboard-response","81","319795","0.0-1.0-111.0","0","0","86488","","null","","","null","12","NaN","","","","","","","","","","","","","","",""
"","S2","","html-keyboard-response","82","320057","0.0-1.0-112.0","0","0","86488","","null","","","null","12","","NaN","","","","","","","","","","","","","",""
"","response","","html-keyboard-response","83","320494","0.0-1.0-113.0","0","0","86488","","427","","","75","12","","","1","12","training","adjacent","DE","4","5","P.jpg","L.jpg","0","1","0","",""
"","feedback","","html-keyboard-response","84","321506","0.0-1.0-114.0-0.0","0","0","86488","","null","","","null","12","","","","","","","","","","","","","","","",""
"","time_out","","html-keyboard-response","85","323517","0.0-1.0-116.0-0.0","0","0","86488","","null","","","null","12","","","","","","","","","","","","","","","",""
"","ITI","","html-keyboard-response","86","324528","0.0-1.0-117.0","0","0","86488","","null","","","null","12","","","","","","","","","","","","","","","NaN",""
"","S1","","html-keyboard-response","87","324790","0.0-1.0-119.0","0","0","86488","","null","","","null","13","","","","","","","","","","","","","","","",""
"","ISI","","html-keyboard-response","88","326801","0.0-1.0-120.0","0","0","86488","","null","","","null","13","NaN","","","","","","","","","","","","","","",""
"","S2","","html-keyboard-response","89","327064","0.0-1.0-121.0","0","0","86488","","null","","","null","13","","NaN","","","","","","","","","","","","","",""
"","response","","html-keyboard-response","90","327446","0.0-1.0-122.0","0","0","86488","","371","","","75","13","","","1","13","training","adjacent","GF","7","6","M.jpg","O.jpg","0","0","1","",""
"","feedback","","html-keyboard-response","91","328458","0.0-1.0-123.0-0.0","0","0","86488","","null","","","null","13","","","","","","","","","","","","","","","",""
"","ITI","","html-keyboard-response","92","329469","0.0-1.0-126.0","0","0","86488","","null","","","null","13","","","","","","","","","","","","","","","NaN",""
"","S1","","html-keyboard-response","93","329731","0.0-1.0-128.0","0","0","86488","","null","","","null","14","","","","","","","","","","","","","","","",""
"","ISI","","html-keyboard-response","94","331742","0.0-1.0-129.0","0","0","86488","","null","","","null","14","NaN","","","","","","","","","","","","","","",""
"","S2","","html-keyboard-response","95","332005","0.0-1.0-130.0","0","0","86488","","null","","","null","14","","NaN","","","","","","","","","","","","","",""
"","response","","html-keyboard-response","96","332753","0.0-1.0-131.0","0","0","86488","","741","","","68","14","","","1","14","training","adjacent","FG","6","7","O.jpg","M.jpg","1","1","1","",""
"","feedback","","html-keyboard-response","97","333763","0.0-1.0-132.0-0.0","0","0","86488","","null","","","null","14","","","","","","","","","","","","","","","",""
"","ITI","","html-keyboard-response","98","334775","0.0-1.0-135.0","0","0","86488","","null","","","null","14","","","","","","","","","","","","","","","NaN",""
"","S1","","html-keyboard-response","99","335041","0.0-1.0-137.0","0","0","86488","","null","","","null","15","","","","","","","","","","","","","","","",""
"","ISI","","html-keyboard-response","100","337055","0.0-1.0-138.0","0","0","86488","","null","","","null","15","NaN","","","","","","","","","","","","","","",""
"","S2","","html-keyboard-response","101","337317","0.0-1.0-139.0","0","0","86488","","null","","","null","15","","NaN","","","","","","","","","","","","","",""
"","response","","html-keyboard-response","102","337754","0.0-1.0-140.0","0","0","86488","","426","","","75","15","","","1","15","training","adjacent","EF","5","6","L.jpg","O.jpg","0","1","0","",""
"","feedback","","html-keyboard-response","103","338766","0.0-1.0-141.0-0.0","0","0","86488","","null","","","null","15","","","","","","","","","","","","","","","",""
"","time_out","","html-keyboard-response","104","340777","0.0-1.0-143.0-0.0","0","0","86488","","null","","","null","15","","","","","","","","","","","","","","","",""
"","ITI","","html-keyboard-response","105","341790","0.0-1.0-144.0","0","0","86488","","null","","","null","15","","","","","","","","","","","","","","","NaN",""
"","S1","","html-keyboard-response","106","342052","0.0-1.0-146.0","0","0","86488","","null","","","null","16","","","","","","","","","","","","","","","",""
"","ISI","","html-keyboard-response","107","344062","0.0-1.0-147.0","0","0","86488","","null","","","null","16","NaN","","","","","","","","","","","","","","",""
"","S2","","html-keyboard-response","108","344323","0.0-1.0-148.0","0","0","86488","","null","","","null","16","","NaN","","","","","","","","","","","","","",""
"","response","","html-keyboard-response","109","344908","0.0-1.0-149.0","0","0","86488","","574","","","68","16","","","1","16","training","adjacent","FG","6","7","O.jpg","M.jpg","1","1","1","",""
"","feedback","","html-keyboard-response","110","345919","0.0-1.0-150.0-0.0","0","0","86488","","null","","","null","16","","","","","","","","","","","","","","","",""
"","ITI","","html-keyboard-response","111","346931","0.0-1.0-153.0","0","0","86488","","null","","","null","16","","","","","","","","","","","","","","","NaN",""
"","S1","","html-keyboard-response","112","347195","0.0-1.0-155.0","0","0","86488","","null","","","null","17","","","","","","","","","","","","","","","",""
"","ISI","","html-keyboard-response","113","349207","0.0-1.0-156.0","0","0","86488","","null","","","null","17","NaN","","","","","","","","","","","","","","",""
"","S2","","html-keyboard-response","114","349470","0.0-1.0-157.0","0","0","86488","","null","","","null","17","","NaN","","","","","","","","","","","","","",""
"","response","","html-keyboard-response","115","350127","0.0-1.0-158.0","0","0","86488","","645","","","68","17","","","1","17","training","adjacent","CD","3","4","Q.jpg","P.jpg","1","1","1","",""
"","feedback","","html-keyboard-response","116","351139","0.0-1.0-159.0-0.0","0","0","86488","","null","","","null","17","","","","","","","","","","","","","","","",""
"","ITI","","html-keyboard-response","117","352155","0.0-1.0-162.0","0","0","86488","","null","","","null","17","","","","","","","","","","","","","","","NaN",""
"","S1","","html-keyboard-response","118","352417","0.0-1.0-164.0","0","0","86488","","null","","","null","18","","","","","","","","","","","","","","","",""
"","ISI","","html-keyboard-response","119","354428","0.0-1.0-165.0","0","0","86488","","null","","","null","18","NaN","","","","","","","","","","","","","","",""
"","S2","","html-keyboard-response","120","354691","0.0-1.0-166.0","0","0","86488","","null","","","null","18","","NaN","","","","","","","","","","","","","",""
"","response","","html-keyboard-response","121","355265","0.0-1.0-167.0","0","0","86488","","563","","","68","18","","","1","18","training","adjacent","FG","6","7","O.jpg","M.jpg","1","1","1","",""
"","feedback","","html-keyboard-response","122","356277","0.0-1.0-168.0-0.0","0","0","86488","","null","","","null","18","","","","","","","","","","","","","","","",""
"","ITI","","html-keyboard-response","123","357289","0.0-1.0-171.0","0","0","86488","","null","","","null","18","","","","","","","","","","","","","","","NaN",""
"","S1","","html-keyboard-response","124","357552","0.0-1.0-173.0","0","0","86488","","null","","","null","19","","","","","","","","","","","","","","","",""
"","ISI","","html-keyboard-response","125","359563","0.0-1.0-174.0","0","0","86488","","null","","","null","19","NaN","","","","","","","","","","","","","","",""
"","S2","","html-keyboard-response","126","359826","0.0-1.0-175.0","0","0","86488","","null","","","null","19","","NaN","","","","","","","","","","","","","",""
"","response","","html-keyboard-response","127","360244","0.0-1.0-176.0","0","0","86488","","408","","","68","19","","","1","19","training","adjacent","FE","6","5","O.jpg","L.jpg","1","0","0","",""
"","feedback","","html-keyboard-response","128","361256","0.0-1.0-177.0-0.0","0","0","86488","","null","","","null","19","","","","","","","","","","","","","","","",""
"","time_out","","html-keyboard-response","129","363267","0.0-1.0-179.0-0.0","0","0","86488","","null","","","null","19","","","","","","","","","","","","","","","",""
"","ITI","","html-keyboard-response","130","364278","0.0-1.0-180.0","0","0","86488","","null","","","null","19","","","","","","","","","","","","","","","NaN",""
"","S1","","html-keyboard-response","131","364541","0.0-1.0-182.0","0","0","86488","","null","","","null","20","","","","","","","","","","","","","","","",""
"","ISI","","html-keyboard-response","132","366553","0.0-1.0-183.0","0","0","86488","","null","","","null","20","NaN","","","","","","","","","","","","","","",""
"","S2","","html-keyboard-response","133","366818","0.0-1.0-184.0","0","0","86488","","null","","","null","20","","NaN","","","","","","","","","","","","","",""
"","response","","html-keyboard-response","134","367244","0.0-1.0-185.0","0","0","86488","","414","","","75","20","","","1","20","training","adjacent","FG","6","7","O.jpg","M.jpg","0","1","0","",""
"","feedback","","html-keyboard-response","135","368256","0.0-1.0-186.0-0.0","0","0","86488","","null","","","null","20","","","","","","","","","","","","","","","",""
"","time_out","","html-keyboard-response","136","370268","0.0-1.0-188.0-0.0","0","0","86488","","null","","","null","20","","","","","","","","","","","","","","","",""
"","ITI","","html-keyboard-response","137","371279","0.0-1.0-189.0","0","0","86488","","null","","","null","20","","","","","","","","","","","","","","","NaN",""
"","S1","","html-keyboard-response","138","371541","0.0-1.0-191.0","0","0","86488","","null","","","null","21","","","","","","","","","","","","","","","",""
"","ISI","","html-keyboard-response","139","373553","0.0-1.0-192.0","0","0","86488","","null","","","null","21","NaN","","","","","","","","","","","","","","",""
"","S2","","html-keyboard-response","140","373815","0.0-1.0-193.0","0","0","86488","","null","","","null","21","","NaN","","","","","","","","","","","","","",""
"","response","","html-keyboard-response","141","374043","0.0-1.0-194.0","0","0","86488","","217","","","75","21","","","1","21","training","adjacent","EF","5","6","L.jpg","O.jpg","0","1","0","",""
"","feedback","","html-keyboard-response","142","375056","0.0-1.0-195.0-0.0","0","0","86488","","null","","","null","21","","","","","","","","","","","","","","","",""
"","time_out","","html-keyboard-response","143","377068","0.0-1.0-197.0-0.0","0","0","86488","","null","","","null","21","","","","","","","","","","","","","","","",""
"","ITI","","html-keyboard-response","144","378079","0.0-1.0-198.0","0","0","86488","","null","","","null","21","","","","","","","","","","","","","","","NaN",""
"","S1","","html-keyboard-response","145","378342","0.0-1.0-200.0","0","0","86488","","null","","","null","22","","","","","","","","","","","","","","","",""
"","ISI","","html-keyboard-response","146","380353","0.0-1.0-201.0","0","0","86488","","null","","","null","22","NaN","","","","","","","","","","","","","","",""
"","S2","","html-keyboard-response","147","380615","0.0-1.0-202.0","0","0","86488","","null","","","null","22","","NaN","","","","","","","","","","","","","",""
"","response","","html-keyboard-response","148","381343","0.0-1.0-203.0","0","0","86488","","717","","","68","22","","","1","22","training","adjacent","DC","4","3","P.jpg","Q.jpg","1","0","0","",""
"","feedback","","html-keyboard-response","149","382355","0.0-1.0-204.0-0.0","0","0","86488","","null","","","null","22","","","","","","","","","","","","","","","",""
"","time_out","","html-keyboard-response","150","384368","0.0-1.0-206.0-0.0","0","0","86488","","null","","","null","22","","","","","","","","","","","","","","","",""
"","ITI","","html-keyboard-response","151","385380","0.0-1.0-207.0","0","0","86488","","null","","","null","22","","","","","","","","","","","","","","","NaN",""
"","S1","","html-keyboard-response","152","385642","0.0-1.0-209.0","0","0","86488","","null","","","null","23","","","","","","","","","","","","","","","",""
"","ISI","","html-keyboard-response","153","387655","0.0-1.0-210.0","0","0","86488","","null","","","null","23","NaN","","","","","","","","","","","","","","",""
"","S2","","html-keyboard-response","154","387918","0.0-1.0-211.0","0","0","86488","","null","","","null","23","","NaN","","","","","","","","","","","","","",""
"","response","","html-keyboard-response","155","389057","0.0-1.0-212.0","0","0","86488","","1129","","","75","23","","","1","23","training","adjacent","DE","4","5","P.jpg","L.jpg","0","1","0","",""
"","feedback","","html-keyboard-response","156","390069","0.0-1.0-213.0-0.0","0","0","86488","","null","","","null","23","","","","","","","","","","","","","","","",""
"","time_out","","html-keyboard-response","157","392081","0.0-1.0-215.0-0.0","0","0","86488","","null","","","null","23","","","","","","","","","","","","","","","",""
"","ITI","","html-keyboard-response","158","393093","0.0-1.0-216.0","0","0","86488","","null","","","null","23","","","","","","","","","","","","","","","NaN",""
"","S1","","html-keyboard-response","159","393356","0.0-1.0-218.0","0","0","86488","","null","","","null","24","","","","","","","","","","","","","","","",""
"","ISI","","html-keyboard-response","160","395367","0.0-1.0-219.0","0","0","86488","","null","","","null","24","NaN","","","","","","","","","","","","","","",""
"","S2","","html-keyboard-response","161","395630","0.0-1.0-220.0","0","0","86488","","null","","","null","24","","NaN","","","","","","","","","","","","","",""
"","response","","html-keyboard-response","162","396171","0.0-1.0-221.0","0","0","86488","","530","","","75","24","","","1","24","training","adjacent","AB","1","2","N.jpg","R.jpg","0","1","0","",""
"","feedback","","html-keyboard-response","163","397183","0.0-1.0-222.0-0.0","0","0","86488","","null","","","null","24","","","","","","","","","","","","","","","",""
"","time_out","","html-keyboard-response","164","399195","0.0-1.0-224.0-0.0","0","0","86488","","null","","","null","24","","","","","","","","","","","","","","","",""
"","ITI","","html-keyboard-response","165","400208","0.0-1.0-225.0","0","0","86488","","null","","","null","24","","","","","","","","","","","","","","","NaN",""
"","S1","","html-keyboard-response","166","400470","0.0-1.0-227.0","0","0","86488","","null","","","null","25","","","","","","","","","","","","","","","",""
"","ISI","","html-keyboard-response","167","402481","0.0-1.0-228.0","0","0","86488","","null","","","null","25","NaN","","","","","","","","","","","","","","",""
"","S2","","html-keyboard-response","168","402744","0.0-1.0-229.0","0","0","86488","","null","","","null","25","","NaN","","","","","","","","","","","","","",""
"","response","","html-keyboard-response","169","402965","0.0-1.0-230.0","0","0","86488","","209","","","75","25","","","1","25","training","adjacent","GF","7","6","M.jpg","O.jpg","0","0","1","",""
"","feedback","","html-keyboard-response","170","403978","0.0-1.0-231.0-0.0","0","0","86488","","null","","","null","25","","","","","","","","","","","","","","","",""
"","ITI","","html-keyboard-response","171","404990","0.0-1.0-234.0","0","0","86488","","null","","","null","25","","","","","","","","","","","","","","","NaN",""
"","S1","","html-keyboard-response","172","405253","0.0-1.0-236.0","0","0","86488","","null","","","null","26","","","","","","","","","","","","","","","",""
"","ISI","","html-keyboard-response","173","407265","0.0-1.0-237.0","0","0","86488","","null","","","null","26","NaN","","","","","","","","","","","","","","",""
"","S2","","html-keyboard-response","174","407527","0.0-1.0-238.0","0","0","86488","","null","","","null","26","","NaN","","","","","","","","","","","","","",""
"","response","","html-keyboard-response","175","408064","0.0-1.0-239.0","0","0","86488","","526","","","75","26","","","1","26","training","adjacent","DC","4","3","P.jpg","Q.jpg","0","0","1","",""
"","feedback","","html-keyboard-response","176","409079","0.0-1.0-240.0-0.0","0","0","86488","","null","","","null","26","","","","","","","","","","","","","","","",""
"","ITI","","html-keyboard-response","177","410091","0.0-1.0-243.0","0","0","86488","","null","","","null","26","","","","","","","","","","","","","","","NaN",""
"","S1","","html-keyboard-response","178","410354","0.0-1.0-245.0","0","0","86488","","null","","","null","27","","","","","","","","","","","","","","","",""
"","ISI","","html-keyboard-response","179","412367","0.0-1.0-246.0","0","0","86488","","null","","","null","27","NaN","","","","","","","","","","","","","","",""
"","S2","","html-keyboard-response","180","412632","0.0-1.0-247.0","0","0","86488","","null","","","null","27","","NaN","","","","","","","","","","","","","",""
"","response","","html-keyboard-response","181","412975","0.0-1.0-248.0","0","0","86488","","333","","","75","27","","","1","27","training","adjacent","EF","5","6","L.jpg","O.jpg","0","1","0","",""
"","feedback","","html-keyboard-response","182","413987","0.0-1.0-249.0-0.0","0","0","86488","","null","","","null","27","","","","","","","","","","","","","","","",""
"","time_out","","html-keyboard-response","183","415999","0.0-1.0-251.0-0.0","0","0","86488","","null","","","null","27","","","","","","","","","","","","","","","",""
"","ITI","","html-keyboard-response","184","417010","0.0-1.0-252.0","0","0","86488","","null","","","null","27","","","","","","","","","","","","","","","NaN",""
"","S1","","html-keyboard-response","185","417273","0.0-1.0-254.0","0","0","86488","","null","","","null","28","","","","","","","","","","","","","","","",""
"","ISI","","html-keyboard-response","186","419284","0.0-1.0-255.0","0","0","86488","","null","","","null","28","NaN","","","","","","","","","","","","","","",""
"","S2","","html-keyboard-response","187","419547","0.0-1.0-256.0","0","0","86488","","null","","","null","28","","NaN","","","","","","","","","","","","","",""
"","response","","html-keyboard-response","188","420019","0.0-1.0-257.0","0","0","86488","","460","","","68","28","","","1","28","training","adjacent","BC","2","3","R.jpg","Q.jpg","1","1","1","",""
"","feedback","","html-keyboard-response","189","421031","0.0-1.0-258.0-0.0","0","0","86488","","null","","","null","28","","","","","","","","","","","","","","","",""
"","ITI","","html-keyboard-response","190","422043","0.0-1.0-261.0","0","0","86488","","null","","","null","28","","","","","","","","","","","","","","","NaN",""
"","S1","","html-keyboard-response","191","422305","0.0-1.0-263.0","0","0","86488","","null","","","null","29","","","","","","","","","","","","","","","",""
"","ISI","","html-keyboard-response","192","424317","0.0-1.0-264.0","0","0","86488","","null","","","null","29","NaN","","","","","","","","","","","","","","",""
"","S2","","html-keyboard-response","193","424579","0.0-1.0-265.0","0","0","86488","","null","","","null","29","","NaN","","","","","","","","","","","","","",""
"","response","","html-keyboard-response","194","425084","0.0-1.0-266.0","0","0","86488","","493","","","75","29","","","1","29","training","adjacent","EF","5","6","L.jpg","O.jpg","0","1","0","",""
"","feedback","","html-keyboard-response","195","426097","0.0-1.0-267.0-0.0","0","0","86488","","null","","","null","29","","","","","","","","","","","","","","","",""
"","time_out","","html-keyboard-response","196","428109","0.0-1.0-269.0-0.0","0","0","86488","","null","","","null","29","","","","","","","","","","","","","","","",""
"","ITI","","html-keyboard-response","197","429121","0.0-1.0-270.0","0","0","86488","","null","","","null","29","","","","","","","","","","","","","","","NaN",""
"","S1","","html-keyboard-response","198","429384","0.0-1.0-272.0","0","0","86488","","null","","","null","30","","","","","","","","","","","","","","","",""
"","ISI","","html-keyboard-response","199","431395","0.0-1.0-273.0","0","0","86488","","null","","","null","30","NaN","","","","","","","","","","","","","","",""
"","S2","","html-keyboard-response","200","431660","0.0-1.0-274.0","0","0","86488","","null","","","null","30","","NaN","","","","","","","","","","","","","",""
"","response","","html-keyboard-response","201","432395","0.0-1.0-275.0","0","0","86488","","724","","","68","30","","","1","30","training","adjacent","BC","2","3","R.jpg","Q.jpg","1","1","1","",""
"","feedback","","html-keyboard-response","202","433408","0.0-1.0-276.0-0.0","0","0","86488","","null","","","null","30","","","","","","","","","","","","","","","",""
"","ITI","","html-keyboard-response","203","434420","0.0-1.0-279.0","0","0","86488","","null","","","null","30","","","","","","","","","","","","","","","NaN",""
"","S1","","html-keyboard-response","204","434683","0.0-1.0-281.0","0","0","86488","","null","","","null","31","","","","","","","","","","","","","","","",""
"","ISI","","html-keyboard-response","205","436695","0.0-1.0-282.0","0","0","86488","","null","","","null","31","NaN","","","","","","","","","","","","","","",""
"","S2","","html-keyboard-response","206","436957","0.0-1.0-283.0","0","0","86488","","null","","","null","31","","NaN","","","","","","","","","","","","","",""
"","response","","html-keyboard-response","207","437554","0.0-1.0-284.0","0","0","86488","","586","","","75","31","","","1","31","training","adjacent","DC","4","3","P.jpg","Q.jpg","0","0","1","",""
"","feedback","","html-keyboard-response","208","438569","0.0-1.0-285.0-0.0","0","0","86488","","null","","","null","31","","","","","","","","","","","","","","","",""
"","ITI","","html-keyboard-response","209","439581","0.0-1.0-288.0","0","0","86488","","null","","","null","31","","","","","","","","","","","","","","","NaN",""
"","S1","","html-keyboard-response","210","439844","0.0-1.0-290.0","0","0","86488","","null","","","null","32","","","","","","","","","","","","","","","",""
"","ISI","","html-keyboard-response","211","441857","0.0-1.0-291.0","0","0","86488","","null","","","null","32","NaN","","","","","","","","","","","","","","",""
"","S2","","html-keyboard-response","212","442120","0.0-1.0-292.0","0","0","86488","","null","","","null","32","","NaN","","","","","","","","","","","","","",""
"","response","","html-keyboard-response","213","442695","0.0-1.0-293.0","0","0","86488","","565","","","75","32","","","1","32","training","adjacent","CB","3","2","Q.jpg","R.jpg","0","0","1","",""
"","feedback","","html-keyboard-response","214","443707","0.0-1.0-294.0-0.0","0","0","86488","","null","","","null","32","","","","","","","","","","","","","","","",""
"","ITI","","html-keyboard-response","215","444720","0.0-1.0-297.0","0","0","86488","","null","","","null","32","","","","","","","","","","","","","","","NaN",""
"","S1","","html-keyboard-response","216","444983","0.0-1.0-299.0","0","0","86488","","null","","","null","33","","","","","","","","","","","","","","","",""
"","ISI","","html-keyboard-response","217","446994","0.0-1.0-300.0","0","0","86488","","null","","","null","33","NaN","","","","","","","","","","","","","","",""
"","S2","","html-keyboard-response","218","447257","0.0-1.0-301.0","0","0","86488","","null","","","null","33","","NaN","","","","","","","","","","","","","",""
"","response","","html-keyboard-response","219","447779","0.0-1.0-302.0","0","0","86488","","514","","","75","33","","","1","33","training","adjacent","CD","3","4","Q.jpg","P.jpg","0","1","0","",""
"","feedback","","html-keyboard-response","220","448790","0.0-1.0-303.0-0.0","0","0","86488","","null","","","null","33","","","","","","","","","","","","","","","",""
"","time_out","","html-keyboard-response","221","450802","0.0-1.0-305.0-0.0","0","0","86488","","null","","","null","33","","","","","","","","","","","","","","","",""
"","ITI","","html-keyboard-response","222","451814","0.0-1.0-306.0","0","0","86488","","null","","","null","33","","","","","","","","","","","","","","","NaN",""
"","S1","","html-keyboard-response","223","452077","0.0-1.0-308.0","0","0","86488","","null","","","null","34","","","","","","","","","","","","","","","",""
"","ISI","","html-keyboard-response","224","454087","0.0-1.0-309.0","0","0","86488","","null","","","null","34","NaN","","","","","","","","","","","","","","",""
"","S2","","html-keyboard-response","225","454348","0.0-1.0-310.0","0","0","86488","","null","","","null","34","","NaN","","","","","","","","","","","","","",""
"","response","","html-keyboard-response","226","455042","0.0-1.0-311.0","0","0","86488","","682","","","68","34","","","1","34","training","adjacent","CD","3","4","Q.jpg","P.jpg","1","1","1","",""
"","feedback","","html-keyboard-response","227","456056","0.0-1.0-312.0-0.0","0","0","86488","","null","","","null","34","","","","","","","","","","","","","","","",""
"","ITI","","html-keyboard-response","228","457067","0.0-1.0-315.0","0","0","86488","","null","","","null","34","","","","","","","","","","","","","","","NaN",""
"","S1","","html-keyboard-response","229","457330","0.0-1.0-317.0","0","0","86488","","null","","","null","35","","","","","","","","","","","","","","","",""
"","ISI","","html-keyboard-response","230","459342","0.0-1.0-318.0","0","0","86488","","null","","","null","35","NaN","","","","","","","","","","","","","","",""
"","S2","","html-keyboard-response","231","459604","0.0-1.0-319.0","0","0","86488","","null","","","null","35","","NaN","","","","","","","","","","","","","",""
"","response","","html-keyboard-response","232","459702","0.0-1.0-320.0","0","0","86488","","85","","","75","35","","","1","35","training","adjacent","FE","6","5","O.jpg","L.jpg","0","0","1","",""
"","feedback","","html-keyboard-response","233","460715","0.0-1.0-321.0-0.0","0","0","86488","","null","","","null","35","","","","","","","","","","","","","","","",""
"","ITI","","html-keyboard-response","234","461726","0.0-1.0-324.0","0","0","86488","","null","","","null","35","","","","","","","","","","","","","","","NaN",""
"","S1","","html-keyboard-response","235","461993","0.0-1.0-326.0","0","0","86488","","null","","","null","36","","","","","","","","","","","","","","","",""
"","ISI","","html-keyboard-response","236","464005","0.0-1.0-327.0","0","0","86488","","null","","","null","36","NaN","","","","","","","","","","","","","","",""
"","S2","","html-keyboard-response","237","464267","0.0-1.0-328.0","0","0","86488","","null","","","null","36","","NaN","","","","","","","","","","","","","",""
"","response","","html-keyboard-response","238","464278","0.0-1.0-329.0","0","0","86488","","0","","","75","36","","","1","36","training","adjacent","DC","4","3","P.jpg","Q.jpg","0","0","1","",""
"","feedback","","html-keyboard-response","239","465290","0.0-1.0-330.0-0.0","0","0","86488","","null","","","null","36","","","","","","","","","","","","","","","",""
"","ITI","","html-keyboard-response","240","466302","0.0-1.0-333.0","0","0","86488","","null","","","null","36","","","","","","","","","","","","","","","NaN",""
"","S1","","html-keyboard-response","241","466566","0.0-1.0-335.0","0","0","86488","","null","","","null","37","","","","","","","","","","","","","","","",""
"","ISI","","html-keyboard-response","242","468577","0.0-1.0-336.0","0","0","86488","","null","","","null","37","NaN","","","","","","","","","","","","","","",""
"","S2","","html-keyboard-response","243","468840","0.0-1.0-337.0","0","0","86488","","null","","","null","37","","NaN","","","","","","","","","","","","","",""
"","response","","html-keyboard-response","244","468852","0.0-1.0-338.0","0","0","86488","","0","","","75","37","","","1","37","training","adjacent","BA","2","1","R.jpg","N.jpg","0","0","1","",""
"","feedback","","html-keyboard-response","245","469864","0.0-1.0-339.0-0.0","0","0","86488","","null","","","null","37","","","","","","","","","","","","","","","",""
"","ITI","","html-keyboard-response","246","470876","0.0-1.0-342.0","0","0","86488","","null","","","null","37","","","","","","","","","","","","","","","NaN",""
"","S1","","html-keyboard-response","247","471139","0.0-1.0-344.0","0","0","86488","","null","","","null","38","","","","","","","","","","","","","","","",""
"","ISI","","html-keyboard-response","248","473151","0.0-1.0-345.0","0","0","86488","","null","","","null","38","NaN","","","","","","","","","","","","","","",""
"","S2","","html-keyboard-response","249","473413","0.0-1.0-346.0","0","0","86488","","null","","","null","38","","NaN","","","","","","","","","","","","","",""
"","response","","html-keyboard-response","250","474201","0.0-1.0-347.0","0","0","86488","","777","","","75","38","","","1","38","training","adjacent","BA","2","1","R.jpg","N.jpg","0","0","1","",""
"","feedback","","html-keyboard-response","251","475213","0.0-1.0-348.0-0.0","0","0","86488","","null","","","null","38","","","","","","","","","","","","","","","",""
"","ITI","","html-keyboard-response","252","476226","0.0-1.0-351.0","0","0","86488","","null","","","null","38","","","","","","","","","","","","","","","NaN",""
"","S1","","html-keyboard-response","253","476489","0.0-1.0-353.0","0","0","86488","","null","","","null","39","","","","","","","","","","","","","","","",""
"","ISI","","html-keyboard-response","254","478501","0.0-1.0-354.0","0","0","86488","","null","","","null","39","NaN","","","","","","","","","","","","","","",""
"","S2","","html-keyboard-response","255","478764","0.0-1.0-355.0","0","0","86488","","null","","","null","39","","NaN","","","","","","","","","","","","","",""
"","response","","html-keyboard-response","256","478914","0.0-1.0-356.0","0","0","86488","","140","","","75","39","","","1","39","training","adjacent","BA","2","1","R.jpg","N.jpg","0","0","1","",""
"","feedback","","html-keyboard-response","257","479927","0.0-1.0-357.0-0.0","0","0","86488","","null","","","null","39","","","","","","","","","","","","","","","",""
"","ITI","","html-keyboard-response","258","480940","0.0-1.0-360.0","0","0","86488","","null","","","null","39","","","","","","","","","","","","","","","NaN",""
"","S1","","html-keyboard-response","259","481203","0.0-1.0-362.0","0","0","86488","","null","","","null","40","","","","","","","","","","","","","","","",""
"","ISI","","html-keyboard-response","260","483215","0.0-1.0-363.0","0","0","86488","","null","","","null","40","NaN","","","","","","","","","","","","","","",""
"","S2","","html-keyboard-response","261","483478","0.0-1.0-364.0","0","0","86488","","null","","","null","40","","NaN","","","","","","","","","","","","","",""
"","response","","html-keyboard-response","262","483784","0.0-1.0-365.0","0","0","86488","","298","","","75","40","","","1","40","training","adjacent","DE","4","5","P.jpg","L.jpg","0","1","0","",""
"","feedback","","html-keyboard-response","263","484795","0.0-1.0-366.0-0.0","0","0","86488","","null","","","null","40","","","","","","","","","","","","","","","",""
"","time_out","","html-keyboard-response","264","486807","0.0-1.0-368.0-0.0","0","0","86488","","null","","","null","40","","","","","","","","","","","","","","","",""
"","ITI","","html-keyboard-response","265","487820","0.0-1.0-369.0","0","0","86488","","null","","","null","40","","","","","","","","","","","","","","","NaN",""
"","S1","","html-keyboard-response","266","488082","0.0-1.0-371.0","0","0","86488","","null","","","null","41","","","","","","","","","","","","","","","",""
"","ISI","","html-keyboard-response","267","490093","0.0-1.0-372.0","0","0","86488","","null","","","null","41","NaN","","","","","","","","","","","","","","",""
"","S2","","html-keyboard-response","268","490356","0.0-1.0-373.0","0","0","86488","","null","","","null","41","","NaN","","","","","","","","","","","","","",""
"","response","","html-keyboard-response","269","490724","0.0-1.0-374.0","0","0","86488","","356","","","68","41","","","1","41","training","adjacent","AB","1","2","N.jpg","R.jpg","1","1","1","",""
"","feedback","","html-keyboard-response","270","491737","0.0-1.0-375.0-0.0","0","0","86488","","null","","","null","41","","","","","","","","","","","","","","","",""
"","ITI","","html-keyboard-response","271","492749","0.0-1.0-378.0","0","0","86488","","null","","","null","41","","","","","","","","","","","","","","","NaN",""
"","S1","","html-keyboard-response","272","493016","0.0-1.0-380.0","0","0","86488","","null","","","null","42","","","","","","","","","","","","","","","",""
"","ISI","","html-keyboard-response","273","495029","0.0-1.0-381.0","0","0","86488","","null","","","null","42","NaN","","","","","","","","","","","","","","",""
"","S2","","html-keyboard-response","274","495291","0.0-1.0-382.0","0","0","86488","","null","","","null","42","","NaN","","","","","","","","","","","","","",""
"","response","","html-keyboard-response","275","495670","0.0-1.0-383.0","0","0","86488","","367","","","68","42","","","1","42","training","adjacent","GF","7","6","M.jpg","O.jpg","1","0","0","",""
"","feedback","","html-keyboard-response","276","496683","0.0-1.0-384.0-0.0","0","0","86488","","null","","","null","42","","","","","","","","","","","","","","","",""
"","time_out","","html-keyboard-response","277","498695","0.0-1.0-386.0-0.0","0","0","86488","","null","","","null","42","","","","","","","","","","","","","","","",""
"","ITI","","html-keyboard-response","278","499708","0.0-1.0-387.0","0","0","86488","","null","","","null","42","","","","","","","","","","","","","","","NaN",""
"","S1","","html-keyboard-response","279","499971","0.0-1.0-389.0","0","0","86488","","null","","","null","43","","","","","","","","","","","","","","","",""
"","ISI","","html-keyboard-response","280","501981","0.0-1.0-390.0","0","0","86488","","null","","","null","43","NaN","","","","","","","","","","","","","","",""
"","S2","","html-keyboard-response","281","502243","0.0-1.0-391.0","0","0","86488","","null","","","null","43","","NaN","","","","","","","","","","","","","",""
"","response","","html-keyboard-response","282","502717","0.0-1.0-392.0","0","0","86488","","463","","","75","43","","","1","43","training","adjacent","AB","1","2","N.jpg","R.jpg","0","1","0","",""
"","feedback","","html-keyboard-response","283","503730","0.0-1.0-393.0-0.0","0","0","86488","","null","","","null","43","","","","","","","","","","","","","","","",""
"","time_out","","html-keyboard-response","284","505743","0.0-1.0-395.0-0.0","0","0","86488","","null","","","null","43","","","","","","","","","","","","","","","",""
"","ITI","","html-keyboard-response","285","506754","0.0-1.0-396.0","0","0","86488","","null","","","null","43","","","","","","","","","","","","","","","NaN",""
"","S1","","html-keyboard-response","286","507018","0.0-1.0-398.0","0","0","86488","","null","","","null","44","","","","","","","","","","","","","","","",""
"","ISI","","html-keyboard-response","287","509029","0.0-1.0-399.0","0","0","86488","","null","","","null","44","NaN","","","","","","","","","","","","","","",""
"","S2","","html-keyboard-response","288","509292","0.0-1.0-400.0","0","0","86488","","null","","","null","44","","NaN","","","","","","","","","","","","","",""
"","response","","html-keyboard-response","289","509409","0.0-1.0-401.0","0","0","86488","","103","","","75","44","","","1","44","training","adjacent","CD","3","4","Q.jpg","P.jpg","0","1","0","",""
"","feedback","","html-keyboard-response","290","510421","0.0-1.0-402.0-0.0","0","0","86488","","null","","","null","44","","","","","","","","","","","","","","","",""
"","time_out","","html-keyboard-response","291","512434","0.0-1.0-404.0-0.0","0","0","86488","","null","","","null","44","","","","","","","","","","","","","","","",""
"","ITI","","html-keyboard-response","292","513446","0.0-1.0-405.0","0","0","86488","","null","","","null","44","","","","","","","","","","","","","","","NaN",""
"","S1","","html-keyboard-response","293","513709","0.0-1.0-407.0","0","0","86488","","null","","","null","45","","","","","","","","","","","","","","","",""
"","ISI","","html-keyboard-response","294","515721","0.0-1.0-408.0","0","0","86488","","null","","","null","45","NaN","","","","","","","","","","","","","","",""
"","S2","","html-keyboard-response","295","515983","0.0-1.0-409.0","0","0","86488","","null","","","null","45","","NaN","","","","","","","","","","","","","",""
"","response","","html-keyboard-response","296","516581","0.0-1.0-410.0","0","0","86488","","586","","","68","45","","","1","45","training","adjacent","BC","2","3","R.jpg","Q.jpg","1","1","1","",""
"","feedback","","html-keyboard-response","297","517594","0.0-1.0-411.0-0.0","0","0","86488","","null","","","null","45","","","","","","","","","","","","","","","",""
"","ITI","","html-keyboard-response","298","518608","0.0-1.0-414.0","0","0","86488","","null","","","null","45","","","","","","","","","","","","","","","NaN",""
"","S1","","html-keyboard-response","299","518870","0.0-1.0-416.0","0","0","86488","","null","","","null","46","","","","","","","","","","","","","","","",""
"","ISI","","html-keyboard-response","300","520882","0.0-1.0-417.0","0","0","86488","","null","","","null","46","NaN","","","","","","","","","","","","","","",""
"","S2","","html-keyboard-response","301","521143","0.0-1.0-418.0","0","0","86488","","null","","","null","46","","NaN","","","","","","","","","","","","","",""
"","response","","html-keyboard-response","302","521376","0.0-1.0-419.0","0","0","86488","","222","","","75","46","","","1","46","training","adjacent","BA","2","1","R.jpg","N.jpg","0","0","1","",""
"","feedback","","html-keyboard-response","303","522389","0.0-1.0-420.0-0.0","0","0","86488","","null","","","null","46","","","","","","","","","","","","","","","",""
"","ITI","","html-keyboard-response","304","523401","0.0-1.0-423.0","0","0","86488","","null","","","null","46","","","","","","","","","","","","","","","NaN",""
"","S1","","html-keyboard-response","305","523665","0.0-1.0-425.0","0","0","86488","","null","","","null","47","","","","","","","","","","","","","","","",""
"","ISI","","html-keyboard-response","306","525677","0.0-1.0-426.0","0","0","86488","","null","","","null","47","NaN","","","","","","","","","","","","","","",""
"","S2","","html-keyboard-response","307","525940","0.0-1.0-427.0","0","0","86488","","null","","","null","47","","NaN","","","","","","","","","","","","","",""
"","response","","html-keyboard-response","308","526334","0.0-1.0-428.0","0","0","86488","","382","","","68","47","","","1","47","training","adjacent","BC","2","3","R.jpg","Q.jpg","1","1","1","",""
"","feedback","","html-keyboard-response","309","527348","0.0-1.0-429.0-0.0","0","0","86488","","null","","","null","47","","","","","","","","","","","","","","","",""
"","ITI","","html-keyboard-response","310","528361","0.0-1.0-432.0","0","0","86488","","null","","","null","47","","","","","","","","","","","","","","","NaN",""
"","block_over","","html-keyboard-response","311","535197","0.0-1.0-433.0-0.0","0","0","86488","","6822","","","32","47","","","","","","","","","","","","","","","",""
"","S1","","html-keyboard-response","312","535461","0.0-1.0-434.0","0","0","86488","","null","","","null","48","","","","","","","","","","","","","","","",""
"","ISI","","html-keyboard-response","313","537474","0.0-1.0-435.0","0","0","86488","","null","","","null","48","NaN","","","","","","","","","","","","","","",""
"","S2","","html-keyboard-response","314","537736","0.0-1.0-436.0","0","0","86488","","null","","","null","48","","NaN","","","","","","","","","","","","","",""
"","response","","html-keyboard-response","315","538265","0.0-1.0-437.0","0","0","86488","","517","","","68","48","","","2","48","training","adjacent","ED","5","4","L.jpg","P.jpg","1","0","0","",""
"","feedback","","html-keyboard-response","316","539278","0.0-1.0-438.0-0.0","0","0","86488","","null","","","null","48","","","","","","","","","","","","","","","",""
"","time_out","","html-keyboard-response","317","541291","0.0-1.0-440.0-0.0","0","0","86488","","null","","","null","48","","","","","","","","","","","","","","","",""
"","ITI","","html-keyboard-response","318","542303","0.0-1.0-441.0","0","0","86488","","null","","","null","48","","","","","","","","","","","","","","","NaN",""
"","S1","","html-keyboard-response","319","542567","0.0-1.0-443.0","0","0","86488","","null","","","null","49","","","","","","","","","","","","","","","",""
"","ISI","","html-keyboard-response","320","544578","0.0-1.0-444.0","0","0","86488","","null","","","null","49","NaN","","","","","","","","","","","","","","",""
"","S2","","html-keyboard-response","321","544841","0.0-1.0-445.0","0","0","86488","","null","","","null","49","","NaN","","","","","","","","","","","","","",""
"","response","","html-keyboard-response","322","545001","0.0-1.0-446.0","0","0","86488","","147","","","75","49","","","2","49","training","adjacent","CB","3","2","Q.jpg","R.jpg","0","0","1","",""
"","feedback","","html-keyboard-response","323","546014","0.0-1.0-447.0-0.0","0","0","86488","","null","","","null","49","","","","","","","","","","","","","","","",""
"","ITI","","html-keyboard-response","324","547028","0.0-1.0-450.0","0","0","86488","","null","","","null","49","","","","","","","","","","","","","","","NaN",""
"","S1","","html-keyboard-response","325","547290","0.0-1.0-452.0","0","0","86488","","null","","","null","50","","","","","","","","","","","","","","","",""
"","ISI","","html-keyboard-response","326","549302","0.0-1.0-453.0","0","0","86488","","null","","","null","50","NaN","","","","","","","","","","","","","","",""
"","S2","","html-keyboard-response","327","549565","0.0-1.0-454.0","0","0","86488","","null","","","null","50","","NaN","","","","","","","","","","","","","",""
"","response","","html-keyboard-response","328","549668","0.0-1.0-455.0","0","0","86488","","92","","","75","50","","","2","50","training","adjacent","ED","5","4","L.jpg","P.jpg","0","0","1","",""
"","feedback","","html-keyboard-response","329","550681","0.0-1.0-456.0-0.0","0","0","86488","","null","","","null","50","","","","","","","","","","","","","","","",""
"","ITI","","html-keyboard-response","330","551694","0.0-1.0-459.0","0","0","86488","","null","","","null","50","","","","","","","","","","","","","","","NaN",""
"","S1","","html-keyboard-response","331","551956","0.0-1.0-461.0","0","0","86488","","null","","","null","51","","","","","","","","","","","","","","","",""
"","ISI","","html-keyboard-response","332","553967","0.0-1.0-462.0","0","0","86488","","null","","","null","51","NaN","","","","","","","","","","","","","","",""
"","S2","","html-keyboard-response","333","554229","0.0-1.0-463.0","0","0","86488","","null","","","null","51","","NaN","","","","","","","","","","","","","",""
"","response","","html-keyboard-response","334","554446","0.0-1.0-464.0","0","0","86488","","204","","","75","51","","","2","51","training","adjacent","EF","5","6","L.jpg","O.jpg","0","1","0","",""
"","feedback","","html-keyboard-response","335","555459","0.0-1.0-465.0-0.0","0","0","86488","","null","","","null","51","","","","","","","","","","","","","","","",""
"","time_out","","html-keyboard-response","336","557471","0.0-1.0-467.0-0.0","0","0","86488","","null","","","null","51","","","","","","","","","","","","","","","",""
"","ITI","","html-keyboard-response","337","558483","0.0-1.0-468.0","0","0","86488","","null","","","null","51","","","","","","","","","","","","","","","NaN",""
"","S1","","html-keyboard-response","338","558746","0.0-1.0-470.0","0","0","86488","","null","","","null","52","","","","","","","","","","","","","","","",""
"","ISI","","html-keyboard-response","339","560758","0.0-1.0-471.0","0","0","86488","","null","","","null","52","NaN","","","","","","","","","","","","","","",""
"","S2","","html-keyboard-response","340","561020","0.0-1.0-472.0","0","0","86488","","null","","","null","52","","NaN","","","","","","","","","","","","","",""
"","response","","html-keyboard-response","341","561117","0.0-1.0-473.0","0","0","86488","","85","","","68","52","","","2","52","training","adjacent","FG","6","7","O.jpg","M.jpg","1","1","1","",""
"","feedback","","html-keyboard-response","342","562130","0.0-1.0-474.0-0.0","0","0","86488","","null","","","null","52","","","","","","","","","","","","","","","",""
"","ITI","","html-keyboard-response","343","563142","0.0-1.0-477.0","0","0","86488","","null","","","null","52","","","","","","","","","","","","","","","NaN",""
"","S1","","html-keyboard-response","344","563404","0.0-1.0-479.0","0","0","86488","","null","","","null","53","","","","","","","","","","","","","","","",""
"","ISI","","html-keyboard-response","345","565416","0.0-1.0-480.0","0","0","86488","","null","","","null","53","NaN","","","","","","","","","","","","","","",""
"","S2","","html-keyboard-response","346","565679","0.0-1.0-481.0","0","0","86488","","null","","","null","53","","NaN","","","","","","","","","","","","","",""
"","response","","html-keyboard-response","347","565820","0.0-1.0-482.0","0","0","86488","","129","","","75","53","","","2","53","training","adjacent","EF","5","6","L.jpg","O.jpg","0","1","0","",""
"","feedback","","html-keyboard-response","348","566833","0.0-1.0-483.0-0.0","0","0","86488","","null","","","null","53","","","","","","","","","","","","","","","",""
"","time_out","","html-keyboard-response","349","568845","0.0-1.0-485.0-0.0","0","0","86488","","null","","","null","53","","","","","","","","","","","","","","","",""
"","ITI","","html-keyboard-response","350","569857","0.0-1.0-486.0","0","0","86488","","null","","","null","53","","","","","","","","","","","","","","","NaN",""
"","S1","","html-keyboard-response","351","570120","0.0-1.0-488.0","0","0","86488","","null","","","null","54","","","","","","","","","","","","","","","",""
"","ISI","","html-keyboard-response","352","572132","0.0-1.0-489.0","0","0","86488","","null","","","null","54","NaN","","","","","","","","","","","","","","",""
"","S2","","html-keyboard-response","353","572395","0.0-1.0-490.0","0","0","86488","","null","","","null","54","","NaN","","","","","","","","","","","","","",""
"","response","","html-keyboard-response","354","572473","0.0-1.0-491.0","0","0","86488","","66","","","68","54","","","2","54","training","adjacent","AB","1","2","N.jpg","R.jpg","1","1","1","",""
"","feedback","","html-keyboard-response","355","573485","0.0-1.0-492.0-0.0","0","0","86488","","null","","","null","54","","","","","","","","","","","","","","","",""
"","ITI","","html-keyboard-response","356","574498","0.0-1.0-495.0","0","0","86488","","null","","","null","54","","","","","","","","","","","","","","","NaN",""
"","S1","","html-keyboard-response","357","574761","0.0-1.0-497.0","0","0","86488","","null","","","null","55","","","","","","","","","","","","","","","",""
"","ISI","","html-keyboard-response","358","576773","0.0-1.0-498.0","0","0","86488","","null","","","null","55","NaN","","","","","","","","","","","","","","",""
"","S2","","html-keyboard-response","359","577036","0.0-1.0-499.0","0","0","86488","","null","","","null","55","","NaN","","","","","","","","","","","","","",""
"","response","","html-keyboard-response","360","577164","0.0-1.0-500.0","0","0","86488","","117","","","75","55","","","2","55","training","adjacent","DE","4","5","P.jpg","L.jpg","0","1","0","",""
"","feedback","","html-keyboard-response","361","578177","0.0-1.0-501.0-0.0","0","0","86488","","null","","","null","55","","","","","","","","","","","","","","","",""
"","time_out","","html-keyboard-response","362","580190","0.0-1.0-503.0-0.0","0","0","86488","","null","","","null","55","","","","","","","","","","","","","","","",""
"","ITI","","html-keyboard-response","363","581202","0.0-1.0-504.0","0","0","86488","","null","","","null","55","","","","","","","","","","","","","","","NaN",""
"","S1","","html-keyboard-response","364","581466","0.0-1.0-506.0","0","0","86488","","null","","","null","56","","","","","","","","","","","","","","","",""
"","ISI","","html-keyboard-response","365","583478","0.0-1.0-507.0","0","0","86488","","null","","","null","56","NaN","","","","","","","","","","","","","","",""
"","S2","","html-keyboard-response","366","583742","0.0-1.0-508.0","0","0","86488","","null","","","null","56","","NaN","","","","","","","","","","","","","",""
"","response","","html-keyboard-response","367","583815","0.0-1.0-509.0","0","0","86488","","62","","","68","56","","","2","56","training","adjacent","FE","6","5","O.jpg","L.jpg","1","0","0","",""
"","feedback","","html-keyboard-response","368","584828","0.0-1.0-510.0-0.0","0","0","86488","","null","","","null","56","","","","","","","","","","","","","","","",""
"","time_out","","html-keyboard-response","369","586841","0.0-1.0-512.0-0.0","0","0","86488","","null","","","null","56","","","","","","","","","","","","","","","",""
"","ITI","","html-keyboard-response","370","587854","0.0-1.0-513.0","0","0","86488","","null","","","null","56","","","","","","","","","","","","","","","NaN",""
"","S1","","html-keyboard-response","371","588116","0.0-1.0-515.0","0","0","86488","","null","","","null","57","","","","","","","","","","","","","","","",""
"","ISI","","html-keyboard-response","372","590133","0.0-1.0-516.0","0","0","86488","","null","","","null","57","NaN","","","","","","","","","","","","","","",""
"","S2","","html-keyboard-response","373","590396","0.0-1.0-517.0","0","0","86488","","null","","","null","57","","NaN","","","","","","","","","","","","","",""
"","response","","html-keyboard-response","374","590518","0.0-1.0-518.0","0","0","86488","","110","","","68","57","","","2","57","training","adjacent","BC","2","3","R.jpg","Q.jpg","1","1","1","",""
"","feedback","","html-keyboard-response","375","591531","0.0-1.0-519.0-0.0","0","0","86488","","null","","","null","57","","","","","","","","","","","","","","","",""
"","ITI","","html-keyboard-response","376","592543","0.0-1.0-522.0","0","0","86488","","null","","","null","57","","","","","","","","","","","","","","","NaN",""
"","S1","","html-keyboard-response","377","592806","0.0-1.0-524.0","0","0","86488","","null","","","null","58","","","","","","","","","","","","","","","",""
"","ISI","","html-keyboard-response","378","594817","0.0-1.0-525.0","0","0","86488","","null","","","null","58","NaN","","","","","","","","","","","","","","",""
"","S2","","html-keyboard-response","379","595080","0.0-1.0-526.0","0","0","86488","","null","","","null","58","","NaN","","","","","","","","","","","","","",""
"","response","","html-keyboard-response","380","595216","0.0-1.0-527.0","0","0","86488","","124","","","75","58","","","2","58","training","adjacent","DC","4","3","P.jpg","Q.jpg","0","0","1","",""
"","feedback","","html-keyboard-response","381","596229","0.0-1.0-528.0-0.0","0","0","86488","","null","","","null","58","","","","","","","","","","","","","","","",""
"","ITI","","html-keyboard-response","382","597242","0.0-1.0-531.0","0","0","86488","","null","","","null","58","","","","","","","","","","","","","","","NaN",""
"","S1","","html-keyboard-response","383","597517","0.0-1.0-533.0","0","0","86488","","null","","","null","59","","","","","","","","","","","","","","","",""
"","ISI","","html-keyboard-response","384","599529","0.0-1.0-534.0","0","0","86488","","null","","","null","59","NaN","","","","","","","","","","","","","","",""
"","S2","","html-keyboard-response","385","599793","0.0-1.0-535.0","0","0","86488","","null","","","null","59","","NaN","","","","","","","","","","","","","",""
"","response","","html-keyboard-response","386","600021","0.0-1.0-536.0","0","0","86488","","217","","","75","59","","","2","59","training","adjacent","CB","3","2","Q.jpg","R.jpg","0","0","1","",""
"","feedback","","html-keyboard-response","387","601034","0.0-1.0-537.0-0.0","0","0","86488","","null","","","null","59","","","","","","","","","","","","","","","",""
"","ITI","","html-keyboard-response","388","602047","0.0-1.0-540.0","0","0","86488","","null","","","null","59","","","","","","","","","","","","","","","NaN",""
"","S1","","html-keyboard-response","389","602310","0.0-1.0-542.0","0","0","86488","","null","","","null","60","","","","","","","","","","","","","","","",""
"","ISI","","html-keyboard-response","390","604322","0.0-1.0-543.0","0","0","86488","","null","","","null","60","NaN","","","","","","","","","","","","","","",""
"","S2","","html-keyboard-response","391","604584","0.0-1.0-544.0","0","0","86488","","null","","","null","60","","NaN","","","","","","","","","","","","","",""
"","response","","html-keyboard-response","392","604741","0.0-1.0-545.0","0","0","86488","","145","","","68","60","","","2","60","training","adjacent","FG","6","7","O.jpg","M.jpg","1","1","1","",""
"","feedback","","html-keyboard-response","393","605754","0.0-1.0-546.0-0.0","0","0","86488","","null","","","null","60","","","","","","","","","","","","","","","",""
"","ITI","","html-keyboard-response","394","606767","0.0-1.0-549.0","0","0","86488","","null","","","null","60","","","","","","","","","","","","","","","NaN",""
"","S1","","html-keyboard-response","395","607031","0.0-1.0-551.0","0","0","86488","","null","","","null","61","","","","","","","","","","","","","","","",""
"","ISI","","html-keyboard-response","396","609043","0.0-1.0-552.0","0","0","86488","","null","","","null","61","NaN","","","","","","","","","","","","","","",""
"","S2","","html-keyboard-response","397","609306","0.0-1.0-553.0","0","0","86488","","null","","","null","61","","NaN","","","","","","","","","","","","","",""
"","response","","html-keyboard-response","398","609657","0.0-1.0-554.0","0","0","86488","","339","","","68","61","","","2","61","training","adjacent","FE","6","5","O.jpg","L.jpg","1","0","0","",""
"","feedback","","html-keyboard-response","399","610670","0.0-1.0-555.0-0.0","0","0","86488","","null","","","null","61","","","","","","","","","","","","","","","",""
"","time_out","","html-keyboard-response","400","612684","0.0-1.0-557.0-0.0","0","0","86488","","null","","","null","61","","","","","","","","","","","","","","","",""
"","ITI","","html-keyboard-response","401","613696","0.0-1.0-558.0","0","0","86488","","null","","","null","61","","","","","","","","","","","","","","","NaN",""
"","S1","","html-keyboard-response","402","613960","0.0-1.0-560.0","0","0","86488","","null","","","null","62","","","","","","","","","","","","","","","",""
"","ISI","","html-keyboard-response","403","615972","0.0-1.0-561.0","0","0","86488","","null","","","null","62","NaN","","","","","","","","","","","","","","",""
"","S2","","html-keyboard-response","404","616235","0.0-1.0-562.0","0","0","86488","","null","","","null","62","","NaN","","","","","","","","","","","","","",""
"","response","","html-keyboard-response","405","616534","0.0-1.0-563.0","0","0","86488","","288","","","68","62","","","2","62","training","adjacent","ED","5","4","L.jpg","P.jpg","1","0","0","",""
"","feedback","","html-keyboard-response","406","617547","0.0-1.0-564.0-0.0","0","0","86488","","null","","","null","62","","","","","","","","","","","","","","","",""
"","time_out","","html-keyboard-response","407","619561","0.0-1.0-566.0-0.0","0","0","86488","","null","","","null","62","","","","","","","","","","","","","","","",""
"","ITI","","html-keyboard-response","408","620574","0.0-1.0-567.0","0","0","86488","","null","","","null","62","","","","","","","","","","","","","","","NaN",""
"","S1","","html-keyboard-response","409","620838","0.0-1.0-569.0","0","0","86488","","null","","","null","63","","","","","","","","","","","","","","","",""
"","ISI","","html-keyboard-response","410","622850","0.0-1.0-570.0","0","0","86488","","null","","","null","63","NaN","","","","","","","","","","","","","","",""
"","S2","","html-keyboard-response","411","623113","0.0-1.0-571.0","0","0","86488","","null","","","null","63","","NaN","","","","","","","","","","","","","",""
"","response","","html-keyboard-response","412","623272","0.0-1.0-572.0","0","0","86488","","148","","","68","63","","","2","63","training","adjacent","FE","6","5","O.jpg","L.jpg","1","0","0","",""
"","feedback","","html-keyboard-response","413","624286","0.0-1.0-573.0-0.0","0","0","86488","","null","","","null","63","","","","","","","","","","","","","","","",""
"","time_out","","html-keyboard-response","414","626299","0.0-1.0-575.0-0.0","0","0","86488","","null","","","null","63","","","","","","","","","","","","","","","",""
"","ITI","","html-keyboard-response","415","627311","0.0-1.0-576.0","0","0","86488","","null","","","null","63","","","","","","","","","","","","","","","NaN",""
"","S1","","html-keyboard-response","416","627570","0.0-1.0-578.0","0","0","86488","","null","","","null","64","","","","","","","","","","","","","","","",""
"","ISI","","html-keyboard-response","417","629579","0.0-1.0-579.0","0","0","86488","","null","","","null","64","NaN","","","","","","","","","","","","","","",""
"","S2","","html-keyboard-response","418","629840","0.0-1.0-580.0","0","0","86488","","null","","","null","64","","NaN","","","","","","","","","","","","","",""
"","response","","html-keyboard-response","419","629847","0.0-1.0-581.0","0","0","86488","","1","","","75","64","","","2","64","training","adjacent","CD","3","4","Q.jpg","P.jpg","0","1","0","",""
"","feedback","","html-keyboard-response","420","630856","0.0-1.0-582.0-0.0","0","0","86488","","null","","","null","64","","","","","","","","","","","","","","","",""
"","time_out","","html-keyboard-response","421","632868","0.0-1.0-584.0-0.0","0","0","86488","","null","","","null","64","","","","","","","","","","","","","","","",""
"","ITI","","html-keyboard-response","422","633878","0.0-1.0-585.0","0","0","86488","","null","","","null","64","","","","","","","","","","","","","","","NaN",""
"","S1","","html-keyboard-response","423","634139","0.0-1.0-587.0","0","0","86488","","null","","","null","65","","","","","","","","","","","","","","","",""
"","ISI","","html-keyboard-response","424","636149","0.0-1.0-588.0","0","0","86488","","null","","","null","65","NaN","","","","","","","","","","","","","","",""
"","S2","","html-keyboard-response","425","636411","0.0-1.0-589.0","0","0","86488","","null","","","null","65","","NaN","","","","","","","","","","","","","",""
"","response","","html-keyboard-response","426","636442","0.0-1.0-590.0","0","0","86488","","20","","","75","65","","","2","65","training","adjacent","GF","7","6","M.jpg","O.jpg","0","0","1","",""
"","feedback","","html-keyboard-response","427","637454","0.0-1.0-591.0-0.0","0","0","86488","","null","","","null","65","","","","","","","","","","","","","","","",""
"","ITI","","html-keyboard-response","428","638465","0.0-1.0-594.0","0","0","86488","","null","","","null","65","","","","","","","","","","","","","","","NaN",""
"","S1","","html-keyboard-response","429","638728","0.0-1.0-596.0","0","0","86488","","null","","","null","66","","","","","","","","","","","","","","","",""
"","ISI","","html-keyboard-response","430","640738","0.0-1.0-597.0","0","0","86488","","null","","","null","66","NaN","","","","","","","","","","","","","","",""
"","S2","","html-keyboard-response","431","641000","0.0-1.0-598.0","0","0","86488","","null","","","null","66","","NaN","","","","","","","","","","","","","",""
"","response","","html-keyboard-response","432","641087","0.0-1.0-599.0","0","0","86488","","78","","","68","66","","","2","66","training","adjacent","FG","6","7","O.jpg","M.jpg","1","1","1","",""
"","feedback","","html-keyboard-response","433","642099","0.0-1.0-600.0-0.0","0","0","86488","","null","","","null","66","","","","","","","","","","","","","","","",""
"","ITI","","html-keyboard-response","434","643111","0.0-1.0-603.0","0","0","86488","","null","","","null","66","","","","","","","","","","","","","","","NaN",""
"","S1","","html-keyboard-response","435","643374","0.0-1.0-605.0","0","0","86488","","null","","","null","67","","","","","","","","","","","","","","","",""
"","ISI","","html-keyboard-response","436","645384","0.0-1.0-606.0","0","0","86488","","null","","","null","67","NaN","","","","","","","","","","","","","","",""
"","S2","","html-keyboard-response","437","645645","0.0-1.0-607.0","0","0","86488","","null","","","null","67","","NaN","","","","","","","","","","","","","",""
"","response","","html-keyboard-response","438","646250","0.0-1.0-608.0","0","0","86488","","596","","","75","67","","","2","67","training","adjacent","CD","3","4","Q.jpg","P.jpg","0","1","0","",""
"","feedback","","html-keyboard-response","439","647262","0.0-1.0-609.0-0.0","0","0","86488","","null","","","null","67","","","","","","","","","","","","","","","",""
"","time_out","","html-keyboard-response","440","649273","0.0-1.0-611.0-0.0","0","0","86488","","null","","","null","67","","","","","","","","","","","","","","","",""
"","ITI","","html-keyboard-response","441","650284","0.0-1.0-612.0","0","0","86488","","null","","","null","67","","","","","","","","","","","","","","","NaN",""
"","S1","","html-keyboard-response","442","650546","0.0-1.0-614.0","0","0","86488","","null","","","null","68","","","","","","","","","","","","","","","",""
"","ISI","","html-keyboard-response","443","652555","0.0-1.0-615.0","0","0","86488","","null","","","null","68","NaN","","","","","","","","","","","","","","",""
"","S2","","html-keyboard-response","444","652816","0.0-1.0-616.0","0","0","86488","","null","","","null","68","","NaN","","","","","","","","","","","","","",""
"","response","","html-keyboard-response","445","652934","0.0-1.0-617.0","0","0","86488","","109","","","75","68","","","2","68","training","adjacent","GF","7","6","M.jpg","O.jpg","0","0","1","",""
"","feedback","","html-keyboard-response","446","653946","0.0-1.0-618.0-0.0","0","0","86488","","null","","","null","68","","","","","","","","","","","","","","","",""
"","ITI","","html-keyboard-response","447","654957","0.0-1.0-621.0","0","0","86488","","null","","","null","68","","","","","","","","","","","","","","","NaN",""
"","S1","","html-keyboard-response","448","655222","0.0-1.0-623.0","0","0","86488","","null","","","null","69","","","","","","","","","","","","","","","",""
"","ISI","","html-keyboard-response","449","657234","0.0-1.0-624.0","0","0","86488","","null","","","null","69","NaN","","","","","","","","","","","","","","",""
"","S2","","html-keyboard-response","450","657495","0.0-1.0-625.0","0","0","86488","","null","","","null","69","","NaN","","","","","","","","","","","","","",""
"","response","","html-keyboard-response","451","657631","0.0-1.0-626.0","0","0","86488","","126","","","68","69","","","2","69","training","adjacent","BC","2","3","R.jpg","Q.jpg","1","1","1","",""
"","feedback","","html-keyboard-response","452","658643","0.0-1.0-627.0-0.0","0","0","86488","","null","","","null","69","","","","","","","","","","","","","","","",""
"","ITI","","html-keyboard-response","453","659657","0.0-1.0-630.0","0","0","86488","","null","","","null","69","","","","","","","","","","","","","","","NaN",""
"","S1","","html-keyboard-response","454","659919","0.0-1.0-632.0","0","0","86488","","null","","","null","70","","","","","","","","","","","","","","","",""
"","ISI","","html-keyboard-response","455","661930","0.0-1.0-633.0","0","0","86488","","null","","","null","70","NaN","","","","","","","","","","","","","","",""
"","S2","","html-keyboard-response","456","662192","0.0-1.0-634.0","0","0","86488","","null","","","null","70","","NaN","","","","","","","","","","","","","",""
"","response","","html-keyboard-response","457","662425","0.0-1.0-635.0","0","0","86488","","225","","","75","70","","","2","70","training","adjacent","CB","3","2","Q.jpg","R.jpg","0","0","1","",""
"","feedback","","html-keyboard-response","458","663436","0.0-1.0-636.0-0.0","0","0","86488","","null","","","null","70","","","","","","","","","","","","","","","",""
"","ITI","","html-keyboard-response","459","664447","0.0-1.0-639.0","0","0","86488","","null","","","null","70","","","","","","","","","","","","","","","NaN",""
"","S1","","html-keyboard-response","460","664708","0.0-1.0-641.0","0","0","86488","","null","","","null","71","","","","","","","","","","","","","","","",""
"","ISI","","html-keyboard-response","461","666719","0.0-1.0-642.0","0","0","86488","","null","","","null","71","NaN","","","","","","","","","","","","","","",""
"","S2","","html-keyboard-response","462","666981","0.0-1.0-643.0","0","0","86488","","null","","","null","71","","NaN","","","","","","","","","","","","","",""
"","response","","html-keyboard-response","463","667071","0.0-1.0-644.0","0","0","86488","","79","","","68","71","","","2","71","training","adjacent","FE","6","5","O.jpg","L.jpg","1","0","0","",""
"","feedback","","html-keyboard-response","464","668083","0.0-1.0-645.0-0.0","0","0","86488","","null","","","null","71","","","","","","","","","","","","","","","",""
"","time_out","","html-keyboard-response","465","670094","0.0-1.0-647.0-0.0","0","0","86488","","null","","","null","71","","","","","","","","","","","","","","","",""
"","ITI","","html-keyboard-response","466","671108","0.0-1.0-648.0","0","0","86488","","null","","","null","71","","","","","","","","","","","","","","","NaN",""
"","S1","","html-keyboard-response","467","671369","0.0-1.0-650.0","0","0","86488","","null","","","null","72","","","","","","","","","","","","","","","",""
"","ISI","","html-keyboard-response","468","673379","0.0-1.0-651.0","0","0","86488","","null","","","null","72","NaN","","","","","","","","","","","","","","",""
"","S2","","html-keyboard-response","469","673641","0.0-1.0-652.0","0","0","86488","","null","","","null","72","","NaN","","","","","","","","","","","","","",""
"","response","","html-keyboard-response","470","674020","0.0-1.0-653.0","0","0","86488","","369","","","68","72","","","2","72","training","adjacent","BC","2","3","R.jpg","Q.jpg","1","1","1","",""
"","feedback","","html-keyboard-response","471","675035","0.0-1.0-654.0-0.0","0","0","86488","","null","","","null","72","","","","","","","","","","","","","","","",""
"","ITI","","html-keyboard-response","472","676046","0.0-1.0-657.0","0","0","86488","","null","","","null","72","","","","","","","","","","","","","","","NaN",""
"","S1","","html-keyboard-response","473","676308","0.0-1.0-659.0","0","0","86488","","null","","","null","73","","","","","","","","","","","","","","","",""
"","ISI","","html-keyboard-response","474","678319","0.0-1.0-660.0","0","0","86488","","null","","","null","73","NaN","","","","","","","","","","","","","","",""
"","S2","","html-keyboard-response","475","678580","0.0-1.0-661.0","0","0","86488","","null","","","null","73","","NaN","","","","","","","","","","","","","",""
"","response","","html-keyboard-response","476","678703","0.0-1.0-662.0","0","0","86488","","111","","","75","73","","","2","73","training","adjacent","CD","3","4","Q.jpg","P.jpg","0","1","0","",""
"","feedback","","html-keyboard-response","477","679717","0.0-1.0-663.0-0.0","0","0","86488","","null","","","null","73","","","","","","","","","","","","","","","",""
"","time_out","","html-keyboard-response","478","681728","0.0-1.0-665.0-0.0","0","0","86488","","null","","","null","73","","","","","","","","","","","","","","","",""
"","ITI","","html-keyboard-response","479","682739","0.0-1.0-666.0","0","0","86488","","null","","","null","73","","","","","","","","","","","","","","","NaN",""
"","S1","","html-keyboard-response","480","683001","0.0-1.0-668.0","0","0","86488","","null","","","null","74","","","","","","","","","","","","","","","",""
"","ISI","","html-keyboard-response","481","685012","0.0-1.0-669.0","0","0","86488","","null","","","null","74","NaN","","","","","","","","","","","","","","",""
"","S2","","html-keyboard-response","482","685276","0.0-1.0-670.0","0","0","86488","","null","","","null","74","","NaN","","","","","","","","","","","","","",""
"","response","","html-keyboard-response","483","685799","0.0-1.0-671.0","0","0","86488","","513","","","75","74","","","2","74","training","adjacent","CD","3","4","Q.jpg","P.jpg","0","1","0","",""
"","feedback","","html-keyboard-response","484","686811","0.0-1.0-672.0-0.0","0","0","86488","","null","","","null","74","","","","","","","","","","","","","","","",""
"","time_out","","html-keyboard-response","485","688822","0.0-1.0-674.0-0.0","0","0","86488","","null","","","null","74","","","","","","","","","","","","","","","",""
"","ITI","","html-keyboard-response","486","689833","0.0-1.0-675.0","0","0","86488","","null","","","null","74","","","","","","","","","","","","","","","NaN",""
"","S1","","html-keyboard-response","487","690097","0.0-1.0-677.0","0","0","86488","","null","","","null","75","","","","","","","","","","","","","","","",""
"","ISI","","html-keyboard-response","488","692107","0.0-1.0-678.0","0","0","86488","","null","","","null","75","NaN","","","","","","","","","","","","","","",""
"","S2","","html-keyboard-response","489","692368","0.0-1.0-679.0","0","0","86488","","null","","","null","75","","NaN","","","","","","","","","","","","","",""
"","response","","html-keyboard-response","490","692844","0.0-1.0-680.0","0","0","86488","","465","","","75","75","","","2","75","training","adjacent","BA","2","1","R.jpg","N.jpg","0","0","1","",""
"","feedback","","html-keyboard-response","491","693858","0.0-1.0-681.0-0.0","0","0","86488","","null","","","null","75","","","","","","","","","","","","","","","",""
"","ITI","","html-keyboard-response","492","694869","0.0-1.0-684.0","0","0","86488","","null","","","null","75","","","","","","","","","","","","","","","NaN",""
"","S1","","html-keyboard-response","493","695131","0.0-1.0-686.0","0","0","86488","","null","","","null","76","","","","","","","","","","","","","","","",""
"","ISI","","html-keyboard-response","494","697141","0.0-1.0-687.0","0","0","86488","","null","","","null","76","NaN","","","","","","","","","","","","","","",""
"","S2","","html-keyboard-response","495","697403","0.0-1.0-688.0","0","0","86488","","null","","","null","76","","NaN","","","","","","","","","","","","","",""
"","response","","html-keyboard-response","496","697867","0.0-1.0-689.0","0","0","86488","","453","","","75","76","","","2","76","training","adjacent","DC","4","3","P.jpg","Q.jpg","0","0","1","",""
"","feedback","","html-keyboard-response","497","698878","0.0-1.0-690.0-0.0","0","0","86488","","null","","","null","76","","","","","","","","","","","","","","","",""
"","ITI","","html-keyboard-response","498","699890","0.0-1.0-693.0","0","0","86488","","null","","","null","76","","","","","","","","","","","","","","","NaN",""
"","S1","","html-keyboard-response","499","700152","0.0-1.0-695.0","0","0","86488","","null","","","null","77","","","","","","","","","","","","","","","",""
"","ISI","","html-keyboard-response","500","702163","0.0-1.0-696.0","0","0","86488","","null","","","null","77","NaN","","","","","","","","","","","","","","",""
"","S2","","html-keyboard-response","501","702425","0.0-1.0-697.0","0","0","86488","","null","","","null","77","","NaN","","","","","","","","","","","","","",""
"","response","","html-keyboard-response","502","702967","0.0-1.0-698.0","0","0","86488","","532","","","68","77","","","2","77","training","adjacent","ED","5","4","L.jpg","P.jpg","1","0","0","",""
"","feedback","","html-keyboard-response","503","703978","0.0-1.0-699.0-0.0","0","0","86488","","null","","","null","77","","","","","","","","","","","","","","","",""
"","time_out","","html-keyboard-response","504","705990","0.0-1.0-701.0-0.0","0","0","86488","","null","","","null","77","","","","","","","","","","","","","","","",""
"","ITI","","html-keyboard-response","505","707001","0.0-1.0-702.0","0","0","86488","","null","","","null","77","","","","","","","","","","","","","","","NaN",""
"","S1","","html-keyboard-response","506","707263","0.0-1.0-704.0","0","0","86488","","null","","","null","78","","","","","","","","","","","","","","","",""
"","ISI","","html-keyboard-response","507","709273","0.0-1.0-705.0","0","0","86488","","null","","","null","78","NaN","","","","","","","","","","","","","","",""
"","S2","","html-keyboard-response","508","709535","0.0-1.0-706.0","0","0","86488","","null","","","null","78","","NaN","","","","","","","","","","","","","",""
"","response","","html-keyboard-response","509","710063","0.0-1.0-707.0","0","0","86488","","516","","","75","78","","","2","78","training","adjacent","GF","7","6","M.jpg","O.jpg","0","0","1","",""
"","feedback","","html-keyboard-response","510","711074","0.0-1.0-708.0-0.0","0","0","86488","","null","","","null","78","","","","","","","","","","","","","","","",""
"","ITI","","html-keyboard-response","511","712090","0.0-1.0-711.0","0","0","86488","","null","","","null","78","","","","","","","","","","","","","","","NaN",""
"","S1","","html-keyboard-response","512","712352","0.0-1.0-713.0","0","0","86488","","null","","","null","79","","","","","","","","","","","","","","","",""
"","ISI","","html-keyboard-response","513","714363","0.0-1.0-714.0","0","0","86488","","null","","","null","79","NaN","","","","","","","","","","","","","","",""
"","S2","","html-keyboard-response","514","714625","0.0-1.0-715.0","0","0","86488","","null","","","null","79","","NaN","","","","","","","","","","","","","",""
"","response","","html-keyboard-response","515","715206","0.0-1.0-716.0","0","0","86488","","571","","","68","79","","","2","79","training","adjacent","BC","2","3","R.jpg","Q.jpg","1","1","1","",""
"","feedback","","html-keyboard-response","516","716218","0.0-1.0-717.0-0.0","0","0","86488","","null","","","null","79","","","","","","","","","","","","","","","",""
"","ITI","","html-keyboard-response","517","717230","0.0-1.0-720.0","0","0","86488","","null","","","null","79","","","","","","","","","","","","","","","NaN",""
"","S1","","html-keyboard-response","518","717494","0.0-1.0-722.0","0","0","86488","","null","","","null","80","","","","","","","","","","","","","","","",""
"","ISI","","html-keyboard-response","519","719505","0.0-1.0-723.0","0","0","86488","","null","","","null","80","NaN","","","","","","","","","","","","","","",""
"","S2","","html-keyboard-response","520","719766","0.0-1.0-724.0","0","0","86488","","null","","","null","80","","NaN","","","","","","","","","","","","","",""
"","response","","html-keyboard-response","521","720223","0.0-1.0-725.0","0","0","86488","","446","","","75","80","","","2","80","training","adjacent","AB","1","2","N.jpg","R.jpg","0","1","0","",""
"","feedback","","html-keyboard-response","522","721237","0.0-1.0-726.0-0.0","0","0","86488","","null","","","null","80","","","","","","","","","","","","","","","",""
"","time_out","","html-keyboard-response","523","723249","0.0-1.0-728.0-0.0","0","0","86488","","null","","","null","80","","","","","","","","","","","","","","","",""
"","ITI","","html-keyboard-response","524","724260","0.0-1.0-729.0","0","0","86488","","null","","","null","80","","","","","","","","","","","","","","","NaN",""
"","S1","","html-keyboard-response","525","724522","0.0-1.0-731.0","0","0","86488","","null","","","null","81","","","","","","","","","","","","","","","",""
"","ISI","","html-keyboard-response","526","726533","0.0-1.0-732.0","0","0","86488","","null","","","null","81","NaN","","","","","","","","","","","","","","",""
"","S2","","html-keyboard-response","527","726795","0.0-1.0-733.0","0","0","86488","","null","","","null","81","","NaN","","","","","","","","","","","","","",""
"","response","","html-keyboard-response","528","727247","0.0-1.0-734.0","0","0","86488","","441","","","75","81","","","2","81","training","adjacent","AB","1","2","N.jpg","R.jpg","0","1","0","",""
"","feedback","","html-keyboard-response","529","728259","0.0-1.0-735.0-0.0","0","0","86488","","null","","","null","81","","","","","","","","","","","","","","","",""
"","time_out","","html-keyboard-response","530","730271","0.0-1.0-737.0-0.0","0","0","86488","","null","","","null","81","","","","","","","","","","","","","","","",""
"","ITI","","html-keyboard-response","531","731282","0.0-1.0-738.0","0","0","86488","","null","","","null","81","","","","","","","","","","","","","","","NaN",""
"","S1","","html-keyboard-response","532","731544","0.0-1.0-740.0","0","0","86488","","null","","","null","82","","","","","","","","","","","","","","","",""
"","ISI","","html-keyboard-response","533","733555","0.0-1.0-741.0","0","0","86488","","null","","","null","82","NaN","","","","","","","","","","","","","","",""
"","S2","","html-keyboard-response","534","733817","0.0-1.0-742.0","0","0","86488","","null","","","null","82","","NaN","","","","","","","","","","","","","",""
"","response","","html-keyboard-response","535","734280","0.0-1.0-743.0","0","0","86488","","455","","","75","82","","","2","82","training","adjacent","BA","2","1","R.jpg","N.jpg","0","0","1","",""
"","feedback","","html-keyboard-response","536","735290","0.0-1.0-744.0-0.0","0","0","86488","","null","","","null","82","","","","","","","","","","","","","","","",""
"","ITI","","html-keyboard-response","537","736302","0.0-1.0-747.0","0","0","86488","","null","","","null","82","","","","","","","","","","","","","","","NaN",""
"","S1","","html-keyboard-response","538","736565","0.0-1.0-749.0","0","0","86488","","null","","","null","83","","","","","","","","","","","","","","","",""
"","ISI","","html-keyboard-response","539","738581","0.0-1.0-750.0","0","0","86488","","null","","","null","83","NaN","","","","","","","","","","","","","","",""
"","S2","","html-keyboard-response","540","738843","0.0-1.0-751.0","0","0","86488","","null","","","null","83","","NaN","","","","","","","","","","","","","",""
"","response","","html-keyboard-response","541","739385","0.0-1.0-752.0","0","0","86488","","530","","","68","83","","","2","83","training","adjacent","FG","6","7","O.jpg","M.jpg","1","1","1","",""
"","feedback","","html-keyboard-response","542","740397","0.0-1.0-753.0-0.0","0","0","86488","","null","","","null","83","","","","","","","","","","","","","","","",""
"","ITI","","html-keyboard-response","543","741409","0.0-1.0-756.0","0","0","86488","","null","","","null","83","","","","","","","","","","","","","","","NaN",""
"","S1","","html-keyboard-response","544","741672","0.0-1.0-758.0","0","0","86488","","null","","","null","84","","","","","","","","","","","","","","","",""
"","ISI","","html-keyboard-response","545","743682","0.0-1.0-759.0","0","0","86488","","null","","","null","84","NaN","","","","","","","","","","","","","","",""
"","S2","","html-keyboard-response","546","743945","0.0-1.0-760.0","0","0","86488","","null","","","null","84","","NaN","","","","","","","","","","","","","",""
"","response","","html-keyboard-response","547","744343","0.0-1.0-761.0","0","0","86488","","385","","","75","84","","","2","84","training","adjacent","BA","2","1","R.jpg","N.jpg","0","0","1","",""
"","feedback","","html-keyboard-response","548","745357","0.0-1.0-762.0-0.0","0","0","86488","","null","","","null","84","","","","","","","","","","","","","","","",""
"","ITI","","html-keyboard-response","549","746371","0.0-1.0-765.0","0","0","86488","","null","","","null","84","","","","","","","","","","","","","","","NaN",""
"","S1","","html-keyboard-response","550","746633","0.0-1.0-767.0","0","0","86488","","null","","","null","85","","","","","","","","","","","","","","","",""
"","ISI","","html-keyboard-response","551","748644","0.0-1.0-768.0","0","0","86488","","null","","","null","85","NaN","","","","","","","","","","","","","","",""
"","S2","","html-keyboard-response","552","748905","0.0-1.0-769.0","0","0","86488","","null","","","null","85","","NaN","","","","","","","","","","","","","",""
"","response","","html-keyboard-response","553","749517","0.0-1.0-770.0","0","0","86488","","600","","","68","85","","","2","85","training","adjacent","CB","3","2","Q.jpg","R.jpg","1","0","0","",""
"","feedback","","html-keyboard-response","554","750529","0.0-1.0-771.0-0.0","0","0","86488","","null","","","null","85","","","","","","","","","","","","","","","",""
"","time_out","","html-keyboard-response","555","752541","0.0-1.0-773.0-0.0","0","0","86488","","null","","","null","85","","","","","","","","","","","","","","","",""
"","ITI","","html-keyboard-response","556","753552","0.0-1.0-774.0","0","0","86488","","null","","","null","85","","","","","","","","","","","","","","","NaN",""
"","S1","","html-keyboard-response","557","753815","0.0-1.0-776.0","0","0","86488","","null","","","null","86","","","","","","","","","","","","","","","",""
"","ISI","","html-keyboard-response","558","755826","0.0-1.0-777.0","0","0","86488","","null","","","null","86","NaN","","","","","","","","","","","","","","",""
"","S2","","html-keyboard-response","559","756088","0.0-1.0-778.0","0","0","86488","","null","","","null","86","","NaN","","","","","","","","","","","","","",""
"","response","","html-keyboard-response","560","756256","0.0-1.0-779.0","0","0","86488","","156","","","75","86","","","2","86","training","adjacent","BA","2","1","R.jpg","N.jpg","0","0","1","",""
"","feedback","","html-keyboard-response","561","757268","0.0-1.0-780.0-0.0","0","0","86488","","null","","","null","86","","","","","","","","","","","","","","","",""
"","ITI","","html-keyboard-response","562","758280","0.0-1.0-783.0","0","0","86488","","null","","","null","86","","","","","","","","","","","","","","","NaN",""
"","S1","","html-keyboard-response","563","758543","0.0-1.0-785.0","0","0","86488","","null","","","null","87","","","","","","","","","","","","","","","",""
"","ISI","","html-keyboard-response","564","760553","0.0-1.0-786.0","0","0","86488","","null","","","null","87","NaN","","","","","","","","","","","","","","",""
"","S2","","html-keyboard-response","565","760820","0.0-1.0-787.0","0","0","86488","","null","","","null","87","","NaN","","","","","","","","","","","","","",""
"","response","","html-keyboard-response","566","761705","0.0-1.0-788.0","0","0","86488","","874","","","75","87","","","2","87","training","adjacent","DC","4","3","P.jpg","Q.jpg","0","0","1","",""
"","feedback","","html-keyboard-response","567","762717","0.0-1.0-789.0-0.0","0","0","86488","","null","","","null","87","","","","","","","","","","","","","","","",""
"","ITI","","html-keyboard-response","568","763729","0.0-1.0-792.0","0","0","86488","","null","","","null","87","","","","","","","","","","","","","","","NaN",""
"","S1","","html-keyboard-response","569","763992","0.0-1.0-794.0","0","0","86488","","null","","","null","88","","","","","","","","","","","","","","","",""
"","ISI","","html-keyboard-response","570","766003","0.0-1.0-795.0","0","0","86488","","null","","","null","88","NaN","","","","","","","","","","","","","","",""
"","S2","","html-keyboard-response","571","766266","0.0-1.0-796.0","0","0","86488","","null","","","null","88","","NaN","","","","","","","","","","","","","",""
"","response","","html-keyboard-response","572","766950","0.0-1.0-797.0","0","0","86488","","674","","","75","88","","","2","88","training","adjacent","GF","7","6","M.jpg","O.jpg","0","0","1","",""
"","feedback","","html-keyboard-response","573","767963","0.0-1.0-798.0-0.0","0","0","86488","","null","","","null","88","","","","","","","","","","","","","","","",""
"","ITI","","html-keyboard-response","574","768975","0.0-1.0-801.0","0","0","86488","","null","","","null","88","","","","","","","","","","","","","","","NaN",""
"","S1","","html-keyboard-response","575","769236","0.0-1.0-803.0","0","0","86488","","null","","","null","89","","","","","","","","","","","","","","","",""
"","ISI","","html-keyboard-response","576","771247","0.0-1.0-804.0","0","0","86488","","null","","","null","89","NaN","","","","","","","","","","","","","","",""
"","S2","","html-keyboard-response","577","771509","0.0-1.0-805.0","0","0","86488","","null","","","null","89","","NaN","","","","","","","","","","","","","",""
"","response","","html-keyboard-response","578","772088","0.0-1.0-806.0","0","0","86488","","568","","","75","89","","","2","89","training","adjacent","DC","4","3","P.jpg","Q.jpg","0","0","1","",""
"","feedback","","html-keyboard-response","579","773100","0.0-1.0-807.0-0.0","0","0","86488","","null","","","null","89","","","","","","","","","","","","","","","",""
"","ITI","","html-keyboard-response","580","774111","0.0-1.0-810.0","0","0","86488","","null","","","null","89","","","","","","","","","","","","","","","NaN",""
"","S1","","html-keyboard-response","581","774373","0.0-1.0-812.0","0","0","86488","","null","","","null","90","","","","","","","","","","","","","","","",""
"","ISI","","html-keyboard-response","582","776384","0.0-1.0-813.0","0","0","86488","","null","","","null","90","NaN","","","","","","","","","","","","","","",""
"","S2","","html-keyboard-response","583","776646","0.0-1.0-814.0","0","0","86488","","null","","","null","90","","NaN","","","","","","","","","","","","","",""
"","response","","html-keyboard-response","584","777334","0.0-1.0-815.0","0","0","86488","","678","","","68","90","","","2","90","training","adjacent","DE","4","5","P.jpg","L.jpg","1","1","1","",""
