"success","ttype","start_time","trial_type","trial_index","time_elapsed","internal_node_id","warning","missed_checkup","PID","view_history","rt","responses","repeat_instructions","key_press","index","keypress_isi","keypress_S2","block","trial_num","phase","group_type","pair_type","S1_stim","S2_stim","S1_img","S2_img","S1_chosen","S1_higher","accuracy","keypress_iti","total_bonus_tally"
"true","full_screen","d03072023hr1749","fullscreen","0","23016","0.0-0.0","0","0","21881","","","","","","","","","","","","","","","","","","","","","",""
"","instructions","","instructions","1","147922","0.0-1.0-0.0-0.0","0","0","21881","[{""page_index"":0,""viewing_time"":27876},{""page_index"":1,""viewing_time"":59704},{""page_index"":2,""viewing_time"":32843},{""page_index"":3,""viewing_time"":4477}]","124901","","","","","","","","","","","","","","","","","","","",""
"","comprehension_check","","survey-multi-choice","2","200849","0.0-1.0-0.0-1.0","0","0","21881","","52923","{""Q0"":""True"",""Q1"":""K"",""Q2"":""Once the second image appears and while the screen 'MAKE A CHOICE' is shown"",""Q3"":""Green mark"",""Q4"":""either D or K""}","0","","","","","","","","","","","","","","","","","",""
"","start_exp","","html-keyboard-response","3","206924","0.0-1.0-1.0","0","0","21881","","6067","","","32","","","","","","","","","","","","","","","","",""
"","S1","","html-keyboard-response","4","207186","0.0-1.0-2.0","0","0","21881","","null","","","null","0","","","","","","","","","","","","","","","",""
"","ISI","","html-keyboard-response","5","208189","0.0-1.0-3.0","0","0","21881","","null","","","null","0","NaN","","","","","","","","","","","","","","",""
"","S2","","html-keyboard-response","6","208452","0.0-1.0-4.0","0","0","21881","","null","","","null","0","","NaN","","","","","","","","","","","","","",""
"","response","","html-keyboard-response","7","209336","0.0-1.0-5.0-0.0","0","0","21881","","881","","","75","0","","","1","0","training","adjacent","CB","3","2","N.jpg","L.jpg","1","0","0","",""
"","feedback","","html-keyboard-response","8","210346","0.0-1.0-6.0-0.0","0","0","21881","","null","","","null","0","","","","","","","","","","","","","","","",""
"","time_out","","html-keyboard-response","9","212351","0.0-1.0-8.0-0.0","0","0","21881","","null","","","null","0","","","","","","","","","","","","","","","",""
"","ITI","","html-keyboard-response","10","213363","0.0-1.0-9.0","0","0","21881","","null","","","null","0","","","","","","","","","","","","","","","NaN",""
"","S1","","html-keyboard-response","11","213632","0.0-1.0-11.0","0","0","21881","","null","","","null","1","","","","","","","","","","","","","","","",""
"","ISI","","html-keyboard-response","12","214644","0.0-1.0-12.0","0","0","21881","","null","","","null","1","NaN","","","","","","","","","","","","","","",""
"","S2","","html-keyboard-response","13","214907","0.0-1.0-13.0","0","0","21881","","null","","","null","1","","NaN","","","","","","","","","","","","","",""
"","response","","html-keyboard-response","14","215354","0.0-1.0-14.0-0.0","0","0","21881","","443","","","68","1","","","1","1","training","adjacent","BA","2","1","L.jpg","P.jpg","0","0","1","",""
"","feedback","","html-keyboard-response","15","216373","0.0-1.0-15.0-0.0","0","0","21881","","null","","","null","1","","","","","","","","","","","","","","","",""
"","ITI","","html-keyboard-response","16","217381","0.0-1.0-18.0","0","0","21881","","null","","","null","1","","","","","","","","","","","","","","","NaN",""
"","S1","","html-keyboard-response","17","217639","0.0-1.0-20.0","0","0","21881","","null","","","null","2","","","","","","","","","","","","","","","",""
"","ISI","","html-keyboard-response","18","218654","0.0-1.0-21.0","0","0","21881","","null","","","null","2","NaN","","","","","","","","","","","","","","",""
"","S2","","html-keyboard-response","19","218918","0.0-1.0-22.0","0","0","21881","","null","","","null","2","","NaN","","","","","","","","","","","","","",""
"","response","","html-keyboard-response","20","219804","0.0-1.0-23.0-0.0","0","0","21881","","883","","","68","2","","","1","2","training","adjacent","AB","1","2","P.jpg","L.jpg","0","1","0","",""
"","feedback","","html-keyboard-response","21","220813","0.0-1.0-24.0-0.0","0","0","21881","","null","","","null","2","","","","","","","","","","","","","","","",""
"","time_out","","html-keyboard-response","22","222817","0.0-1.0-26.0-0.0","0","0","21881","","null","","","null","2","","","","","","","","","","","","","","","",""
"","ITI","","html-keyboard-response","23","223832","0.0-1.0-27.0","0","0","21881","","null","","","null","2","","","","","","","","","","","","","","","NaN",""
"","S1","","html-keyboard-response","24","224087","0.0-1.0-29.0","0","0","21881","","null","","","null","3","","","","","","","","","","","","","","","",""
"","ISI","","html-keyboard-response","25","225094","0.0-1.0-30.0","0","0","21881","","null","","","null","3","NaN","","","","","","","","","","","","","","",""
"","S2","","html-keyboard-response","26","225353","0.0-1.0-31.0","0","0","21881","","null","","","null","3","","NaN","","","","","","","","","","","","","",""
"","response","","html-keyboard-response","27","226230","0.0-1.0-32.0-0.0","0","0","21881","","873","","","75","3","","","1","3","training","adjacent","DE","4","5","Q.jpg","R.jpg","1","1","1","",""
"","feedback","","html-keyboard-response","28","227247","0.0-1.0-33.0-0.0","0","0","21881","","null","","","null","3","","","","","","","","","","","","","","","",""
"","ITI","","html-keyboard-response","29","228258","0.0-1.0-36.0","0","0","21881","","null","","","null","3","","","","","","","","","","","","","","","NaN",""
"","S1","","html-keyboard-response","30","228523","0.0-1.0-38.0","0","0","21881","","null","","","null","4","","","","","","","","","","","","","","","",""
"","ISI","","html-keyboard-response","31","229527","0.0-1.0-39.0","0","0","21881","","null","","","null","4","NaN","","","","","","","","","","","","","","",""
"","S2","","html-keyboard-response","32","229784","0.0-1.0-40.0","0","0","21881","","null","","","null","4","","NaN","","","","","","","","","","","","","",""
"","response","","html-keyboard-response","33","230651","0.0-1.0-41.0-0.0","0","0","21881","","864","","","75","4","","","1","4","training","adjacent","BA","2","1","L.jpg","P.jpg","1","0","0","",""
"","feedback","","html-keyboard-response","34","231664","0.0-1.0-42.0-0.0","0","0","21881","","null","","","null","4","","","","","","","","","","","","","","","",""
"","time_out","","html-keyboard-response","35","233678","0.0-1.0-44.0-0.0","0","0","21881","","null","","","null","4","","","","","","","","","","","","","","","",""
"","ITI","","html-keyboard-response","36","234696","0.0-1.0-45.0","0","0","21881","","null","","","null","4","","","","","","","","","","","","","","","NaN",""
"","S1","","html-keyboard-response","37","234954","0.0-1.0-47.0","0","0","21881","","null","","","null","5","","","","","","","","","","","","","","","",""
"","ISI","","html-keyboard-response","38","235967","0.0-1.0-48.0","0","0","21881","","null","","","null","5","NaN","","","","","","","","","","","","","","",""
"","S2","","html-keyboard-response","39","236233","0.0-1.0-49.0","0","0","21881","","null","","","null","5","","NaN","","","","","","","","","","","","","",""
"","response","","html-keyboard-response","40","236815","0.0-1.0-50.0-0.0","0","0","21881","","578","","","68","5","","","1","5","training","adjacent","BC","2","3","L.jpg","N.jpg","0","1","0","",""
"","feedback","","html-keyboard-response","41","237829","0.0-1.0-51.0-0.0","0","0","21881","","null","","","null","5","","","","","","","","","","","","","","","",""
"","time_out","","html-keyboard-response","42","239838","0.0-1.0-53.0-0.0","0","0","21881","","null","","","null","5","","","","","","","","","","","","","","","",""
"","ITI","","html-keyboard-response","43","240853","0.0-1.0-54.0","0","0","21881","","null","","","null","5","","","","","","","","","","","","","","","NaN",""
"","S1","","html-keyboard-response","44","241119","0.0-1.0-56.0","0","0","21881","","null","","","null","6","","","","","","","","","","","","","","","",""
"","ISI","","html-keyboard-response","45","242134","0.0-1.0-57.0","0","0","21881","","null","","","null","6","NaN","","","","","","","","","","","","","","",""
"","S2","","html-keyboard-response","46","242397","0.0-1.0-58.0","0","0","21881","","null","","","null","6","","NaN","","","","","","","","","","","","","",""
"","response","","html-keyboard-response","47","243017","0.0-1.0-59.0-0.0","0","0","21881","","617","","","75","6","","","1","6","training","adjacent","ED","5","4","R.jpg","Q.jpg","1","0","0","",""
"","feedback","","html-keyboard-response","48","244036","0.0-1.0-60.0-0.0","0","0","21881","","null","","","null","6","","","","","","","","","","","","","","","",""
"","time_out","","html-keyboard-response","49","246049","0.0-1.0-62.0-0.0","0","0","21881","","null","","","null","6","","","","","","","","","","","","","","","",""
"","ITI","","html-keyboard-response","50","247055","0.0-1.0-63.0","0","0","21881","","null","","","null","6","","","","","","","","","","","","","","","NaN",""
"","S1","","html-keyboard-response","51","247313","0.0-1.0-65.0","0","0","21881","","null","","","null","7","","","","","","","","","","","","","","","",""
"","ISI","","html-keyboard-response","52","248323","0.0-1.0-66.0","0","0","21881","","null","","","null","7","NaN","","","","","","","","","","","","","","",""
"","S2","","html-keyboard-response","53","248578","0.0-1.0-67.0","0","0","21881","","null","","","null","7","","NaN","","","","","","","","","","","","","",""
"","response","","html-keyboard-response","54","250140","0.0-1.0-68.0-0.0","0","0","21881","","1559","","","68","7","","","1","7","training","adjacent","GF","7","6","O.jpg","M.jpg","0","0","1","",""
"","feedback","","html-keyboard-response","55","251156","0.0-1.0-69.0-0.0","0","0","21881","","null","","","null","7","","","","","","","","","","","","","","","",""
"","ITI","","html-keyboard-response","56","252171","0.0-1.0-72.0","0","0","21881","","null","","","null","7","","","","","","","","","","","","","","","NaN",""
"","S1","","html-keyboard-response","57","252427","0.0-1.0-74.0","0","0","21881","","null","","","null","8","","","","","","","","","","","","","","","",""
"","ISI","","html-keyboard-response","58","253435","0.0-1.0-75.0","0","0","21881","","null","","","null","8","NaN","","","","","","","","","","","","","","",""
"","S2","","html-keyboard-response","59","253703","0.0-1.0-76.0","0","0","21881","","null","","","null","8","","NaN","","","","","","","","","","","","","",""
"","response","","html-keyboard-response","60","253999","0.0-1.0-77.0-0.0","0","0","21881","","292","","","75","8","","","1","8","training","adjacent","EF","5","6","R.jpg","M.jpg","1","1","1","",""
"","feedback","","html-keyboard-response","61","255007","0.0-1.0-78.0-0.0","0","0","21881","","null","","","null","8","","","","","","","","","","","","","","","",""
"","ITI","","html-keyboard-response","62","256019","0.0-1.0-81.0","0","0","21881","","null","","","null","8","","","","","","","","","","","","","","","NaN",""
"","S1","","html-keyboard-response","63","256287","0.0-1.0-83.0","0","0","21881","","null","","","null","9","","","","","","","","","","","","","","","",""
"","ISI","","html-keyboard-response","64","257302","0.0-1.0-84.0","0","0","21881","","null","","","null","9","NaN","","","","","","","","","","","","","","",""
"","S2","","html-keyboard-response","65","257572","0.0-1.0-85.0","0","0","21881","","null","","","null","9","","NaN","","","","","","","","","","","","","",""
"","response","","html-keyboard-response","66","258177","0.0-1.0-86.0-0.0","0","0","21881","","602","","","75","9","","","1","9","training","adjacent","FE","6","5","M.jpg","R.jpg","1","0","0","",""
"","feedback","","html-keyboard-response","67","259185","0.0-1.0-87.0-0.0","0","0","21881","","null","","","null","9","","","","","","","","","","","","","","","",""
"","time_out","","html-keyboard-response","68","261200","0.0-1.0-89.0-0.0","0","0","21881","","null","","","null","9","","","","","","","","","","","","","","","",""
"","ITI","","html-keyboard-response","69","262204","0.0-1.0-90.0","0","0","21881","","null","","","null","9","","","","","","","","","","","","","","","NaN",""
"","S1","","html-keyboard-response","70","262471","0.0-1.0-92.0","0","0","21881","","null","","","null","10","","","","","","","","","","","","","","","",""
"","ISI","","html-keyboard-response","71","263482","0.0-1.0-93.0","0","0","21881","","null","","","null","10","NaN","","","","","","","","","","","","","","",""
"","S2","","html-keyboard-response","72","263750","0.0-1.0-94.0","0","0","21881","","null","","","null","10","","NaN","","","","","","","","","","","","","",""
"","response","","html-keyboard-response","73","264615","0.0-1.0-95.0-0.0","0","0","21881","","861","","","75","10","","","1","10","training","adjacent","FE","6","5","M.jpg","R.jpg","1","0","0","",""
"","feedback","","html-keyboard-response","74","265625","0.0-1.0-96.0-0.0","0","0","21881","","null","","","null","10","","","","","","","","","","","","","","","",""
"","time_out","","html-keyboard-response","75","267637","0.0-1.0-98.0-0.0","0","0","21881","","null","","","null","10","","","","","","","","","","","","","","","",""
"","ITI","","html-keyboard-response","76","268647","0.0-1.0-99.0","0","0","21881","","null","","","null","10","","","","","","","","","","","","","","","NaN",""
"","S1","","html-keyboard-response","77","268910","0.0-1.0-101.0","0","0","21881","","null","","","null","11","","","","","","","","","","","","","","","",""
"","ISI","","html-keyboard-response","78","269920","0.0-1.0-102.0","0","0","21881","","null","","","null","11","NaN","","","","","","","","","","","","","","",""
"","S2","","html-keyboard-response","79","270179","0.0-1.0-103.0","0","0","21881","","null","","","null","11","","NaN","","","","","","","","","","","","","",""
"","response","","html-keyboard-response","80","271186","0.0-1.0-104.0-0.0","0","0","21881","","1004","","","75","11","","","1","11","training","adjacent","DC","4","3","Q.jpg","N.jpg","1","0","0","",""
"","feedback","","html-keyboard-response","81","272193","0.0-1.0-105.0-0.0","0","0","21881","","null","","","null","11","","","","","","","","","","","","","","","",""
"","time_out","","html-keyboard-response","82","274196","0.0-1.0-107.0-0.0","0","0","21881","","null","","","null","11","","","","","","","","","","","","","","","",""
"","ITI","","html-keyboard-response","83","275211","0.0-1.0-108.0","0","0","21881","","null","","","null","11","","","","","","","","","","","","","","","NaN",""
"","S1","","html-keyboard-response","84","275479","0.0-1.0-110.0","0","0","21881","","null","","","null","12","","","","","","","","","","","","","","","",""
"","ISI","","html-keyboard-response","85","276498","0.0-1.0-111.0","0","0","21881","","null","","","null","12","NaN","","","","","","","","","","","","","","",""
"","S2","","html-keyboard-response","86","276756","0.0-1.0-112.0","0","0","21881","","null","","","null","12","","NaN","","","","","","","","","","","","","",""
"","response","","html-keyboard-response","87","277532","0.0-1.0-113.0-0.0","0","0","21881","","774","","","75","12","","","1","12","training","adjacent","EF","5","6","R.jpg","M.jpg","1","1","1","",""
"","feedback","","html-keyboard-response","88","278549","0.0-1.0-114.0-0.0","0","0","21881","","null","","","null","12","","","","","","","","","","","","","","","",""
"","ITI","","html-keyboard-response","89","279558","0.0-1.0-117.0","0","0","21881","","null","","","null","12","","","","","","","","","","","","","","","NaN",""
"","S1","","html-keyboard-response","90","279816","0.0-1.0-119.0","0","0","21881","","null","","","null","13","","","","","","","","","","","","","","","",""
"","ISI","","html-keyboard-response","91","280835","0.0-1.0-120.0","0","0","21881","","null","","","null","13","NaN","","","","","","","","","","","","","","",""
"","S2","","html-keyboard-response","92","281096","0.0-1.0-121.0","0","0","21881","","null","","","null","13","","NaN","","","","","","","","","","","","","",""
"","response","","html-keyboard-response","93","281892","0.0-1.0-122.0-0.0","0","0","21881","","794","","","68","13","","","1","13","training","adjacent","CD","3","4","N.jpg","Q.jpg","0","1","0","",""
"","feedback","","html-keyboard-response","94","282907","0.0-1.0-123.0-0.0","0","0","21881","","null","","","null","13","","","","","","","","","","","","","","","",""
"","time_out","","html-keyboard-response","95","284921","0.0-1.0-125.0-0.0","0","0","21881","","null","","","null","13","","","","","","","","","","","","","","","",""
"","ITI","","html-keyboard-response","96","285936","0.0-1.0-126.0","0","0","21881","","null","","","null","13","","","","","","","","","","","","","","","NaN",""
"","S1","","html-keyboard-response","97","286198","0.0-1.0-128.0","0","0","21881","","null","","","null","14","","","","","","","","","","","","","","","",""
"","ISI","","html-keyboard-response","98","287207","0.0-1.0-129.0","0","0","21881","","null","","","null","14","NaN","","","","","","","","","","","","","","",""
"","S2","","html-keyboard-response","99","287462","0.0-1.0-130.0","0","0","21881","","null","","","null","14","","NaN","","","","","","","","","","","","","",""
"","response","","html-keyboard-response","100","287799","0.0-1.0-131.0-0.0","0","0","21881","","334","","","75","14","","","1","14","training","adjacent","BA","2","1","L.jpg","P.jpg","1","0","0","",""
"","feedback","","html-keyboard-response","101","288806","0.0-1.0-132.0-0.0","0","0","21881","","null","","","null","14","","","","","","","","","","","","","","","",""
"","time_out","","html-keyboard-response","102","290818","0.0-1.0-134.0-0.0","0","0","21881","","null","","","null","14","","","","","","","","","","","","","","","",""
"","ITI","","html-keyboard-response","103","291824","0.0-1.0-135.0","0","0","21881","","null","","","null","14","","","","","","","","","","","","","","","NaN",""
"","S1","","html-keyboard-response","104","292092","0.0-1.0-137.0","0","0","21881","","null","","","null","15","","","","","","","","","","","","","","","",""
"","ISI","","html-keyboard-response","105","293103","0.0-1.0-138.0","0","0","21881","","null","","","null","15","NaN","","","","","","","","","","","","","","",""
"","S2","","html-keyboard-response","106","293370","0.0-1.0-139.0","0","0","21881","","null","","","null","15","","NaN","","","","","","","","","","","","","",""
"","response","","html-keyboard-response","107","294309","0.0-1.0-140.0-0.0","0","0","21881","","936","","","68","15","","","1","15","training","adjacent","DC","4","3","Q.jpg","N.jpg","0","0","1","",""
"","feedback","","html-keyboard-response","108","295325","0.0-1.0-141.0-0.0","0","0","21881","","null","","","null","15","","","","","","","","","","","","","","","",""
"","ITI","","html-keyboard-response","109","296331","0.0-1.0-144.0","0","0","21881","","null","","","null","15","","","","","","","","","","","","","","","NaN",""
"","S1","","html-keyboard-response","110","296598","0.0-1.0-146.0","0","0","21881","","null","","","null","16","","","","","","","","","","","","","","","",""
"","ISI","","html-keyboard-response","111","297604","0.0-1.0-147.0","0","0","21881","","null","","","null","16","NaN","","","","","","","","","","","","","","",""
"","S2","","html-keyboard-response","112","297862","0.0-1.0-148.0","0","0","21881","","null","","","null","16","","NaN","","","","","","","","","","","","","",""
"","response","","html-keyboard-response","113","298259","0.0-1.0-149.0-0.0","0","0","21881","","393","","","75","16","","","1","16","training","adjacent","GF","7","6","O.jpg","M.jpg","1","0","0","",""
"","feedback","","html-keyboard-response","114","299264","0.0-1.0-150.0-0.0","0","0","21881","","null","","","null","16","","","","","","","","","","","","","","","",""
"","time_out","","html-keyboard-response","115","301279","0.0-1.0-152.0-0.0","0","0","21881","","null","","","null","16","","","","","","","","","","","","","","","",""
"","ITI","","html-keyboard-response","116","302285","0.0-1.0-153.0","0","0","21881","","null","","","null","16","","","","","","","","","","","","","","","NaN",""
"","S1","","html-keyboard-response","117","302540","0.0-1.0-155.0","0","0","21881","","null","","","null","17","","","","","","","","","","","","","","","",""
"","ISI","","html-keyboard-response","118","303556","0.0-1.0-156.0","0","0","21881","","null","","","null","17","NaN","","","","","","","","","","","","","","",""
"","S2","","html-keyboard-response","119","303814","0.0-1.0-157.0","0","0","21881","","null","","","null","17","","NaN","","","","","","","","","","","","","",""
"","response","","html-keyboard-response","120","304975","0.0-1.0-158.0-0.0","0","0","21881","","1157","","","68","17","","","1","17","training","adjacent","CB","3","2","N.jpg","L.jpg","0","0","1","",""
"","feedback","","html-keyboard-response","121","305994","0.0-1.0-159.0-0.0","0","0","21881","","null","","","null","17","","","","","","","","","","","","","","","",""
"","ITI","","html-keyboard-response","122","307001","0.0-1.0-162.0","0","0","21881","","null","","","null","17","","","","","","","","","","","","","","","NaN",""
"","S1","","html-keyboard-response","123","307267","0.0-1.0-164.0","0","0","21881","","null","","","null","18","","","","","","","","","","","","","","","",""
"","ISI","","html-keyboard-response","124","308274","0.0-1.0-165.0","0","0","21881","","null","","","null","18","NaN","","","","","","","","","","","","","","",""
"","S2","","html-keyboard-response","125","308543","0.0-1.0-166.0","0","0","21881","","null","","","null","18","","NaN","","","","","","","","","","","","","",""
"","response","","html-keyboard-response","126","309490","0.0-1.0-167.0-0.0","0","0","21881","","943","","","75","18","","","1","18","training","adjacent","FG","6","7","M.jpg","O.jpg","1","1","1","",""
"","feedback","","html-keyboard-response","127","310495","0.0-1.0-168.0-0.0","0","0","21881","","null","","","null","18","","","","","","","","","","","","","","","",""
"","ITI","","html-keyboard-response","128","311505","0.0-1.0-171.0","0","0","21881","","null","","","null","18","","","","","","","","","","","","","","","NaN",""
"","S1","","html-keyboard-response","129","311772","0.0-1.0-173.0","0","0","21881","","null","","","null","19","","","","","","","","","","","","","","","",""
"","ISI","","html-keyboard-response","130","312791","0.0-1.0-174.0","0","0","21881","","null","","","null","19","NaN","","","","","","","","","","","","","","",""
"","S2","","html-keyboard-response","131","313050","0.0-1.0-175.0","0","0","21881","","null","","","null","19","","NaN","","","","","","","","","","","","","",""
"","response","","html-keyboard-response","132","314414","0.0-1.0-176.0-0.0","0","0","21881","","1362","","","75","19","","","1","19","training","adjacent","AB","1","2","P.jpg","L.jpg","1","1","1","",""
"","feedback","","html-keyboard-response","133","315419","0.0-1.0-177.0-0.0","0","0","21881","","null","","","null","19","","","","","","","","","","","","","","","",""
"","ITI","","html-keyboard-response","134","316437","0.0-1.0-180.0","0","0","21881","","null","","","null","19","","","","","","","","","","","","","","","NaN",""
"","S1","","html-keyboard-response","135","316704","0.0-1.0-182.0","0","0","21881","","null","","","null","20","","","","","","","","","","","","","","","",""
"","ISI","","html-keyboard-response","136","317717","0.0-1.0-183.0","0","0","21881","","null","","","null","20","NaN","","","","","","","","","","","","","","",""
"","S2","","html-keyboard-response","137","317983","0.0-1.0-184.0","0","0","21881","","null","","","null","20","","NaN","","","","","","","","","","","","","",""
"","response","","html-keyboard-response","138","318960","0.0-1.0-185.0-0.0","0","0","21881","","973","","","68","20","","","1","20","training","adjacent","DE","4","5","Q.jpg","R.jpg","0","1","0","",""
"","feedback","","html-keyboard-response","139","319968","0.0-1.0-186.0-0.0","0","0","21881","","null","","","null","20","","","","","","","","","","","","","","","",""
"","time_out","","html-keyboard-response","140","321981","0.0-1.0-188.0-0.0","0","0","21881","","null","","","null","20","","","","","","","","","","","","","","","",""
"","ITI","","html-keyboard-response","141","322986","0.0-1.0-189.0","0","0","21881","","null","","","null","20","","","","","","","","","","","","","","","NaN",""
"","S1","","html-keyboard-response","142","323253","0.0-1.0-191.0","0","0","21881","","null","","","null","21","","","","","","","","","","","","","","","",""
"","ISI","","html-keyboard-response","143","324269","0.0-1.0-192.0","0","0","21881","","null","","","null","21","NaN","","","","","","","","","","","","","","",""
"","S2","","html-keyboard-response","144","324534","0.0-1.0-193.0","0","0","21881","","null","","","null","21","","NaN","","","","","","","","","","","","","",""
"","response","","html-keyboard-response","145","325808","0.0-1.0-194.0-0.0","0","0","21881","","1271","","","75","21","","","1","21","training","adjacent","CD","3","4","N.jpg","Q.jpg","1","1","1","",""
"","feedback","","html-keyboard-response","146","326821","0.0-1.0-195.0-0.0","0","0","21881","","null","","","null","21","","","","","","","","","","","","","","","",""
"","ITI","","html-keyboard-response","147","327825","0.0-1.0-198.0","0","0","21881","","null","","","null","21","","","","","","","","","","","","","","","NaN",""
"","S1","","html-keyboard-response","148","328083","0.0-1.0-200.0","0","0","21881","","null","","","null","22","","","","","","","","","","","","","","","",""
"","ISI","","html-keyboard-response","149","329095","0.0-1.0-201.0","0","0","21881","","null","","","null","22","NaN","","","","","","","","","","","","","","",""
"","S2","","html-keyboard-response","150","329359","0.0-1.0-202.0","0","0","21881","","null","","","null","22","","NaN","","","","","","","","","","","","","",""
"","response","","html-keyboard-response","151","330547","0.0-1.0-203.0-0.0","0","0","21881","","1185","","","75","22","","","1","22","training","adjacent","GF","7","6","O.jpg","M.jpg","1","0","0","",""
"","feedback","","html-keyboard-response","152","331555","0.0-1.0-204.0-0.0","0","0","21881","","null","","","null","22","","","","","","","","","","","","","","","",""
"","time_out","","html-keyboard-response","153","333568","0.0-1.0-206.0-0.0","0","0","21881","","null","","","null","22","","","","","","","","","","","","","","","",""
"","ITI","","html-keyboard-response","154","334577","0.0-1.0-207.0","0","0","21881","","null","","","null","22","","","","","","","","","","","","","","","NaN",""
"","S1","","html-keyboard-response","155","334838","0.0-1.0-209.0","0","0","21881","","null","","","null","23","","","","","","","","","","","","","","","",""
"","ISI","","html-keyboard-response","156","335842","0.0-1.0-210.0","0","0","21881","","null","","","null","23","NaN","","","","","","","","","","","","","","",""
"","S2","","html-keyboard-response","157","336108","0.0-1.0-211.0","0","0","21881","","null","","","null","23","","NaN","","","","","","","","","","","","","",""
"","response","","html-keyboard-response","158","337214","0.0-1.0-212.0-0.0","0","0","21881","","1102","","","75","23","","","1","23","training","adjacent","DC","4","3","Q.jpg","N.jpg","1","0","0","",""
"","feedback","","html-keyboard-response","159","338229","0.0-1.0-213.0-0.0","0","0","21881","","null","","","null","23","","","","","","","","","","","","","","","",""
"","time_out","","html-keyboard-response","160","340243","0.0-1.0-215.0-0.0","0","0","21881","","null","","","null","23","","","","","","","","","","","","","","","",""
"","ITI","","html-keyboard-response","161","341247","0.0-1.0-216.0","0","0","21881","","null","","","null","23","","","","","","","","","","","","","","","NaN",""
"","S1","","html-keyboard-response","162","341505","0.0-1.0-218.0","0","0","21881","","null","","","null","24","","","","","","","","","","","","","","","",""
"","ISI","","html-keyboard-response","163","342510","0.0-1.0-219.0","0","0","21881","","null","","","null","24","NaN","","","","","","","","","","","","","","",""
"","S2","","html-keyboard-response","164","342769","0.0-1.0-220.0","0","0","21881","","null","","","null","24","","NaN","","","","","","","","","","","","","",""
"","response","","html-keyboard-response","165","343528","0.0-1.0-221.0-0.0","0","0","21881","","755","","","68","24","","","1","24","training","adjacent","AB","1","2","P.jpg","L.jpg","0","1","0","",""
"","feedback","","html-keyboard-response","166","344549","0.0-1.0-222.0-0.0","0","0","21881","","null","","","null","24","","","","","","","","","","","","","","","",""
"","time_out","","html-keyboard-response","167","346565","0.0-1.0-224.0-0.0","0","0","21881","","null","","","null","24","","","","","","","","","","","","","","","",""
"","ITI","","html-keyboard-response","168","347577","0.0-1.0-225.0","0","0","21881","","null","","","null","24","","","","","","","","","","","","","","","NaN",""
"","S1","","html-keyboard-response","169","347844","0.0-1.0-227.0","0","0","21881","","null","","","null","25","","","","","","","","","","","","","","","",""
"","ISI","","html-keyboard-response","170","348851","0.0-1.0-228.0","0","0","21881","","null","","","null","25","NaN","","","","","","","","","","","","","","",""
"","S2","","html-keyboard-response","171","349109","0.0-1.0-229.0","0","0","21881","","null","","","null","25","","NaN","","","","","","","","","","","","","",""
"","response","","html-keyboard-response","172","349896","0.0-1.0-230.0-0.0","0","0","21881","","783","","","75","25","","","1","25","training","adjacent","FE","6","5","M.jpg","R.jpg","1","0","0","",""
"","feedback","","html-keyboard-response","173","350909","0.0-1.0-231.0-0.0","0","0","21881","","null","","","null","25","","","","","","","","","","","","","","","",""
"","time_out","","html-keyboard-response","174","352922","0.0-1.0-233.0-0.0","0","0","21881","","null","","","null","25","","","","","","","","","","","","","","","",""
"","ITI","","html-keyboard-response","175","353940","0.0-1.0-234.0","0","0","21881","","null","","","null","25","","","","","","","","","","","","","","","NaN",""
"","S1","","html-keyboard-response","176","354197","0.0-1.0-236.0","0","0","21881","","null","","","null","26","","","","","","","","","","","","","","","",""
"","ISI","","html-keyboard-response","177","355209","0.0-1.0-237.0","0","0","21881","","null","","","null","26","NaN","","","","","","","","","","","","","","",""
"","S2","","html-keyboard-response","178","355477","0.0-1.0-238.0","0","0","21881","","null","","","null","26","","NaN","","","","","","","","","","","","","",""
"","response","","html-keyboard-response","179","355823","0.0-1.0-239.0-0.0","0","0","21881","","343","","","75","26","","","1","26","training","adjacent","ED","5","4","R.jpg","Q.jpg","1","0","0","",""
"","feedback","","html-keyboard-response","180","356838","0.0-1.0-240.0-0.0","0","0","21881","","null","","","null","26","","","","","","","","","","","","","","","",""
"","time_out","","html-keyboard-response","181","358849","0.0-1.0-242.0-0.0","0","0","21881","","null","","","null","26","","","","","","","","","","","","","","","",""
"","ITI","","html-keyboard-response","182","359864","0.0-1.0-243.0","0","0","21881","","null","","","null","26","","","","","","","","","","","","","","","NaN",""
"","S1","","html-keyboard-response","183","360130","0.0-1.0-245.0","0","0","21881","","null","","","null","27","","","","","","","","","","","","","","","",""
"","ISI","","html-keyboard-response","184","361149","0.0-1.0-246.0","0","0","21881","","null","","","null","27","NaN","","","","","","","","","","","","","","",""
"","S2","","html-keyboard-response","185","361416","0.0-1.0-247.0","0","0","21881","","null","","","null","27","","NaN","","","","","","","","","","","","","",""
"","response","","html-keyboard-response","186","361720","0.0-1.0-248.0-0.0","0","0","21881","","301","","","75","27","","","1","27","training","adjacent","ED","5","4","R.jpg","Q.jpg","1","0","0","",""
"","feedback","","html-keyboard-response","187","362727","0.0-1.0-249.0-0.0","0","0","21881","","null","","","null","27","","","","","","","","","","","","","","","",""
"","time_out","","html-keyboard-response","188","364733","0.0-1.0-251.0-0.0","0","0","21881","","null","","","null","27","","","","","","","","","","","","","","","",""
"","ITI","","html-keyboard-response","189","365743","0.0-1.0-252.0","0","0","21881","","null","","","null","27","","","","","","","","","","","","","","","NaN",""
"","S1","","html-keyboard-response","190","366008","0.0-1.0-254.0","0","0","21881","","null","","","null","28","","","","","","","","","","","","","","","",""
"","ISI","","html-keyboard-response","191","367024","0.0-1.0-255.0","0","0","21881","","null","","","null","28","NaN","","","","","","","","","","","","","","",""
"","S2","","html-keyboard-response","192","367284","0.0-1.0-256.0","0","0","21881","","null","","","null","28","","NaN","","","","","","","","","","","","","",""
"","response","","html-keyboard-response","193","367850","0.0-1.0-257.0-0.0","0","0","21881","","562","","","68","28","","","1","28","training","adjacent","CD","3","4","N.jpg","Q.jpg","0","1","0","",""
"","feedback","","html-keyboard-response","194","368857","0.0-1.0-258.0-0.0","0","0","21881","","null","","","null","28","","","","","","","","","","","","","","","",""
"","time_out","","html-keyboard-response","195","370873","0.0-1.0-260.0-0.0","0","0","21881","","null","","","null","28","","","","","","","","","","","","","","","",""
"","ITI","","html-keyboard-response","196","371878","0.0-1.0-261.0","0","0","21881","","null","","","null","28","","","","","","","","","","","","","","","NaN",""
"","S1","","html-keyboard-response","197","372132","0.0-1.0-263.0","0","0","21881","","null","","","null","29","","","","","","","","","","","","","","","",""
"","ISI","","html-keyboard-response","198","373136","0.0-1.0-264.0","0","0","21881","","null","","","null","29","NaN","","","","","","","","","","","","","","",""
"","S2","","html-keyboard-response","199","373398","0.0-1.0-265.0","0","0","21881","","null","","","null","29","","NaN","","","","","","","","","","","","","",""
"","response","","html-keyboard-response","200","374353","0.0-1.0-266.0-0.0","0","0","21881","","951","","","75","29","","","1","29","training","adjacent","FE","6","5","M.jpg","R.jpg","1","0","0","",""
"","feedback","","html-keyboard-response","201","375359","0.0-1.0-267.0-0.0","0","0","21881","","null","","","null","29","","","","","","","","","","","","","","","",""
"","time_out","","html-keyboard-response","202","377371","0.0-1.0-269.0-0.0","0","0","21881","","null","","","null","29","","","","","","","","","","","","","","","",""
"","ITI","","html-keyboard-response","203","378388","0.0-1.0-270.0","0","0","21881","","null","","","null","29","","","","","","","","","","","","","","","NaN",""
"","S1","","html-keyboard-response","204","378653","0.0-1.0-272.0","0","0","21881","","null","","","null","30","","","","","","","","","","","","","","","",""
"","ISI","","html-keyboard-response","205","379666","0.0-1.0-273.0","0","0","21881","","null","","","null","30","NaN","","","","","","","","","","","","","","",""
"","S2","","html-keyboard-response","206","379935","0.0-1.0-274.0","0","0","21881","","null","","","null","30","","NaN","","","","","","","","","","","","","",""
"","response","","html-keyboard-response","207","380750","0.0-1.0-275.0-0.0","0","0","21881","","812","","","75","30","","","1","30","training","adjacent","FG","6","7","M.jpg","O.jpg","1","1","1","",""
"","feedback","","html-keyboard-response","208","381768","0.0-1.0-276.0-0.0","0","0","21881","","null","","","null","30","","","","","","","","","","","","","","","",""
"","ITI","","html-keyboard-response","209","382783","0.0-1.0-279.0","0","0","21881","","null","","","null","30","","","","","","","","","","","","","","","NaN",""
"","S1","","html-keyboard-response","210","383050","0.0-1.0-281.0","0","0","21881","","null","","","null","31","","","","","","","","","","","","","","","",""
"","ISI","","html-keyboard-response","211","384057","0.0-1.0-282.0","0","0","21881","","null","","","null","31","NaN","","","","","","","","","","","","","","",""
"","S2","","html-keyboard-response","212","384319","0.0-1.0-283.0","0","0","21881","","null","","","null","31","","NaN","","","","","","","","","","","","","",""
"","response","","html-keyboard-response","213","384764","0.0-1.0-284.0-0.0","0","0","21881","","441","","","68","31","","","1","31","training","adjacent","FG","6","7","M.jpg","O.jpg","0","1","0","",""
"","feedback","","html-keyboard-response","214","385779","0.0-1.0-285.0-0.0","0","0","21881","","null","","","null","31","","","","","","","","","","","","","","","",""
"","time_out","","html-keyboard-response","215","387784","0.0-1.0-287.0-0.0","0","0","21881","","null","","","null","31","","","","","","","","","","","","","","","",""
"","ITI","","html-keyboard-response","216","388789","0.0-1.0-288.0","0","0","21881","","null","","","null","31","","","","","","","","","","","","","","","NaN",""
"","S1","","html-keyboard-response","217","389053","0.0-1.0-290.0","0","0","21881","","null","","","null","32","","","","","","","","","","","","","","","",""
"","ISI","","html-keyboard-response","218","390060","0.0-1.0-291.0","0","0","21881","","null","","","null","32","NaN","","","","","","","","","","","","","","",""
"","S2","","html-keyboard-response","219","390324","0.0-1.0-292.0","0","0","21881","","null","","","null","32","","NaN","","","","","","","","","","","","","",""
"","response","","html-keyboard-response","220","390616","0.0-1.0-293.0-0.0","0","0","21881","","288","","","75","32","","","1","32","training","adjacent","DE","4","5","Q.jpg","R.jpg","1","1","1","",""
"","feedback","","html-keyboard-response","221","391625","0.0-1.0-294.0-0.0","0","0","21881","","null","","","null","32","","","","","","","","","","","","","","","",""
"","ITI","","html-keyboard-response","222","392633","0.0-1.0-297.0","0","0","21881","","null","","","null","32","","","","","","","","","","","","","","","NaN",""
"","S1","","html-keyboard-response","223","392889","0.0-1.0-299.0","0","0","21881","","null","","","null","33","","","","","","","","","","","","","","","",""
"","ISI","","html-keyboard-response","224","393902","0.0-1.0-300.0","0","0","21881","","null","","","null","33","NaN","","","","","","","","","","","","","","",""
"","S2","","html-keyboard-response","225","394168","0.0-1.0-301.0","0","0","21881","","null","","","null","33","","NaN","","","","","","","","","","","","","",""
"","response","","html-keyboard-response","226","394785","0.0-1.0-302.0-0.0","0","0","21881","","614","","","68","33","","","1","33","training","adjacent","CD","3","4","N.jpg","Q.jpg","0","1","0","",""
"","feedback","","html-keyboard-response","227","395799","0.0-1.0-303.0-0.0","0","0","21881","","null","","","null","33","","","","","","","","","","","","","","","",""
"","time_out","","html-keyboard-response","228","397803","0.0-1.0-305.0-0.0","0","0","21881","","null","","","null","33","","","","","","","","","","","","","","","",""
"","ITI","","html-keyboard-response","229","398814","0.0-1.0-306.0","0","0","21881","","null","","","null","33","","","","","","","","","","","","","","","NaN",""
"","S1","","html-keyboard-response","230","399080","0.0-1.0-308.0","0","0","21881","","null","","","null","34","","","","","","","","","","","","","","","",""
"","ISI","","html-keyboard-response","231","400089","0.0-1.0-309.0","0","0","21881","","null","","","null","34","NaN","","","","","","","","","","","","","","",""
"","S2","","html-keyboard-response","232","400347","0.0-1.0-310.0","0","0","21881","","null","","","null","34","","NaN","","","","","","","","","","","","","",""
"","response","","html-keyboard-response","233","401069","0.0-1.0-311.0-0.0","0","0","21881","","720","","","75","34","","","1","34","training","adjacent","DE","4","5","Q.jpg","R.jpg","1","1","1","",""
"","feedback","","html-keyboard-response","234","402077","0.0-1.0-312.0-0.0","0","0","21881","","null","","","null","34","","","","","","","","","","","","","","","",""
"","ITI","","html-keyboard-response","235","403092","0.0-1.0-315.0","0","0","21881","","null","","","null","34","","","","","","","","","","","","","","","NaN",""
"","S1","","html-keyboard-response","236","403349","0.0-1.0-317.0","0","0","21881","","null","","","null","35","","","","","","","","","","","","","","","",""
"","ISI","","html-keyboard-response","237","404354","0.0-1.0-318.0","0","0","21881","","null","","","null","35","NaN","","","","","","","","","","","","","","",""
"","S2","","html-keyboard-response","238","404621","0.0-1.0-319.0","0","0","21881","","null","","","null","35","","NaN","","","","","","","","","","","","","",""
"","response","","html-keyboard-response","239","405608","0.0-1.0-320.0-0.0","0","0","21881","","983","","","75","35","","","1","35","training","adjacent","ED","5","4","R.jpg","Q.jpg","1","0","0","",""
"","feedback","","html-keyboard-response","240","406614","0.0-1.0-321.0-0.0","0","0","21881","","null","","","null","35","","","","","","","","","","","","","","","",""
"","time_out","","html-keyboard-response","241","408629","0.0-1.0-323.0-0.0","0","0","21881","","null","","","null","35","","","","","","","","","","","","","","","",""
"","ITI","","html-keyboard-response","242","409634","0.0-1.0-324.0","0","0","21881","","null","","","null","35","","","","","","","","","","","","","","","NaN",""
"","S1","","html-keyboard-response","243","409892","0.0-1.0-326.0","0","0","21881","","null","","","null","36","","","","","","","","","","","","","","","",""
"","ISI","","html-keyboard-response","244","410898","0.0-1.0-327.0","0","0","21881","","null","","","null","36","NaN","","","","","","","","","","","","","","",""
"","S2","","html-keyboard-response","245","411168","0.0-1.0-328.0","0","0","21881","","null","","","null","36","","NaN","","","","","","","","","","","","","",""
"","response","","html-keyboard-response","246","411830","0.0-1.0-329.0-0.0","0","0","21881","","658","","","68","36","","","1","36","training","adjacent","CB","3","2","N.jpg","L.jpg","0","0","1","",""
"","feedback","","html-keyboard-response","247","412842","0.0-1.0-330.0-0.0","0","0","21881","","null","","","null","36","","","","","","","","","","","","","","","",""
"","ITI","","html-keyboard-response","248","413853","0.0-1.0-333.0","0","0","21881","","null","","","null","36","","","","","","","","","","","","","","","NaN",""
"","S1","","html-keyboard-response","249","414117","0.0-1.0-335.0","0","0","21881","","null","","","null","37","","","","","","","","","","","","","","","",""
"","ISI","","html-keyboard-response","250","415128","0.0-1.0-336.0","0","0","21881","","null","","","null","37","NaN","","","","","","","","","","","","","","",""
"","S2","","html-keyboard-response","251","415394","0.0-1.0-337.0","0","0","21881","","null","","","null","37","","NaN","","","","","","","","","","","","","",""
"","response","","html-keyboard-response","252","416735","0.0-1.0-338.0-0.0","0","0","21881","","1337","","","68","37","","","1","37","training","adjacent","FG","6","7","M.jpg","O.jpg","0","1","0","",""
"","feedback","","html-keyboard-response","253","417745","0.0-1.0-339.0-0.0","0","0","21881","","null","","","null","37","","","","","","","","","","","","","","","",""
"","time_out","","html-keyboard-response","254","419757","0.0-1.0-341.0-0.0","0","0","21881","","null","","","null","37","","","","","","","","","","","","","","","",""
"","ITI","","html-keyboard-response","255","420777","0.0-1.0-342.0","0","0","21881","","null","","","null","37","","","","","","","","","","","","","","","NaN",""
"","S1","","html-keyboard-response","256","421032","0.0-1.0-344.0","0","0","21881","","null","","","null","38","","","","","","","","","","","","","","","",""
"","ISI","","html-keyboard-response","257","422043","0.0-1.0-345.0","0","0","21881","","null","","","null","38","NaN","","","","","","","","","","","","","","",""
"","S2","","html-keyboard-response","258","422311","0.0-1.0-346.0","0","0","21881","","null","","","null","38","","NaN","","","","","","","","","","","","","",""
"","response","","html-keyboard-response","259","423235","0.0-1.0-347.0-0.0","0","0","21881","","921","","","75","38","","","1","38","training","adjacent","CB","3","2","N.jpg","L.jpg","1","0","0","",""
"","feedback","","html-keyboard-response","260","424244","0.0-1.0-348.0-0.0","0","0","21881","","null","","","null","38","","","","","","","","","","","","","","","",""
"","time_out","","html-keyboard-response","261","426256","0.0-1.0-350.0-0.0","0","0","21881","","null","","","null","38","","","","","","","","","","","","","","","",""
"","ITI","","html-keyboard-response","262","427267","0.0-1.0-351.0","0","0","21881","","null","","","null","38","","","","","","","","","","","","","","","NaN",""
"","S1","","html-keyboard-response","263","427524","0.0-1.0-353.0","0","0","21881","","null","","","null","39","","","","","","","","","","","","","","","",""
"","ISI","","html-keyboard-response","264","428531","0.0-1.0-354.0","0","0","21881","","null","","","null","39","NaN","","","","","","","","","","","","","","",""
"","S2","","html-keyboard-response","265","428788","0.0-1.0-355.0","0","0","21881","","null","","","null","39","","NaN","","","","","","","","","","","","","",""
"","response","","html-keyboard-response","266","428881","0.0-1.0-356.0-0.0","0","0","21881","","88","","","75","39","","","1","39","training","adjacent","EF","5","6","R.jpg","M.jpg","1","1","1","",""
"","feedback","","html-keyboard-response","267","429896","0.0-1.0-357.0-0.0","0","0","21881","","null","","","null","39","","","","","","","","","","","","","","","",""
"","ITI","","html-keyboard-response","268","430906","0.0-1.0-360.0","0","0","21881","","null","","","null","39","","","","","","","","","","","","","","","NaN",""
"","S1","","html-keyboard-response","269","431172","0.0-1.0-362.0","0","0","21881","","null","","","null","40","","","","","","","","","","","","","","","",""
"","ISI","","html-keyboard-response","270","432178","0.0-1.0-363.0","0","0","21881","","null","","","null","40","NaN","","","","","","","","","","","","","","",""
"","S2","","html-keyboard-response","271","432443","0.0-1.0-364.0","0","0","21881","","null","","","null","40","","NaN","","","","","","","","","","","","","",""
"","response","","html-keyboard-response","272","432945","0.0-1.0-365.0-0.0","0","0","21881","","499","","","68","40","","","1","40","training","adjacent","DC","4","3","Q.jpg","N.jpg","0","0","1","",""
"","feedback","","html-keyboard-response","273","433961","0.0-1.0-366.0-0.0","0","0","21881","","null","","","null","40","","","","","","","","","","","","","","","",""
"","ITI","","html-keyboard-response","274","434966","0.0-1.0-369.0","0","0","21881","","null","","","null","40","","","","","","","","","","","","","","","NaN",""
"","S1","","html-keyboard-response","275","435227","0.0-1.0-371.0","0","0","21881","","null","","","null","41","","","","","","","","","","","","","","","",""
"","ISI","","html-keyboard-response","276","436241","0.0-1.0-372.0","0","0","21881","","null","","","null","41","NaN","","","","","","","","","","","","","","",""
"","S2","","html-keyboard-response","277","436504","0.0-1.0-373.0","0","0","21881","","null","","","null","41","","NaN","","","","","","","","","","","","","",""
"","response","","html-keyboard-response","278","437584","0.0-1.0-374.0-0.0","0","0","21881","","1076","","","68","41","","","1","41","training","adjacent","EF","5","6","R.jpg","M.jpg","0","1","0","",""
"","feedback","","html-keyboard-response","279","438598","0.0-1.0-375.0-0.0","0","0","21881","","null","","","null","41","","","","","","","","","","","","","","","",""
"","time_out","","html-keyboard-response","280","440608","0.0-1.0-377.0-0.0","0","0","21881","","null","","","null","41","","","","","","","","","","","","","","","",""
"","ITI","","html-keyboard-response","281","441624","0.0-1.0-378.0","0","0","21881","","null","","","null","41","","","","","","","","","","","","","","","NaN",""
"","S1","","html-keyboard-response","282","441889","0.0-1.0-380.0","0","0","21881","","null","","","null","42","","","","","","","","","","","","","","","",""
"","ISI","","html-keyboard-response","283","442903","0.0-1.0-381.0","0","0","21881","","null","","","null","42","NaN","","","","","","","","","","","","","","",""
"","S2","","html-keyboard-response","284","443166","0.0-1.0-382.0","0","0","21881","","null","","","null","42","","NaN","","","","","","","","","","","","","",""
"","response","","html-keyboard-response","285","443689","0.0-1.0-383.0-0.0","0","0","21881","","519","","","75","42","","","1","42","training","adjacent","AB","1","2","P.jpg","L.jpg","1","1","1","",""
"","feedback","","html-keyboard-response","286","444696","0.0-1.0-384.0-0.0","0","0","21881","","null","","","null","42","","","","","","","","","","","","","","","",""
"","ITI","","html-keyboard-response","287","445715","0.0-1.0-387.0","0","0","21881","","null","","","null","42","","","","","","","","","","","","","","","NaN",""
"","S1","","html-keyboard-response","288","445972","0.0-1.0-389.0","0","0","21881","","null","","","null","43","","","","","","","","","","","","","","","",""
"","ISI","","html-keyboard-response","289","446988","0.0-1.0-390.0","0","0","21881","","null","","","null","43","NaN","","","","","","","","","","","","","","",""
"","S2","","html-keyboard-response","290","447255","0.0-1.0-391.0","0","0","21881","","null","","","null","43","","NaN","","","","","","","","","","","","","",""
"","response","","html-keyboard-response","291","447908","0.0-1.0-392.0-0.0","0","0","21881","","650","","","68","43","","","1","43","training","adjacent","GF","7","6","O.jpg","M.jpg","0","0","1","",""
"","feedback","","html-keyboard-response","292","448924","0.0-1.0-393.0-0.0","0","0","21881","","null","","","null","43","","","","","","","","","","","","","","","",""
"","ITI","","html-keyboard-response","293","449934","0.0-1.0-396.0","0","0","21881","","null","","","null","43","","","","","","","","","","","","","","","NaN",""
"","S1","","html-keyboard-response","294","450200","0.0-1.0-398.0","0","0","21881","","null","","","null","44","","","","","","","","","","","","","","","",""
"","ISI","","html-keyboard-response","295","451206","0.0-1.0-399.0","0","0","21881","","null","","","null","44","NaN","","","","","","","","","","","","","","",""
"","S2","","html-keyboard-response","296","451472","0.0-1.0-400.0","0","0","21881","","null","","","null","44","","NaN","","","","","","","","","","","","","",""
"","response","","html-keyboard-response","297","452544","0.0-1.0-401.0-0.0","0","0","21881","","1070","","","75","44","","","1","44","training","adjacent","BC","2","3","L.jpg","N.jpg","1","1","1","",""
"","feedback","","html-keyboard-response","298","453551","0.0-1.0-402.0-0.0","0","0","21881","","null","","","null","44","","","","","","","","","","","","","","","",""
"","ITI","","html-keyboard-response","299","454559","0.0-1.0-405.0","0","0","21881","","null","","","null","44","","","","","","","","","","","","","","","NaN",""
"","S1","","html-keyboard-response","300","454826","0.0-1.0-407.0","0","0","21881","","null","","","null","45","","","","","","","","","","","","","","","",""
"","ISI","","html-keyboard-response","301","455842","0.0-1.0-408.0","0","0","21881","","null","","","null","45","NaN","","","","","","","","","","","","","","",""
"","S2","","html-keyboard-response","302","456107","0.0-1.0-409.0","0","0","21881","","null","","","null","45","","NaN","","","","","","","","","","","","","",""
"","response","","html-keyboard-response","303","456663","0.0-1.0-410.0-0.0","0","0","21881","","553","","","68","45","","","1","45","training","adjacent","BC","2","3","L.jpg","N.jpg","0","1","0","",""
"","feedback","","html-keyboard-response","304","457672","0.0-1.0-411.0-0.0","0","0","21881","","null","","","null","45","","","","","","","","","","","","","","","",""
"","time_out","","html-keyboard-response","305","459685","0.0-1.0-413.0-0.0","0","0","21881","","null","","","null","45","","","","","","","","","","","","","","","",""
"","ITI","","html-keyboard-response","306","460692","0.0-1.0-414.0","0","0","21881","","null","","","null","45","","","","","","","","","","","","","","","NaN",""
"","S1","","html-keyboard-response","307","460961","0.0-1.0-416.0","0","0","21881","","null","","","null","46","","","","","","","","","","","","","","","",""
"","ISI","","html-keyboard-response","308","461970","0.0-1.0-417.0","0","0","21881","","null","","","null","46","NaN","","","","","","","","","","","","","","",""
"","S2","","html-keyboard-response","309","462231","0.0-1.0-418.0","0","0","21881","","null","","","null","46","","NaN","","","","","","","","","","","","","",""
"","response","","html-keyboard-response","310","462817","0.0-1.0-419.0-0.0","0","0","21881","","583","","","75","46","","","1","46","training","adjacent","BC","2","3","L.jpg","N.jpg","1","1","1","",""
"","feedback","","html-keyboard-response","311","463823","0.0-1.0-420.0-0.0","0","0","21881","","null","","","null","46","","","","","","","","","","","","","","","",""
"","ITI","","html-keyboard-response","312","464828","0.0-1.0-423.0","0","0","21881","","null","","","null","46","","","","","","","","","","","","","","","NaN",""
"","S1","","html-keyboard-response","313","465083","0.0-1.0-425.0","0","0","21881","","null","","","null","47","","","","","","","","","","","","","","","",""
"","ISI","","html-keyboard-response","314","466089","0.0-1.0-426.0","0","0","21881","","null","","","null","47","NaN","","","","","","","","","","","","","","",""
"","S2","","html-keyboard-response","315","466351","0.0-1.0-427.0","0","0","21881","","null","","","null","47","","NaN","","","","","","","","","","","","","",""
"","response","","html-keyboard-response","316","468052","0.0-1.0-428.0-0.0","0","0","21881","","1695","","","75","47","","","1","47","training","adjacent","BA","2","1","L.jpg","P.jpg","1","0","0","",""
"","feedback","","html-keyboard-response","317","469073","0.0-1.0-429.0-0.0","0","0","21881","","null","","","null","47","","","","","","","","","","","","","","","",""
"","time_out","","html-keyboard-response","318","471089","0.0-1.0-431.0-0.0","0","0","21881","","null","","","null","47","","","","","","","","","","","","","","","",""
"","ITI","","html-keyboard-response","319","472097","0.0-1.0-432.0","0","0","21881","","null","","","null","47","","","","","","","","","","","","","","","NaN",""
"","block_over","","html-keyboard-response","320","485460","0.0-1.0-433.0-0.0","0","0","21881","","13358","","","32","47","","","","","","","","","","","","","","","",""
"","S1","","html-keyboard-response","321","485720","0.0-1.0-434.0","0","0","21881","","null","","","null","48","","","","","","","","","","","","","","","",""
"","ISI","","html-keyboard-response","322","486730","0.0-1.0-435.0","0","0","21881","","null","","","null","48","NaN","","","","","","","","","","","","","","",""
"","S2","","html-keyboard-response","323","486985","0.0-1.0-436.0","0","0","21881","","null","","","null","48","","NaN","","","","","","","","","","","","","",""
"","response","","html-keyboard-response","324","487629","0.0-1.0-437.0-0.0","0","0","21881","","641","","","75","48","","","2","48","training","adjacent","BA","2","1","L.jpg","P.jpg","1","0","0","",""
"","feedback","","html-keyboard-response","325","488643","0.0-1.0-438.0-0.0","0","0","21881","","null","","","null","48","","","","","","","","","","","","","","","",""
"","time_out","","html-keyboard-response","326","490649","0.0-1.0-440.0-0.0","0","0","21881","","null","","","null","48","","","","","","","","","","","","","","","",""
"","ITI","","html-keyboard-response","327","491654","0.0-1.0-441.0","0","0","21881","","null","","","null","48","","","","","","","","","","","","","","","NaN",""
"","S1","","html-keyboard-response","328","491910","0.0-1.0-443.0","0","0","21881","","null","","","null","49","","","","","","","","","","","","","","","",""
"","ISI","","html-keyboard-response","329","492914","0.0-1.0-444.0","0","0","21881","","null","","","null","49","NaN","","","","","","","","","","","","","","",""
"","S2","","html-keyboard-response","330","493175","0.0-1.0-445.0","0","0","21881","","null","","","null","49","","NaN","","","","","","","","","","","","","",""
"","response","","html-keyboard-response","331","494040","0.0-1.0-446.0-0.0","0","0","21881","","862","","","68","49","","","2","49","training","adjacent","CD","3","4","N.jpg","Q.jpg","0","1","0","",""
"","feedback","","html-keyboard-response","332","495061","0.0-1.0-447.0-0.0","0","0","21881","","null","","","null","49","","","","","","","","","","","","","","","",""
"","time_out","","html-keyboard-response","333","497067","0.0-1.0-449.0-0.0","0","0","21881","","null","","","null","49","","","","","","","","","","","","","","","",""
"","ITI","","html-keyboard-response","334","498083","0.0-1.0-450.0","0","0","21881","","null","","","null","49","","","","","","","","","","","","","","","NaN",""
"","S1","","html-keyboard-response","335","498347","0.0-1.0-452.0","0","0","21881","","null","","","null","50","","","","","","","","","","","","","","","",""
"","ISI","","html-keyboard-response","336","499361","0.0-1.0-453.0","0","0","21881","","null","","","null","50","NaN","","","","","","","","","","","","","","",""
"","S2","","html-keyboard-response","337","499628","0.0-1.0-454.0","0","0","21881","","null","","","null","50","","NaN","","","","","","","","","","","","","",""
"","response","","html-keyboard-response","338","500175","0.0-1.0-455.0-0.0","0","0","21881","","543","","","75","50","","","2","50","training","adjacent","GF","7","6","O.jpg","M.jpg","1","0","0","",""
"","feedback","","html-keyboard-response","339","501183","0.0-1.0-456.0-0.0","0","0","21881","","null","","","null","50","","","","","","","","","","","","","","","",""
"","time_out","","html-keyboard-response","340","503193","0.0-1.0-458.0-0.0","0","0","21881","","null","","","null","50","","","","","","","","","","","","","","","",""
"","ITI","","html-keyboard-response","341","504207","0.0-1.0-459.0","0","0","21881","","null","","","null","50","","","","","","","","","","","","","","","NaN",""
"","S1","","html-keyboard-response","342","504474","0.0-1.0-461.0","0","0","21881","","null","","","null","51","","","","","","","","","","","","","","","",""
"","ISI","","html-keyboard-response","343","505492","0.0-1.0-462.0","0","0","21881","","null","","","null","51","NaN","","","","","","","","","","","","","","",""
"","S2","","html-keyboard-response","344","505754","0.0-1.0-463.0","0","0","21881","","null","","","null","51","","NaN","","","","","","","","","","","","","",""
"","response","","html-keyboard-response","345","506033","0.0-1.0-464.0-0.0","0","0","21881","","273","","","68","51","","","2","51","training","adjacent","AB","1","2","P.jpg","L.jpg","0","1","0","",""
"","feedback","","html-keyboard-response","346","507046","0.0-1.0-465.0-0.0","0","0","21881","","null","","","null","51","","","","","","","","","","","","","","","",""
"","time_out","","html-keyboard-response","347","509064","0.0-1.0-467.0-0.0","0","0","21881","","null","","","null","51","","","","","","","","","","","","","","","",""
"","ITI","","html-keyboard-response","348","510075","0.0-1.0-468.0","0","0","21881","","null","","","null","51","","","","","","","","","","","","","","","NaN",""
"","S1","","html-keyboard-response","349","510340","0.0-1.0-470.0","0","0","21881","","null","","","null","52","","","","","","","","","","","","","","","",""
"","ISI","","html-keyboard-response","350","511358","0.0-1.0-471.0","0","0","21881","","null","","","null","52","NaN","","","","","","","","","","","","","","",""
"","S2","","html-keyboard-response","351","511623","0.0-1.0-472.0","0","0","21881","","null","","","null","52","","NaN","","","","","","","","","","","","","",""
"","response","","html-keyboard-response","352","512013","0.0-1.0-473.0-0.0","0","0","21881","","386","","","75","52","","","2","52","training","adjacent","CB","3","2","N.jpg","L.jpg","1","0","0","",""
"","feedback","","html-keyboard-response","353","513029","0.0-1.0-474.0-0.0","0","0","21881","","null","","","null","52","","","","","","","","","","","","","","","",""
"","time_out","","html-keyboard-response","354","515041","0.0-1.0-476.0-0.0","0","0","21881","","null","","","null","52","","","","","","","","","","","","","","","",""
"","ITI","","html-keyboard-response","355","516053","0.0-1.0-477.0","0","0","21881","","null","","","null","52","","","","","","","","","","","","","","","NaN",""
"","S1","","html-keyboard-response","356","516309","0.0-1.0-479.0","0","0","21881","","null","","","null","53","","","","","","","","","","","","","","","",""
"","ISI","","html-keyboard-response","357","517324","0.0-1.0-480.0","0","0","21881","","null","","","null","53","NaN","","","","","","","","","","","","","","",""
"","S2","","html-keyboard-response","358","517584","0.0-1.0-481.0","0","0","21881","","null","","","null","53","","NaN","","","","","","","","","","","","","",""
"","response","","html-keyboard-response","359","518269","0.0-1.0-482.0-0.0","0","0","21881","","682","","","75","53","","","2","53","training","adjacent","DC","4","3","Q.jpg","N.jpg","1","0","0","",""
"","feedback","","html-keyboard-response","360","519274","0.0-1.0-483.0-0.0","0","0","21881","","null","","","null","53","","","","","","","","","","","","","","","",""
"","time_out","","html-keyboard-response","361","521287","0.0-1.0-485.0-0.0","0","0","21881","","null","","","null","53","","","","","","","","","","","","","","","",""
"","ITI","","html-keyboard-response","362","522292","0.0-1.0-486.0","0","0","21881","","null","","","null","53","","","","","","","","","","","","","","","NaN",""
"","S1","","html-keyboard-response","363","522550","0.0-1.0-488.0","0","0","21881","","null","","","null","54","","","","","","","","","","","","","","","",""
"","ISI","","html-keyboard-response","364","523560","0.0-1.0-489.0","0","0","21881","","null","","","null","54","NaN","","","","","","","","","","","","","","",""
"","S2","","html-keyboard-response","365","523817","0.0-1.0-490.0","0","0","21881","","null","","","null","54","","NaN","","","","","","","","","","","","","",""
"","response","","html-keyboard-response","366","524351","0.0-1.0-491.0-0.0","0","0","21881","","531","","","68","54","","","2","54","training","adjacent","BA","2","1","L.jpg","P.jpg","0","0","1","",""
"","feedback","","html-keyboard-response","367","525363","0.0-1.0-492.0-0.0","0","0","21881","","null","","","null","54","","","","","","","","","","","","","","","",""
"","ITI","","html-keyboard-response","368","526374","0.0-1.0-495.0","0","0","21881","","null","","","null","54","","","","","","","","","","","","","","","NaN",""
"","S1","","html-keyboard-response","369","526640","0.0-1.0-497.0","0","0","21881","","null","","","null","55","","","","","","","","","","","","","","","",""
"","ISI","","html-keyboard-response","370","527645","0.0-1.0-498.0","0","0","21881","","null","","","null","55","NaN","","","","","","","","","","","","","","",""
"","S2","","html-keyboard-response","371","527917","0.0-1.0-499.0","0","0","21881","","null","","","null","55","","NaN","","","","","","","","","","","","","",""
"","response","","html-keyboard-response","372","528470","0.0-1.0-500.0-0.0","0","0","21881","","546","","","75","55","","","2","55","training","adjacent","ED","5","4","R.jpg","Q.jpg","1","0","0","",""
"","feedback","","html-keyboard-response","373","529488","0.0-1.0-501.0-0.0","0","0","21881","","null","","","null","55","","","","","","","","","","","","","","","",""
"","time_out","","html-keyboard-response","374","531504","0.0-1.0-503.0-0.0","0","0","21881","","null","","","null","55","","","","","","","","","","","","","","","",""
"","ITI","","html-keyboard-response","375","532515","0.0-1.0-504.0","0","0","21881","","null","","","null","55","","","","","","","","","","","","","","","NaN",""
"","S1","","html-keyboard-response","376","532774","0.0-1.0-506.0","0","0","21881","","null","","","null","56","","","","","","","","","","","","","","","",""
"","ISI","","html-keyboard-response","377","533791","0.0-1.0-507.0","0","0","21881","","null","","","null","56","NaN","","","","","","","","","","","","","","",""
"","S2","","html-keyboard-response","378","534058","0.0-1.0-508.0","0","0","21881","","null","","","null","56","","NaN","","","","","","","","","","","","","",""
"","response","","html-keyboard-response","379","534765","0.0-1.0-509.0-0.0","0","0","21881","","704","","","68","56","","","2","56","training","adjacent","CB","3","2","N.jpg","L.jpg","0","0","1","",""
"","feedback","","html-keyboard-response","380","535785","0.0-1.0-510.0-0.0","0","0","21881","","null","","","null","56","","","","","","","","","","","","","","","",""
"","ITI","","html-keyboard-response","381","536789","0.0-1.0-513.0","0","0","21881","","null","","","null","56","","","","","","","","","","","","","","","NaN",""
"","S1","","html-keyboard-response","382","537052","0.0-1.0-515.0","0","0","21881","","null","","","null","57","","","","","","","","","","","","","","","",""
"","ISI","","html-keyboard-response","383","538067","0.0-1.0-516.0","0","0","21881","","null","","","null","57","NaN","","","","","","","","","","","","","","",""
"","S2","","html-keyboard-response","384","538327","0.0-1.0-517.0","0","0","21881","","null","","","null","57","","NaN","","","","","","","","","","","","","",""
"","response","","html-keyboard-response","385","538933","0.0-1.0-518.0-0.0","0","0","21881","","603","","","75","57","","","2","57","training","adjacent","EF","5","6","R.jpg","M.jpg","1","1","1","",""
"","feedback","","html-keyboard-response","386","539949","0.0-1.0-519.0-0.0","0","0","21881","","null","","","null","57","","","","","","","","","","","","","","","",""
"","ITI","","html-keyboard-response","387","540964","0.0-1.0-522.0","0","0","21881","","null","","","null","57","","","","","","","","","","","","","","","NaN",""
"","S1","","html-keyboard-response","388","541227","0.0-1.0-524.0","0","0","21881","","null","","","null","58","","","","","","","","","","","","","","","",""
"","ISI","","html-keyboard-response","389","542245","0.0-1.0-525.0","0","0","21881","","null","","","null","58","NaN","","","","","","","","","","","","","","",""
"","S2","","html-keyboard-response","390","542506","0.0-1.0-526.0","0","0","21881","","null","","","null","58","","NaN","","","","","","","","","","","","","",""
"","response","","html-keyboard-response","391","542866","0.0-1.0-527.0-0.0","0","0","21881","","354","","","68","58","","","2","58","training","adjacent","FG","6","7","M.jpg","O.jpg","0","1","0","",""
"","feedback","","html-keyboard-response","392","543882","0.0-1.0-528.0-0.0","0","0","21881","","null","","","null","58","","","","","","","","","","","","","","","",""
"","time_out","","html-keyboard-response","393","545888","0.0-1.0-530.0-0.0","0","0","21881","","null","","","null","58","","","","","","","","","","","","","","","",""
"","ITI","","html-keyboard-response","394","546904","0.0-1.0-531.0","0","0","21881","","null","","","null","58","","","","","","","","","","","","","","","NaN",""
"","S1","","html-keyboard-response","395","547172","0.0-1.0-533.0","0","0","21881","","null","","","null","59","","","","","","","","","","","","","","","",""
"","ISI","","html-keyboard-response","396","548186","0.0-1.0-534.0","0","0","21881","","null","","","null","59","NaN","","","","","","","","","","","","","","",""
"","S2","","html-keyboard-response","397","548453","0.0-1.0-535.0","0","0","21881","","null","","","null","59","","NaN","","","","","","","","","","","","","",""
"","response","","html-keyboard-response","398","548753","0.0-1.0-536.0-0.0","0","0","21881","","297","","","75","59","","","2","59","training","adjacent","BC","2","3","L.jpg","N.jpg","1","1","1","",""
"","feedback","","html-keyboard-response","399","549772","0.0-1.0-537.0-0.0","0","0","21881","","null","","","null","59","","","","","","","","","","","","","","","",""
"","ITI","","html-keyboard-response","400","550788","0.0-1.0-540.0","0","0","21881","","null","","","null","59","","","","","","","","","","","","","","","NaN",""
"","S1","","html-keyboard-response","401","551053","0.0-1.0-542.0","0","0","21881","","null","","","null","60","","","","","","","","","","","","","","","",""
"","ISI","","html-keyboard-response","402","552067","0.0-1.0-543.0","0","0","21881","","null","","","null","60","NaN","","","","","","","","","","","","","","",""
"","S2","","html-keyboard-response","403","552334","0.0-1.0-544.0","0","0","21881","","null","","","null","60","","NaN","","","","","","","","","","","","","",""
"","response","","html-keyboard-response","404","553381","0.0-1.0-545.0-0.0","0","0","21881","","1043","","","68","60","","","2","60","training","adjacent","FE","6","5","M.jpg","R.jpg","0","0","1","",""
"","feedback","","html-keyboard-response","405","554400","0.0-1.0-546.0-0.0","0","0","21881","","null","","","null","60","","","","","","","","","","","","","","","",""
"","ITI","","html-keyboard-response","406","555418","0.0-1.0-549.0","0","0","21881","","null","","","null","60","","","","","","","","","","","","","","","NaN",""
"","S1","","html-keyboard-response","407","555680","0.0-1.0-551.0","0","0","21881","","null","","","null","61","","","","","","","","","","","","","","","",""
"","ISI","","html-keyboard-response","408","556686","0.0-1.0-552.0","0","0","21881","","null","","","null","61","NaN","","","","","","","","","","","","","","",""
"","S2","","html-keyboard-response","409","556952","0.0-1.0-553.0","0","0","21881","","null","","","null","61","","NaN","","","","","","","","","","","","","",""
"","response","","html-keyboard-response","410","557856","0.0-1.0-554.0-0.0","0","0","21881","","900","","","75","61","","","2","61","training","adjacent","AB","1","2","P.jpg","L.jpg","1","1","1","",""
"","feedback","","html-keyboard-response","411","558875","0.0-1.0-555.0-0.0","0","0","21881","","null","","","null","61","","","","","","","","","","","","","","","",""
"","ITI","","html-keyboard-response","412","559886","0.0-1.0-558.0","0","0","21881","","null","","","null","61","","","","","","","","","","","","","","","NaN",""
"","S1","","html-keyboard-response","413","560144","0.0-1.0-560.0","0","0","21881","","null","","","null","62","","","","","","","","","","","","","","","",""
"","ISI","","html-keyboard-response","414","561160","0.0-1.0-561.0","0","0","21881","","null","","","null","62","NaN","","","","","","","","","","","","","","",""
"","S2","","html-keyboard-response","415","561426","0.0-1.0-562.0","0","0","21881","","null","","","null","62","","NaN","","","","","","","","","","","","","",""
"","response","","html-keyboard-response","416","562570","0.0-1.0-563.0-0.0","0","0","21881","","1139","","","68","62","","","2","62","training","adjacent","FG","6","7","M.jpg","O.jpg","0","1","0","",""
"","feedback","","html-keyboard-response","417","563576","0.0-1.0-564.0-0.0","0","0","21881","","null","","","null","62","","","","","","","","","","","","","","","",""
"","time_out","","html-keyboard-response","418","565589","0.0-1.0-566.0-0.0","0","0","21881","","null","","","null","62","","","","","","","","","","","","","","","",""
"","ITI","","html-keyboard-response","419","566600","0.0-1.0-567.0","0","0","21881","","null","","","null","62","","","","","","","","","","","","","","","NaN",""
"","S1","","html-keyboard-response","420","566866","0.0-1.0-569.0","0","0","21881","","null","","","null","63","","","","","","","","","","","","","","","",""
"","ISI","","html-keyboard-response","421","567874","0.0-1.0-570.0","0","0","21881","","null","","","null","63","NaN","","","","","","","","","","","","","","",""
"","S2","","html-keyboard-response","422","568133","0.0-1.0-571.0","0","0","21881","","null","","","null","63","","NaN","","","","","","","","","","","","","",""
"","response","","html-keyboard-response","423","568633","0.0-1.0-572.0-0.0","0","0","21881","","497","","","75","63","","","2","63","training","adjacent","DC","4","3","Q.jpg","N.jpg","1","0","0","",""
"","feedback","","html-keyboard-response","424","569651","0.0-1.0-573.0-0.0","0","0","21881","","null","","","null","63","","","","","","","","","","","","","","","",""
"","time_out","","html-keyboard-response","425","571660","0.0-1.0-575.0-0.0","0","0","21881","","null","","","null","63","","","","","","","","","","","","","","","",""
"","ITI","","html-keyboard-response","426","572669","0.0-1.0-576.0","0","0","21881","","null","","","null","63","","","","","","","","","","","","","","","NaN",""
"","S1","","html-keyboard-response","427","572935","0.0-1.0-578.0","0","0","21881","","null","","","null","64","","","","","","","","","","","","","","","",""
"","ISI","","html-keyboard-response","428","573954","0.0-1.0-579.0","0","0","21881","","null","","","null","64","NaN","","","","","","","","","","","","","","",""
"","S2","","html-keyboard-response","429","574218","0.0-1.0-580.0","0","0","21881","","null","","","null","64","","NaN","","","","","","","","","","","","","",""
"","response","","html-keyboard-response","430","574858","0.0-1.0-581.0-0.0","0","0","21881","","639","","","75","64","","","2","64","training","adjacent","DE","4","5","Q.jpg","R.jpg","1","1","1","",""
"","feedback","","html-keyboard-response","431","575876","0.0-1.0-582.0-0.0","0","0","21881","","null","","","null","64","","","","","","","","","","","","","","","",""
"","ITI","","html-keyboard-response","432","576887","0.0-1.0-585.0","0","0","21881","","null","","","null","64","","","","","","","","","","","","","","","NaN",""
"","S1","","html-keyboard-response","433","577154","0.0-1.0-587.0","0","0","21881","","null","","","null","65","","","","","","","","","","","","","","","",""
"","ISI","","html-keyboard-response","434","578161","0.0-1.0-588.0","0","0","21881","","null","","","null","65","NaN","","","","","","","","","","","","","","",""
"","S2","","html-keyboard-response","435","578430","0.0-1.0-589.0","0","0","21881","","null","","","null","65","","NaN","","","","","","","","","","","","","",""
"","response","","html-keyboard-response","436","579139","0.0-1.0-590.0-0.0","0","0","21881","","706","","","68","65","","","2","65","training","adjacent","CD","3","4","N.jpg","Q.jpg","0","1","0","",""
"","feedback","","html-keyboard-response","437","580159","0.0-1.0-591.0-0.0","0","0","21881","","null","","","null","65","","","","","","","","","","","","","","","",""
"","time_out","","html-keyboard-response","438","582178","0.0-1.0-593.0-0.0","0","0","21881","","null","","","null","65","","","","","","","","","","","","","","","",""
"","ITI","","html-keyboard-response","439","583185","0.0-1.0-594.0","0","0","21881","","null","","","null","65","","","","","","","","","","","","","","","NaN",""
"","S1","","html-keyboard-response","440","583453","0.0-1.0-596.0","0","0","21881","","null","","","null","66","","","","","","","","","","","","","","","",""
"","ISI","","html-keyboard-response","441","584470","0.0-1.0-597.0","0","0","21881","","null","","","null","66","NaN","","","","","","","","","","","","","","",""
"","S2","","html-keyboard-response","442","584729","0.0-1.0-598.0","0","0","21881","","null","","","null","66","","NaN","","","","","","","","","","","","","",""
"","response","","html-keyboard-response","443","585431","0.0-1.0-599.0-0.0","0","0","21881","","697","","","75","66","","","2","66","training","adjacent","BC","2","3","L.jpg","N.jpg","1","1","1","",""
"","feedback","","html-keyboard-response","444","586440","0.0-1.0-600.0-0.0","0","0","21881","","null","","","null","66","","","","","","","","","","","","","","","",""
"","ITI","","html-keyboard-response","445","587453","0.0-1.0-603.0","0","0","21881","","null","","","null","66","","","","","","","","","","","","","","","NaN",""
"","S1","","html-keyboard-response","446","587709","0.0-1.0-605.0","0","0","21881","","null","","","null","67","","","","","","","","","","","","","","","",""
"","ISI","","html-keyboard-response","447","588722","0.0-1.0-606.0","0","0","21881","","null","","","null","67","NaN","","","","","","","","","","","","","","",""
"","S2","","html-keyboard-response","448","588988","0.0-1.0-607.0","0","0","21881","","null","","","null","67","","NaN","","","","","","","","","","","","","",""
"","response","","html-keyboard-response","449","589640","0.0-1.0-608.0-0.0","0","0","21881","","648","","","68","67","","","2","67","training","adjacent","GF","7","6","O.jpg","M.jpg","0","0","1","",""
"","feedback","","html-keyboard-response","450","590652","0.0-1.0-609.0-0.0","0","0","21881","","null","","","null","67","","","","","","","","","","","","","","","",""
"","ITI","","html-keyboard-response","451","591664","0.0-1.0-612.0","0","0","21881","","null","","","null","67","","","","","","","","","","","","","","","NaN",""
"","S1","","html-keyboard-response","452","591932","0.0-1.0-614.0","0","0","21881","","null","","","null","68","","","","","","","","","","","","","","","",""
"","ISI","","html-keyboard-response","453","592938","0.0-1.0-615.0","0","0","21881","","null","","","null","68","NaN","","","","","","","","","","","","","","",""
"","S2","","html-keyboard-response","454","593204","0.0-1.0-616.0","0","0","21881","","null","","","null","68","","NaN","","","","","","","","","","","","","",""
"","response","","html-keyboard-response","455","594422","0.0-1.0-617.0-0.0","0","0","21881","","1214","","","75","68","","","2","68","training","adjacent","BA","2","1","L.jpg","P.jpg","1","0","0","",""
"","feedback","","html-keyboard-response","456","595430","0.0-1.0-618.0-0.0","0","0","21881","","null","","","null","68","","","","","","","","","","","","","","","",""
"","time_out","","html-keyboard-response","457","597434","0.0-1.0-620.0-0.0","0","0","21881","","null","","","null","68","","","","","","","","","","","","","","","",""
"","ITI","","html-keyboard-response","458","598443","0.0-1.0-621.0","0","0","21881","","null","","","null","68","","","","","","","","","","","","","","","NaN",""
"","S1","","html-keyboard-response","459","598703","0.0-1.0-623.0","0","0","21881","","null","","","null","69","","","","","","","","","","","","","","","",""
"","ISI","","html-keyboard-response","460","599715","0.0-1.0-624.0","0","0","21881","","null","","","null","69","NaN","","","","","","","","","","","","","","",""
"","S2","","html-keyboard-response","461","599981","0.0-1.0-625.0","0","0","21881","","null","","","null","69","","NaN","","","","","","","","","","","","","",""
"","response","","html-keyboard-response","462","601111","0.0-1.0-626.0-0.0","0","0","21881","","1126","","","68","69","","","2","69","training","adjacent","DE","4","5","Q.jpg","R.jpg","0","1","0","",""
"","feedback","","html-keyboard-response","463","602130","0.0-1.0-627.0-0.0","0","0","21881","","null","","","null","69","","","","","","","","","","","","","","","",""
"","time_out","","html-keyboard-response","464","604143","0.0-1.0-629.0-0.0","0","0","21881","","null","","","null","69","","","","","","","","","","","","","","","",""
"","ITI","","html-keyboard-response","465","605152","0.0-1.0-630.0","0","0","21881","","null","","","null","69","","","","","","","","","","","","","","","NaN",""
"","S1","","html-keyboard-response","466","605409","0.0-1.0-632.0","0","0","21881","","null","","","null","70","","","","","","","","","","","","","","","",""
"","ISI","","html-keyboard-response","467","606422","0.0-1.0-633.0","0","0","21881","","null","","","null","70","NaN","","","","","","","","","","","","","","",""
"","S2","","html-keyboard-response","468","606686","0.0-1.0-634.0","0","0","21881","","null","","","null","70","","NaN","","","","","","","","","","","","","",""
"","response","","html-keyboard-response","469","607063","0.0-1.0-635.0-0.0","0","0","21881","","374","","","75","70","","","2","70","training","adjacent","AB","1","2","P.jpg","L.jpg","1","1","1","",""
"","feedback","","html-keyboard-response","470","608073","0.0-1.0-636.0-0.0","0","0","21881","","null","","","null","70","","","","","","","","","","","","","","","",""
"","ITI","","html-keyboard-response","471","609092","0.0-1.0-639.0","0","0","21881","","null","","","null","70","","","","","","","","","","","","","","","NaN",""
"","S1","","html-keyboard-response","472","609363","0.0-1.0-641.0","0","0","21881","","null","","","null","71","","","","","","","","","","","","","","","",""
"","ISI","","html-keyboard-response","473","610380","0.0-1.0-642.0","0","0","21881","","null","","","null","71","NaN","","","","","","","","","","","","","","",""
"","S2","","html-keyboard-response","474","610645","0.0-1.0-643.0","0","0","21881","","null","","","null","71","","NaN","","","","","","","","","","","","","",""
"","response","","html-keyboard-response","475","611693","0.0-1.0-644.0-0.0","0","0","21881","","1045","","","68","71","","","2","71","training","adjacent","DE","4","5","Q.jpg","R.jpg","0","1","0","",""
"","feedback","","html-keyboard-response","476","612707","0.0-1.0-645.0-0.0","0","0","21881","","null","","","null","71","","","","","","","","","","","","","","","",""
"","time_out","","html-keyboard-response","477","614713","0.0-1.0-647.0-0.0","0","0","21881","","null","","","null","71","","","","","","","","","","","","","","","",""
"","ITI","","html-keyboard-response","478","615728","0.0-1.0-648.0","0","0","21881","","null","","","null","71","","","","","","","","","","","","","","","NaN",""
"","S1","","html-keyboard-response","479","615990","0.0-1.0-650.0","0","0","21881","","null","","","null","72","","","","","","","","","","","","","","","",""
"","ISI","","html-keyboard-response","480","617000","0.0-1.0-651.0","0","0","21881","","null","","","null","72","NaN","","","","","","","","","","","","","","",""
"","S2","","html-keyboard-response","481","617258","0.0-1.0-652.0","0","0","21881","","null","","","null","72","","NaN","","","","","","","","","","","","","",""
"","response","","html-keyboard-response","482","617574","0.0-1.0-653.0-0.0","0","0","21881","","312","","","75","72","","","2","72","training","adjacent","ED","5","4","R.jpg","Q.jpg","1","0","0","",""
"","feedback","","html-keyboard-response","483","618583","0.0-1.0-654.0-0.0","0","0","21881","","null","","","null","72","","","","","","","","","","","","","","","",""
"","time_out","","html-keyboard-response","484","620589","0.0-1.0-656.0-0.0","0","0","21881","","null","","","null","72","","","","","","","","","","","","","","","",""
"","ITI","","html-keyboard-response","485","621608","0.0-1.0-657.0","0","0","21881","","null","","","null","72","","","","","","","","","","","","","","","NaN",""
"","S1","","html-keyboard-response","486","621870","0.0-1.0-659.0","0","0","21881","","null","","","null","73","","","","","","","","","","","","","","","",""
"","ISI","","html-keyboard-response","487","622883","0.0-1.0-660.0","0","0","21881","","null","","","null","73","NaN","","","","","","","","","","","","","","",""
"","S2","","html-keyboard-response","488","623144","0.0-1.0-661.0","0","0","21881","","null","","","null","73","","NaN","","","","","","","","","","","","","",""
"","response","","html-keyboard-response","489","623156","0.0-1.0-662.0-0.0","0","0","21881","","8","","","75","73","","","2","73","training","adjacent","CB","3","2","N.jpg","L.jpg","1","0","0","",""
"","feedback","","html-keyboard-response","490","624163","0.0-1.0-663.0-0.0","0","0","21881","","null","","","null","73","","","","","","","","","","","","","","","",""
"","time_out","","html-keyboard-response","491","626173","0.0-1.0-665.0-0.0","0","0","21881","","null","","","null","73","","","","","","","","","","","","","","","",""
"","ITI","","html-keyboard-response","492","627188","0.0-1.0-666.0","0","0","21881","","null","","","null","73","","","","","","","","","","","","","","","NaN",""
"","S1","","html-keyboard-response","493","627449","0.0-1.0-668.0","0","0","21881","","null","","","null","74","","","","","","","","","","","","","","","",""
"","ISI","","html-keyboard-response","494","628457","0.0-1.0-669.0","0","0","21881","","null","","","null","74","NaN","","","","","","","","","","","","","","",""
"","S2","","html-keyboard-response","495","628726","0.0-1.0-670.0","0","0","21881","","null","","","null","74","","NaN","","","","","","","","","","","","","",""
"","response","","html-keyboard-response","496","629281","0.0-1.0-671.0-0.0","0","0","21881","","551","","","68","74","","","2","74","training","adjacent","ED","5","4","R.jpg","Q.jpg","0","0","1","",""
"","feedback","","html-keyboard-response","497","630298","0.0-1.0-672.0-0.0","0","0","21881","","null","","","null","74","","","","","","","","","","","","","","","",""
"","ITI","","html-keyboard-response","498","631311","0.0-1.0-675.0","0","0","21881","","null","","","null","74","","","","","","","","","","","","","","","NaN",""
"","S1","","html-keyboard-response","499","631577","0.0-1.0-677.0","0","0","21881","","null","","","null","75","","","","","","","","","","","","","","","",""
"","ISI","","html-keyboard-response","500","632586","0.0-1.0-678.0","0","0","21881","","null","","","null","75","NaN","","","","","","","","","","","","","","",""
"","S2","","html-keyboard-response","501","632854","0.0-1.0-679.0","0","0","21881","","null","","","null","75","","NaN","","","","","","","","","","","","","",""
"","response","","html-keyboard-response","502","633296","0.0-1.0-680.0-0.0","0","0","21881","","439","","","75","75","","","2","75","training","adjacent","BA","2","1","L.jpg","P.jpg","1","0","0","",""
"","feedback","","html-keyboard-response","503","634315","0.0-1.0-681.0-0.0","0","0","21881","","null","","","null","75","","","","","","","","","","","","","","","",""
"","time_out","","html-keyboard-response","504","636334","0.0-1.0-683.0-0.0","0","0","21881","","null","","","null","75","","","","","","","","","","","","","","","",""
"","ITI","","html-keyboard-response","505","637350","0.0-1.0-684.0","0","0","21881","","null","","","null","75","","","","","","","","","","","","","","","NaN",""
"","S1","","html-keyboard-response","506","637615","0.0-1.0-686.0","0","0","21881","","null","","","null","76","","","","","","","","","","","","","","","",""
"","ISI","","html-keyboard-response","507","638630","0.0-1.0-687.0","0","0","21881","","null","","","null","76","NaN","","","","","","","","","","","","","","",""
"","S2","","html-keyboard-response","508","638898","0.0-1.0-688.0","0","0","21881","","null","","","null","76","","NaN","","","","","","","","","","","","","",""
"","response","","html-keyboard-response","509","640240","0.0-1.0-689.0-0.0","0","0","21881","","1339","","","68","76","","","2","76","training","adjacent","CD","3","4","N.jpg","Q.jpg","0","1","0","",""
"","feedback","","html-keyboard-response","510","641259","0.0-1.0-690.0-0.0","0","0","21881","","null","","","null","76","","","","","","","","","","","","","","","",""
"","time_out","","html-keyboard-response","511","643273","0.0-1.0-692.0-0.0","0","0","21881","","null","","","null","76","","","","","","","","","","","","","","","",""
"","ITI","","html-keyboard-response","512","644278","0.0-1.0-693.0","0","0","21881","","null","","","null","76","","","","","","","","","","","","","","","NaN",""
"","S1","","html-keyboard-response","513","644546","0.0-1.0-695.0","0","0","21881","","null","","","null","77","","","","","","","","","","","","","","","",""
"","ISI","","html-keyboard-response","514","645557","0.0-1.0-696.0","0","0","21881","","null","","","null","77","NaN","","","","","","","","","","","","","","",""
"","S2","","html-keyboard-response","515","645814","0.0-1.0-697.0","0","0","21881","","null","","","null","77","","NaN","","","","","","","","","","","","","",""
"","response","","html-keyboard-response","516","646926","0.0-1.0-698.0-0.0","0","0","21881","","1109","","","75","77","","","2","77","training","adjacent","CD","3","4","N.jpg","Q.jpg","1","1","1","",""
"","feedback","","html-keyboard-response","517","647946","0.0-1.0-699.0-0.0","0","0","21881","","null","","","null","77","","","","","","","","","","","","","","","",""
"","ITI","","html-keyboard-response","518","648965","0.0-1.0-702.0","0","0","21881","","null","","","null","77","","","","","","","","","","","","","","","NaN",""
"","S1","","html-keyboard-response","519","649232","0.0-1.0-704.0","0","0","21881","","null","","","null","78","","","","","","","","","","","","","","","",""
"","ISI","","html-keyboard-response","520","650243","0.0-1.0-705.0","0","0","21881","","null","","","null","78","NaN","","","","","","","","","","","","","","",""
"","S2","","html-keyboard-response","521","650511","0.0-1.0-706.0","0","0","21881","","null","","","null","78","","NaN","","","","","","","","","","","","","",""
"","response","","html-keyboard-response","522","651197","0.0-1.0-707.0-0.0","0","0","21881","","681","","","68","78","","","2","78","training","adjacent","FE","6","5","M.jpg","R.jpg","0","0","1","",""
"","feedback","","html-keyboard-response","523","652213","0.0-1.0-708.0-0.0","0","0","21881","","null","","","null","78","","","","","","","","","","","","","","","",""
"","ITI","","html-keyboard-response","524","653220","0.0-1.0-711.0","0","0","21881","","null","","","null","78","","","","","","","","","","","","","","","NaN",""
"","S1","","html-keyboard-response","525","653480","0.0-1.0-713.0","0","0","21881","","null","","","null","79","","","","","","","","","","","","","","","",""
"","ISI","","html-keyboard-response","526","654489","0.0-1.0-714.0","0","0","21881","","null","","","null","79","NaN","","","","","","","","","","","","","","",""
"","S2","","html-keyboard-response","527","654752","0.0-1.0-715.0","0","0","21881","","null","","","null","79","","NaN","","","","","","","","","","","","","",""
"","response","","html-keyboard-response","528","655570","0.0-1.0-716.0-0.0","0","0","21881","","814","","","68","79","","","2","79","training","adjacent","FE","6","5","M.jpg","R.jpg","0","0","1","",""
"","feedback","","html-keyboard-response","529","656576","0.0-1.0-717.0-0.0","0","0","21881","","null","","","null","79","","","","","","","","","","","","","","","",""
"","ITI","","html-keyboard-response","530","657594","0.0-1.0-720.0","0","0","21881","","null","","","null","79","","","","","","","","","","","","","","","NaN",""
"","S1","","html-keyboard-response","531","657858","0.0-1.0-722.0","0","0","21881","","null","","","null","80","","","","","","","","","","","","","","","",""
"","ISI","","html-keyboard-response","532","658865","0.0-1.0-723.0","0","0","21881","","null","","","null","80","NaN","","","","","","","","","","","","","","",""
"","S2","","html-keyboard-response","533","659120","0.0-1.0-724.0","0","0","21881","","null","","","null","80","","NaN","","","","","","","","","","","","","",""
"","response","","html-keyboard-response","534","659881","0.0-1.0-725.0-0.0","0","0","21881","","758","","","68","80","","","2","80","training","adjacent","FE","6","5","M.jpg","R.jpg","0","0","1","",""
"","feedback","","html-keyboard-response","535","660887","0.0-1.0-726.0-0.0","0","0","21881","","null","","","null","80","","","","","","","","","","","","","","","",""
"","ITI","","html-keyboard-response","536","661893","0.0-1.0-729.0","0","0","21881","","null","","","null","80","","","","","","","","","","","","","","","NaN",""
"","S1","","html-keyboard-response","537","662148","0.0-1.0-731.0","0","0","21881","","null","","","null","81","","","","","","","","","","","","","","","",""
"","ISI","","html-keyboard-response","538","663153","0.0-1.0-732.0","0","0","21881","","null","","","null","81","NaN","","","","","","","","","","","","","","",""
"","S2","","html-keyboard-response","539","663407","0.0-1.0-733.0","0","0","21881","","null","","","null","81","","NaN","","","","","","","","","","","","","",""
"","response","","html-keyboard-response","540","664411","0.0-1.0-734.0-0.0","0","0","21881","","1000","","","68","81","","","2","81","training","adjacent","AB","1","2","P.jpg","L.jpg","0","1","0","",""
"","feedback","","html-keyboard-response","541","665424","0.0-1.0-735.0-0.0","0","0","21881","","null","","","null","81","","","","","","","","","","","","","","","",""
"","time_out","","html-keyboard-response","542","667438","0.0-1.0-737.0-0.0","0","0","21881","","null","","","null","81","","","","","","","","","","","","","","","",""
"","ITI","","html-keyboard-response","543","668448","0.0-1.0-738.0","0","0","21881","","null","","","null","81","","","","","","","","","","","","","","","NaN",""
"","S1","","html-keyboard-response","544","668715","0.0-1.0-740.0","0","0","21881","","null","","","null","82","","","","","","","","","","","","","","","",""
"","ISI","","html-keyboard-response","545","669719","0.0-1.0-741.0","0","0","21881","","null","","","null","82","NaN","","","","","","","","","","","","","","",""
"","S2","","html-keyboard-response","546","669985","0.0-1.0-742.0","0","0","21881","","null","","","null","82","","NaN","","","","","","","","","","","","","",""
"","response","","html-keyboard-response","547","670606","0.0-1.0-743.0-0.0","0","0","21881","","618","","","68","82","","","2","82","training","adjacent","DE","4","5","Q.jpg","R.jpg","0","1","0","",""
"","feedback","","html-keyboard-response","548","671619","0.0-1.0-744.0-0.0","0","0","21881","","null","","","null","82","","","","","","","","","","","","","","","",""
"","time_out","","html-keyboard-response","549","673628","0.0-1.0-746.0-0.0","0","0","21881","","null","","","null","82","","","","","","","","","","","","","","","",""
"","ITI","","html-keyboard-response","550","674644","0.0-1.0-747.0","0","0","21881","","null","","","null","82","","","","","","","","","","","","","","","NaN",""
"","S1","","html-keyboard-response","551","674909","0.0-1.0-749.0","0","0","21881","","null","","","null","83","","","","","","","","","","","","","","","",""
"","ISI","","html-keyboard-response","552","675920","0.0-1.0-750.0","0","0","21881","","null","","","null","83","NaN","","","","","","","","","","","","","","",""
"","S2","","html-keyboard-response","553","676179","0.0-1.0-751.0","0","0","21881","","null","","","null","83","","NaN","","","","","","","","","","","","","",""
"","response","","html-keyboard-response","554","677940","0.0-1.0-752.0-0.0","0","0","21881","","null","","","null","83","","","2","83","training","adjacent","GF","7","6","O.jpg","M.jpg","NaN","0","0","",""
"","too_slow_prompt","","html-keyboard-response","555","678958","0.0-1.0-754.0-0.0","1","0","21881","","null","","","null","","","","","","","","","","","","","","","","",""
"","time_out","","html-keyboard-response","556","680970","0.0-1.0-755.0-0.0","0","0","21881","","null","","","null","83","","","","","","","","","","","","","","","",""
"","ITI","","html-keyboard-response","557","681973","0.0-1.0-756.0","0","0","21881","","null","","","null","83","","","","","","","","","","","","","","","NaN",""
"","S1","","html-keyboard-response","558","682230","0.0-1.0-758.0","0","0","21881","","null","","","null","84","","","","","","","","","","","","","","","",""
"","ISI","","html-keyboard-response","559","683247","0.0-1.0-759.0","0","0","21881","","null","","","null","84","NaN","","","","","","","","","","","","","","",""
"","S2","","html-keyboard-response","560","683516","0.0-1.0-760.0","0","0","21881","","null","","","null","84","","NaN","","","","","","","","","","","","","",""
"","response","","html-keyboard-response","561","683811","0.0-1.0-761.0-0.0","0","0","21881","","291","","","75","84","","","2","84","training","adjacent","EF","5","6","R.jpg","M.jpg","1","1","1","",""
"","feedback","","html-keyboard-response","562","684830","0.0-1.0-762.0-0.0","0","0","21881","","null","","","null","84","","","","","","","","","","","","","","","",""
"","ITI","","html-keyboard-response","563","685847","0.0-1.0-765.0","0","0","21881","","null","","","null","84","","","","","","","","","","","","","","","NaN",""
"","S1","","html-keyboard-response","564","686114","0.0-1.0-767.0","0","0","21881","","null","","","null","85","","","","","","","","","","","","","","","",""
"","ISI","","html-keyboard-response","565","687130","0.0-1.0-768.0","0","0","21881","","null","","","null","85","NaN","","","","","","","","","","","","","","",""
"","S2","","html-keyboard-response","566","687396","0.0-1.0-769.0","0","0","21881","","null","","","null","85","","NaN","","","","","","","","","","","","","",""
"","response","","html-keyboard-response","567","687969","0.0-1.0-770.0-0.0","0","0","21881","","569","","","68","85","","","2","85","training","adjacent","DC","4","3","Q.jpg","N.jpg","0","0","1","",""
"","feedback","","html-keyboard-response","568","688986","0.0-1.0-771.0-0.0","0","0","21881","","null","","","null","85","","","","","","","","","","","","","","","",""
"","ITI","","html-keyboard-response","569","689998","0.0-1.0-774.0","0","0","21881","","null","","","null","85","","","","","","","","","","","","","","","NaN",""
"","S1","","html-keyboard-response","570","690254","0.0-1.0-776.0","0","0","21881","","null","","","null","86","","","","","","","","","","","","","","","",""
"","ISI","","html-keyboard-response","571","691261","0.0-1.0-777.0","0","0","21881","","null","","","null","86","NaN","","","","","","","","","","","","","","",""
"","S2","","html-keyboard-response","572","691528","0.0-1.0-778.0","0","0","21881","","null","","","null","86","","NaN","","","","","","","","","","","","","",""
"","response","","html-keyboard-response","573","692628","0.0-1.0-779.0-0.0","0","0","21881","","1097","","","68","86","","","2","86","training","adjacent","EF","5","6","R.jpg","M.jpg","0","1","0","",""
"","feedback","","html-keyboard-response","574","693639","0.0-1.0-780.0-0.0","0","0","21881","","null","","","null","86","","","","","","","","","","","","","","","",""
"","time_out","","html-keyboard-response","575","695648","0.0-1.0-782.0-0.0","0","0","21881","","null","","","null","86","","","","","","","","","","","","","","","",""
"","ITI","","html-keyboard-response","576","696664","0.0-1.0-783.0","0","0","21881","","null","","","null","86","","","","","","","","","","","","","","","NaN",""
"","S1","","html-keyboard-response","577","696929","0.0-1.0-785.0","0","0","21881","","null","","","null","87","","","","","","","","","","","","","","","",""
"","ISI","","html-keyboard-response","578","697933","0.0-1.0-786.0","0","0","21881","","null","","","null","87","NaN","","","","","","","","","","","","","","",""
"","S2","","html-keyboard-response","579","698187","0.0-1.0-787.0","0","0","21881","","null","","","null","87","","NaN","","","","","","","","","","","","","",""
"","response","","html-keyboard-response","580","699244","0.0-1.0-788.0-0.0","0","0","21881","","1052","","","68","87","","","2","87","training","adjacent","GF","7","6","O.jpg","M.jpg","0","0","1","",""
"","feedback","","html-keyboard-response","581","700262","0.0-1.0-789.0-0.0","0","0","21881","","null","","","null","87","","","","","","","","","","","","","","","",""
"","ITI","","html-keyboard-response","582","701278","0.0-1.0-792.0","0","0","21881","","null","","","null","87","","","","","","","","","","","","","","","NaN",""
