"success","ttype","start_time","trial_type","trial_index","time_elapsed","internal_node_id","warning","missed_checkup","PID","view_history","rt","responses","repeat_instructions","key_press","index","keypress_isi","keypress_S2","block","trial_num","phase","group_type","pair_type","S1_stim","S2_stim","S1_img","S2_img","S1_chosen","S1_higher","accuracy","keypress_iti","total_bonus_tally"
"true","full_screen","d04132023hr1635","fullscreen","0","10172","0.0-0.0","0","0","88363","","","","","","","","","","","","","","","","","","","","","",""
"","instructions","","instructions","1","38894","0.0-1.0-0.0-0.0","0","0","88363","[{""page_index"":0,""viewing_time"":4929},{""page_index"":1,""viewing_time"":13801},{""page_index"":2,""viewing_time"":7899},{""page_index"":3,""viewing_time"":2091}]","28720","","","","","","","","","","","","","","","","","","","",""
"","comprehension_check","","survey-multi-choice","2","63065","0.0-1.0-0.0-1.0","0","0","88363","","24168","{""Q0"":""True"",""Q1"":""K"",""Q2"":""Once the second image appears and while the screen 'MAKE A CHOICE' is shown"",""Q3"":""Green mark"",""Q4"":""either D or K""}","0","","","","","","","","","","","","","","","","","",""
"","start_exp","","html-keyboard-response","3","64843","0.0-1.0-1.0","0","0","88363","","1776","","","32","","","","","","","","","","","","","","","","",""
"","S1","","html-keyboard-response","4","65110","0.0-1.0-2.0","0","0","88363","","null","","","null","0","","","","","","","","","","","","","","","",""
"","ISI","","html-keyboard-response","5","66113","0.0-1.0-3.0","0","0","88363","","null","","","null","0","NaN","","","","","","","","","","","","","","",""
"","S2","","html-keyboard-response","6","66369","0.0-1.0-4.0","0","0","88363","","null","","","null","0","","NaN","","","","","","","","","","","","","",""
"","response","","html-keyboard-response","7","67677","0.0-1.0-5.0-0.0","0","0","88363","","1306","","","68","0","","","1","0","training","adjacent","DE","4","5","O.jpg","Q.jpg","0","1","0","",""
"","feedback","","html-keyboard-response","8","68686","0.0-1.0-6.0-0.0","0","0","88363","","null","","","null","0","","","","","","","","","","","","","","","",""
"","time_out","","html-keyboard-response","9","70697","0.0-1.0-8.0-0.0","0","0","88363","","null","","","null","0","","","","","","","","","","","","","","","",""
"","ITI","","html-keyboard-response","10","71707","0.0-1.0-9.0","0","0","88363","","null","","","null","0","","","","","","","","","","","","","","","NaN",""
"","S1","","html-keyboard-response","11","71962","0.0-1.0-11.0","0","0","88363","","null","","","null","1","","","","","","","","","","","","","","","",""
"","ISI","","html-keyboard-response","12","72976","0.0-1.0-12.0","0","0","88363","","null","","","null","1","NaN","","","","","","","","","","","","","","",""
"","S2","","html-keyboard-response","13","73231","0.0-1.0-13.0","0","0","88363","","null","","","null","1","","NaN","","","","","","","","","","","","","",""
"","response","","html-keyboard-response","14","74273","0.0-1.0-14.0-0.0","0","0","88363","","1040","","","75","1","","","1","1","training","adjacent","BC","2","3","L.jpg","P.jpg","1","1","1","",""
"","feedback","","html-keyboard-response","15","75290","0.0-1.0-15.0-0.0","0","0","88363","","null","","","null","1","","","","","","","","","","","","","","","",""
"","ITI","","html-keyboard-response","16","76298","0.0-1.0-18.0","0","0","88363","","null","","","null","1","","","","","","","","","","","","","","","NaN",""
"","S1","","html-keyboard-response","17","76553","0.0-1.0-20.0","0","0","88363","","null","","","null","2","","","","","","","","","","","","","","","",""
"","ISI","","html-keyboard-response","18","77558","0.0-1.0-21.0","0","0","88363","","null","","","null","2","NaN","","","","","","","","","","","","","","",""
"","S2","","html-keyboard-response","19","77814","0.0-1.0-22.0","0","0","88363","","null","","","null","2","","NaN","","","","","","","","","","","","","",""
"","response","","html-keyboard-response","20","78930","0.0-1.0-23.0-0.0","0","0","88363","","1116","","","75","2","","","1","2","training","adjacent","GF","7","6","N.jpg","R.jpg","1","0","0","",""
"","feedback","","html-keyboard-response","21","79937","0.0-1.0-24.0-0.0","0","0","88363","","null","","","null","2","","","","","","","","","","","","","","","",""
"","time_out","","html-keyboard-response","22","81950","0.0-1.0-26.0-0.0","0","0","88363","","null","","","null","2","","","","","","","","","","","","","","","",""
"","ITI","","html-keyboard-response","23","82954","0.0-1.0-27.0","0","0","88363","","null","","","null","2","","","","","","","","","","","","","","","NaN",""
"","S1","","html-keyboard-response","24","83210","0.0-1.0-29.0","0","0","88363","","null","","","null","3","","","","","","","","","","","","","","","",""
"","ISI","","html-keyboard-response","25","84216","0.0-1.0-30.0","0","0","88363","","null","","","null","3","NaN","","","","","","","","","","","","","","",""
"","S2","","html-keyboard-response","26","84472","0.0-1.0-31.0","0","0","88363","","null","","","null","3","","NaN","","","","","","","","","","","","","",""
"","response","","html-keyboard-response","27","86225","0.0-1.0-32.0-0.0","0","0","88363","","null","","","null","3","","","1","3","training","adjacent","BA","2","1","L.jpg","M.jpg","NaN","0","0","",""
"","too_slow_prompt","","html-keyboard-response","28","87241","0.0-1.0-34.0-0.0","1","0","88363","","null","","","null","","","","","","","","","","","","","","","","",""
"","time_out","","html-keyboard-response","29","89250","0.0-1.0-35.0-0.0","0","0","88363","","null","","","null","3","","","","","","","","","","","","","","","",""
"","ITI","","html-keyboard-response","30","90254","0.0-1.0-36.0","0","0","88363","","null","","","null","3","","","","","","","","","","","","","","","NaN",""
"","S1","","html-keyboard-response","31","90509","0.0-1.0-38.0","0","0","88363","","null","","","null","4","","","","","","","","","","","","","","","",""
"","ISI","","html-keyboard-response","32","91510","0.0-1.0-39.0","0","0","88363","","null","","","null","4","NaN","","","","","","","","","","","","","","",""
"","S2","","html-keyboard-response","33","91766","0.0-1.0-40.0","0","0","88363","","null","","","null","4","","NaN","","","","","","","","","","","","","",""
"","response","","html-keyboard-response","34","92587","0.0-1.0-41.0-0.0","0","0","88363","","820","","","75","4","","","1","4","training","adjacent","CD","3","4","P.jpg","O.jpg","1","1","1","",""
"","feedback","","html-keyboard-response","35","93596","0.0-1.0-42.0-0.0","0","0","88363","","null","","","null","4","","","","","","","","","","","","","","","",""
"","ITI","","html-keyboard-response","36","94600","0.0-1.0-45.0","0","0","88363","","null","","","null","4","","","","","","","","","","","","","","","NaN",""
"","S1","","html-keyboard-response","37","94853","0.0-1.0-47.0","0","0","88363","","null","","","null","5","","","","","","","","","","","","","","","",""
"","ISI","","html-keyboard-response","38","95861","0.0-1.0-48.0","0","0","88363","","null","","","null","5","NaN","","","","","","","","","","","","","","",""
"","S2","","html-keyboard-response","39","96118","0.0-1.0-49.0","0","0","88363","","null","","","null","5","","NaN","","","","","","","","","","","","","",""
"","response","","html-keyboard-response","40","97472","0.0-1.0-50.0-0.0","0","0","88363","","1353","","","68","5","","","1","5","training","adjacent","ED","5","4","Q.jpg","O.jpg","0","0","1","",""
"","feedback","","html-keyboard-response","41","98480","0.0-1.0-51.0-0.0","0","0","88363","","null","","","null","5","","","","","","","","","","","","","","","",""
"","ITI","","html-keyboard-response","42","99482","0.0-1.0-54.0","0","0","88363","","null","","","null","5","","","","","","","","","","","","","","","NaN",""
"","S1","","html-keyboard-response","43","99737","0.0-1.0-56.0","0","0","88363","","null","","","null","6","","","","","","","","","","","","","","","",""
"","ISI","","html-keyboard-response","44","100745","0.0-1.0-57.0","0","0","88363","","null","","","null","6","NaN","","","","","","","","","","","","","","",""
"","S2","","html-keyboard-response","45","101001","0.0-1.0-58.0","0","0","88363","","null","","","null","6","","NaN","","","","","","","","","","","","","",""
"","response","","html-keyboard-response","46","101509","0.0-1.0-59.0-0.0","0","0","88363","","507","","","75","6","","","1","6","training","adjacent","CD","3","4","P.jpg","O.jpg","1","1","1","",""
"","feedback","","html-keyboard-response","47","102517","0.0-1.0-60.0-0.0","0","0","88363","","null","","","null","6","","","","","","","","","","","","","","","",""
"","ITI","","html-keyboard-response","48","103521","0.0-1.0-63.0","0","0","88363","","null","","","null","6","","","","","","","","","","","","","","","NaN",""
"","S1","","html-keyboard-response","49","103775","0.0-1.0-65.0","0","0","88363","","null","","","null","7","","","","","","","","","","","","","","","",""
"","ISI","","html-keyboard-response","50","104789","0.0-1.0-66.0","0","0","88363","","null","","","null","7","NaN","","","","","","","","","","","","","","",""
"","S2","","html-keyboard-response","51","105044","0.0-1.0-67.0","0","0","88363","","null","","","null","7","","NaN","","","","","","","","","","","","","",""
"","response","","html-keyboard-response","52","106558","0.0-1.0-68.0-0.0","0","0","88363","","1513","","","75","7","","","1","7","training","adjacent","DE","4","5","O.jpg","Q.jpg","1","1","1","",""
"","feedback","","html-keyboard-response","53","107561","0.0-1.0-69.0-0.0","0","0","88363","","null","","","null","7","","","","","","","","","","","","","","","",""
"","ITI","","html-keyboard-response","54","108567","0.0-1.0-72.0","0","0","88363","","null","","","null","7","","","","","","","","","","","","","","","NaN",""
"","S1","","html-keyboard-response","55","108822","0.0-1.0-74.0","0","0","88363","","null","","","null","8","","","","","","","","","","","","","","","",""
"","ISI","","html-keyboard-response","56","109830","0.0-1.0-75.0","0","0","88363","","null","","","null","8","NaN","","","","","","","","","","","","","","",""
"","S2","","html-keyboard-response","57","110085","0.0-1.0-76.0","0","0","88363","","null","","","null","8","","NaN","","","","","","","","","","","","","",""
"","response","","html-keyboard-response","58","110788","0.0-1.0-77.0-0.0","0","0","88363","","702","","","68","8","","","1","8","training","adjacent","BA","2","1","L.jpg","M.jpg","0","0","1","",""
"","feedback","","html-keyboard-response","59","111795","0.0-1.0-78.0-0.0","0","0","88363","","null","","","null","8","","","","","","","","","","","","","","","",""
"","ITI","","html-keyboard-response","60","112800","0.0-1.0-81.0","0","0","88363","","null","","","null","8","","","","","","","","","","","","","","","NaN",""
"","S1","","html-keyboard-response","61","113054","0.0-1.0-83.0","0","0","88363","","null","","","null","9","","","","","","","","","","","","","","","",""
"","ISI","","html-keyboard-response","62","114058","0.0-1.0-84.0","0","0","88363","","null","","","null","9","NaN","","","","","","","","","","","","","","",""
"","S2","","html-keyboard-response","63","114313","0.0-1.0-85.0","0","0","88363","","null","","","null","9","","NaN","","","","","","","","","","","","","",""
"","response","","html-keyboard-response","64","115370","0.0-1.0-86.0-0.0","0","0","88363","","1055","","","75","9","","","1","9","training","adjacent","FG","6","7","R.jpg","N.jpg","1","1","1","",""
"","feedback","","html-keyboard-response","65","116376","0.0-1.0-87.0-0.0","0","0","88363","","null","","","null","9","","","","","","","","","","","","","","","",""
"","ITI","","html-keyboard-response","66","117383","0.0-1.0-90.0","0","0","88363","","null","","","null","9","","","","","","","","","","","","","","","NaN",""
"","S1","","html-keyboard-response","67","117637","0.0-1.0-92.0","0","0","88363","","null","","","null","10","","","","","","","","","","","","","","","",""
"","ISI","","html-keyboard-response","68","118644","0.0-1.0-93.0","0","0","88363","","null","","","null","10","NaN","","","","","","","","","","","","","","",""
"","S2","","html-keyboard-response","69","118897","0.0-1.0-94.0","0","0","88363","","null","","","null","10","","NaN","","","","","","","","","","","","","",""
"","response","","html-keyboard-response","70","119839","0.0-1.0-95.0-0.0","0","0","88363","","941","","","68","10","","","1","10","training","adjacent","EF","5","6","Q.jpg","R.jpg","0","1","0","",""
"","feedback","","html-keyboard-response","71","120846","0.0-1.0-96.0-0.0","0","0","88363","","null","","","null","10","","","","","","","","","","","","","","","",""
"","time_out","","html-keyboard-response","72","122851","0.0-1.0-98.0-0.0","0","0","88363","","null","","","null","10","","","","","","","","","","","","","","","",""
"","ITI","","html-keyboard-response","73","123855","0.0-1.0-99.0","0","0","88363","","null","","","null","10","","","","","","","","","","","","","","","NaN",""
"","S1","","html-keyboard-response","74","124110","0.0-1.0-101.0","0","0","88363","","null","","","null","11","","","","","","","","","","","","","","","",""
"","ISI","","html-keyboard-response","75","125112","0.0-1.0-102.0","0","0","88363","","null","","","null","11","NaN","","","","","","","","","","","","","","",""
"","S2","","html-keyboard-response","76","125366","0.0-1.0-103.0","0","0","88363","","null","","","null","11","","NaN","","","","","","","","","","","","","",""
"","response","","html-keyboard-response","77","126375","0.0-1.0-104.0-0.0","0","0","88363","","1008","","","75","11","","","1","11","training","adjacent","CB","3","2","P.jpg","L.jpg","1","0","0","",""
"","feedback","","html-keyboard-response","78","127386","0.0-1.0-105.0-0.0","0","0","88363","","null","","","null","11","","","","","","","","","","","","","","","",""
"","time_out","","html-keyboard-response","79","129397","0.0-1.0-107.0-0.0","0","0","88363","","null","","","null","11","","","","","","","","","","","","","","","",""
"","ITI","","html-keyboard-response","80","130401","0.0-1.0-108.0","0","0","88363","","null","","","null","11","","","","","","","","","","","","","","","NaN",""
"","S1","","html-keyboard-response","81","130657","0.0-1.0-110.0","0","0","88363","","null","","","null","12","","","","","","","","","","","","","","","",""
"","ISI","","html-keyboard-response","82","131666","0.0-1.0-111.0","0","0","88363","","null","","","null","12","NaN","","","","","","","","","","","","","","",""
"","S2","","html-keyboard-response","83","131921","0.0-1.0-112.0","0","0","88363","","null","","","null","12","","NaN","","","","","","","","","","","","","",""
"","response","","html-keyboard-response","84","132507","0.0-1.0-113.0-0.0","0","0","88363","","585","","","75","12","","","1","12","training","adjacent","CD","3","4","P.jpg","O.jpg","1","1","1","",""
"","feedback","","html-keyboard-response","85","133518","0.0-1.0-114.0-0.0","0","0","88363","","null","","","null","12","","","","","","","","","","","","","","","",""
"","ITI","","html-keyboard-response","86","134524","0.0-1.0-117.0","0","0","88363","","null","","","null","12","","","","","","","","","","","","","","","NaN",""
"","S1","","html-keyboard-response","87","134778","0.0-1.0-119.0","0","0","88363","","null","","","null","13","","","","","","","","","","","","","","","",""
"","ISI","","html-keyboard-response","88","135784","0.0-1.0-120.0","0","0","88363","","null","","","null","13","NaN","","","","","","","","","","","","","","",""
"","S2","","html-keyboard-response","89","136038","0.0-1.0-121.0","0","0","88363","","null","","","null","13","","NaN","","","","","","","","","","","","","",""
"","response","","html-keyboard-response","90","137072","0.0-1.0-122.0-0.0","0","0","88363","","1032","","","68","13","","","1","13","training","adjacent","FE","6","5","R.jpg","Q.jpg","0","0","1","",""
"","feedback","","html-keyboard-response","91","138086","0.0-1.0-123.0-0.0","0","0","88363","","null","","","null","13","","","","","","","","","","","","","","","",""
"","ITI","","html-keyboard-response","92","139088","0.0-1.0-126.0","0","0","88363","","null","","","null","13","","","","","","","","","","","","","","","NaN",""
"","S1","","html-keyboard-response","93","139342","0.0-1.0-128.0","0","0","88363","","null","","","null","14","","","","","","","","","","","","","","","",""
"","ISI","","html-keyboard-response","94","140353","0.0-1.0-129.0","0","0","88363","","null","","","null","14","NaN","","","","","","","","","","","","","","",""
"","S2","","html-keyboard-response","95","140610","0.0-1.0-130.0","0","0","88363","","null","","","null","14","","NaN","","","","","","","","","","","","","",""
"","response","","html-keyboard-response","96","142118","0.0-1.0-131.0-0.0","0","0","88363","","1507","","","75","14","","","1","14","training","adjacent","AB","1","2","M.jpg","L.jpg","1","1","1","",""
"","feedback","","html-keyboard-response","97","143131","0.0-1.0-132.0-0.0","0","0","88363","","null","","","null","14","","","","","","","","","","","","","","","",""
"","ITI","","html-keyboard-response","98","144137","0.0-1.0-135.0","0","0","88363","","null","","","null","14","","","","","","","","","","","","","","","NaN",""
"","S1","","html-keyboard-response","99","144393","0.0-1.0-137.0","0","0","88363","","null","","","null","15","","","","","","","","","","","","","","","",""
"","ISI","","html-keyboard-response","100","145400","0.0-1.0-138.0","0","0","88363","","null","","","null","15","NaN","","","","","","","","","","","","","","",""
"","S2","","html-keyboard-response","101","145653","0.0-1.0-139.0","0","0","88363","","null","","","null","15","","NaN","","","","","","","","","","","","","",""
"","response","","html-keyboard-response","102","146631","0.0-1.0-140.0-0.0","0","0","88363","","978","","","68","15","","","1","15","training","adjacent","BC","2","3","L.jpg","P.jpg","0","1","0","",""
"","feedback","","html-keyboard-response","103","147647","0.0-1.0-141.0-0.0","0","0","88363","","null","","","null","15","","","","","","","","","","","","","","","",""
"","time_out","","html-keyboard-response","104","149652","0.0-1.0-143.0-0.0","0","0","88363","","null","","","null","15","","","","","","","","","","","","","","","",""
"","ITI","","html-keyboard-response","105","150666","0.0-1.0-144.0","0","0","88363","","null","","","null","15","","","","","","","","","","","","","","","NaN",""
"","S1","","html-keyboard-response","106","150921","0.0-1.0-146.0","0","0","88363","","null","","","null","16","","","","","","","","","","","","","","","",""
"","ISI","","html-keyboard-response","107","151933","0.0-1.0-147.0","0","0","88363","","null","","","null","16","NaN","","","","","","","","","","","","","","",""
"","S2","","html-keyboard-response","108","152188","0.0-1.0-148.0","0","0","88363","","null","","","null","16","","NaN","","","","","","","","","","","","","",""
"","response","","html-keyboard-response","109","153187","0.0-1.0-149.0-0.0","0","0","88363","","997","","","75","16","","","1","16","training","adjacent","FE","6","5","R.jpg","Q.jpg","1","0","0","",""
"","feedback","","html-keyboard-response","110","154191","0.0-1.0-150.0-0.0","0","0","88363","","null","","","null","16","","","","","","","","","","","","","","","",""
"","time_out","","html-keyboard-response","111","156202","0.0-1.0-152.0-0.0","0","0","88363","","null","","","null","16","","","","","","","","","","","","","","","",""
"","ITI","","html-keyboard-response","112","157208","0.0-1.0-153.0","0","0","88363","","null","","","null","16","","","","","","","","","","","","","","","NaN",""
"","S1","","html-keyboard-response","113","157464","0.0-1.0-155.0","0","0","88363","","null","","","null","17","","","","","","","","","","","","","","","",""
"","ISI","","html-keyboard-response","114","158466","0.0-1.0-156.0","0","0","88363","","null","","","null","17","NaN","","","","","","","","","","","","","","",""
"","S2","","html-keyboard-response","115","158719","0.0-1.0-157.0","0","0","88363","","null","","","null","17","","NaN","","","","","","","","","","","","","",""
"","response","","html-keyboard-response","116","159794","0.0-1.0-158.0-0.0","0","0","88363","","1074","","","75","17","","","1","17","training","adjacent","ED","5","4","Q.jpg","O.jpg","1","0","0","",""
"","feedback","","html-keyboard-response","117","160807","0.0-1.0-159.0-0.0","0","0","88363","","null","","","null","17","","","","","","","","","","","","","","","",""
"","time_out","","html-keyboard-response","118","162814","0.0-1.0-161.0-0.0","0","0","88363","","null","","","null","17","","","","","","","","","","","","","","","",""
"","ITI","","html-keyboard-response","119","163821","0.0-1.0-162.0","0","0","88363","","null","","","null","17","","","","","","","","","","","","","","","NaN",""
"","S1","","html-keyboard-response","120","164078","0.0-1.0-164.0","0","0","88363","","null","","","null","18","","","","","","","","","","","","","","","",""
"","ISI","","html-keyboard-response","121","165081","0.0-1.0-165.0","0","0","88363","","null","","","null","18","NaN","","","","","","","","","","","","","","",""
"","S2","","html-keyboard-response","122","165337","0.0-1.0-166.0","0","0","88363","","null","","","null","18","","NaN","","","","","","","","","","","","","",""
"","response","","html-keyboard-response","123","165889","0.0-1.0-167.0-0.0","0","0","88363","","550","","","68","18","","","1","18","training","adjacent","EF","5","6","Q.jpg","R.jpg","0","1","0","",""
"","feedback","","html-keyboard-response","124","166904","0.0-1.0-168.0-0.0","0","0","88363","","null","","","null","18","","","","","","","","","","","","","","","",""
"","time_out","","html-keyboard-response","125","168914","0.0-1.0-170.0-0.0","0","0","88363","","null","","","null","18","","","","","","","","","","","","","","","",""
"","ITI","","html-keyboard-response","126","169922","0.0-1.0-171.0","0","0","88363","","null","","","null","18","","","","","","","","","","","","","","","NaN",""
"","S1","","html-keyboard-response","127","170176","0.0-1.0-173.0","0","0","88363","","null","","","null","19","","","","","","","","","","","","","","","",""
"","ISI","","html-keyboard-response","128","171191","0.0-1.0-174.0","0","0","88363","","null","","","null","19","NaN","","","","","","","","","","","","","","",""
"","S2","","html-keyboard-response","129","171447","0.0-1.0-175.0","0","0","88363","","null","","","null","19","","NaN","","","","","","","","","","","","","",""
"","response","","html-keyboard-response","130","172037","0.0-1.0-176.0-0.0","0","0","88363","","589","","","68","19","","","1","19","training","adjacent","GF","7","6","N.jpg","R.jpg","0","0","1","",""
"","feedback","","html-keyboard-response","131","173040","0.0-1.0-177.0-0.0","0","0","88363","","null","","","null","19","","","","","","","","","","","","","","","",""
"","ITI","","html-keyboard-response","132","174047","0.0-1.0-180.0","0","0","88363","","null","","","null","19","","","","","","","","","","","","","","","NaN",""
"","S1","","html-keyboard-response","133","174302","0.0-1.0-182.0","0","0","88363","","null","","","null","20","","","","","","","","","","","","","","","",""
"","ISI","","html-keyboard-response","134","175310","0.0-1.0-183.0","0","0","88363","","null","","","null","20","NaN","","","","","","","","","","","","","","",""
"","S2","","html-keyboard-response","135","175565","0.0-1.0-184.0","0","0","88363","","null","","","null","20","","NaN","","","","","","","","","","","","","",""
"","response","","html-keyboard-response","136","177301","0.0-1.0-185.0-0.0","0","0","88363","","1735","","","75","20","","","1","20","training","adjacent","DC","4","3","O.jpg","P.jpg","1","0","0","",""
"","feedback","","html-keyboard-response","137","178315","0.0-1.0-186.0-0.0","0","0","88363","","null","","","null","20","","","","","","","","","","","","","","","",""
"","time_out","","html-keyboard-response","138","180321","0.0-1.0-188.0-0.0","0","0","88363","","null","","","null","20","","","","","","","","","","","","","","","",""
"","ITI","","html-keyboard-response","139","181322","0.0-1.0-189.0","0","0","88363","","null","","","null","20","","","","","","","","","","","","","","","NaN",""
"","S1","","html-keyboard-response","140","181588","0.0-1.0-191.0","0","0","88363","","null","","","null","21","","","","","","","","","","","","","","","",""
"","ISI","","html-keyboard-response","141","182594","0.0-1.0-192.0","0","0","88363","","null","","","null","21","NaN","","","","","","","","","","","","","","",""
"","S2","","html-keyboard-response","142","182848","0.0-1.0-193.0","0","0","88363","","null","","","null","21","","NaN","","","","","","","","","","","","","",""
"","response","","html-keyboard-response","143","184141","0.0-1.0-194.0-0.0","0","0","88363","","1292","","","68","21","","","1","21","training","adjacent","FE","6","5","R.jpg","Q.jpg","0","0","1","",""
"","feedback","","html-keyboard-response","144","185144","0.0-1.0-195.0-0.0","0","0","88363","","null","","","null","21","","","","","","","","","","","","","","","",""
"","ITI","","html-keyboard-response","145","186150","0.0-1.0-198.0","0","0","88363","","null","","","null","21","","","","","","","","","","","","","","","NaN",""
"","S1","","html-keyboard-response","146","186405","0.0-1.0-200.0","0","0","88363","","null","","","null","22","","","","","","","","","","","","","","","",""
"","ISI","","html-keyboard-response","147","187422","0.0-1.0-201.0","0","0","88363","","null","","","null","22","NaN","","","","","","","","","","","","","","",""
"","S2","","html-keyboard-response","148","187677","0.0-1.0-202.0","0","0","88363","","null","","","null","22","","NaN","","","","","","","","","","","","","",""
"","response","","html-keyboard-response","149","188748","0.0-1.0-203.0-0.0","0","0","88363","","1070","","","75","22","","","1","22","training","adjacent","FG","6","7","R.jpg","N.jpg","1","1","1","",""
"","feedback","","html-keyboard-response","150","189750","0.0-1.0-204.0-0.0","0","0","88363","","null","","","null","22","","","","","","","","","","","","","","","",""
"","ITI","","html-keyboard-response","151","190752","0.0-1.0-207.0","0","0","88363","","null","","","null","22","","","","","","","","","","","","","","","NaN",""
"","S1","","html-keyboard-response","152","191009","0.0-1.0-209.0","0","0","88363","","null","","","null","23","","","","","","","","","","","","","","","",""
"","ISI","","html-keyboard-response","153","192014","0.0-1.0-210.0","0","0","88363","","null","","","null","23","NaN","","","","","","","","","","","","","","",""
"","S2","","html-keyboard-response","154","192270","0.0-1.0-211.0","0","0","88363","","null","","","null","23","","NaN","","","","","","","","","","","","","",""
"","response","","html-keyboard-response","155","193575","0.0-1.0-212.0-0.0","0","0","88363","","1304","","","75","23","","","1","23","training","adjacent","ED","5","4","Q.jpg","O.jpg","1","0","0","",""
"","feedback","","html-keyboard-response","156","194587","0.0-1.0-213.0-0.0","0","0","88363","","null","","","null","23","","","","","","","","","","","","","","","",""
"","time_out","","html-keyboard-response","157","196595","0.0-1.0-215.0-0.0","0","0","88363","","null","","","null","23","","","","","","","","","","","","","","","",""
"","ITI","","html-keyboard-response","158","197598","0.0-1.0-216.0","0","0","88363","","null","","","null","23","","","","","","","","","","","","","","","NaN",""
"","S1","","html-keyboard-response","159","197851","0.0-1.0-218.0","0","0","88363","","null","","","null","24","","","","","","","","","","","","","","","",""
"","ISI","","html-keyboard-response","160","198854","0.0-1.0-219.0","0","0","88363","","null","","","null","24","NaN","","","","","","","","","","","","","","",""
"","S2","","html-keyboard-response","161","199108","0.0-1.0-220.0","0","0","88363","","null","","","null","24","","NaN","","","","","","","","","","","","","",""
"","response","","html-keyboard-response","162","199829","0.0-1.0-221.0-0.0","0","0","88363","","718","","","68","24","","","1","24","training","adjacent","BC","2","3","L.jpg","P.jpg","0","1","0","",""
"","feedback","","html-keyboard-response","163","200833","0.0-1.0-222.0-0.0","0","0","88363","","null","","","null","24","","","","","","","","","","","","","","","",""
"","time_out","","html-keyboard-response","164","202847","0.0-1.0-224.0-0.0","0","0","88363","","null","","","null","24","","","","","","","","","","","","","","","",""
"","ITI","","html-keyboard-response","165","203854","0.0-1.0-225.0","0","0","88363","","null","","","null","24","","","","","","","","","","","","","","","NaN",""
"","S1","","html-keyboard-response","166","204109","0.0-1.0-227.0","0","0","88363","","null","","","null","25","","","","","","","","","","","","","","","",""
"","ISI","","html-keyboard-response","167","205113","0.0-1.0-228.0","0","0","88363","","null","","","null","25","NaN","","","","","","","","","","","","","","",""
"","S2","","html-keyboard-response","168","205368","0.0-1.0-229.0","0","0","88363","","null","","","null","25","","NaN","","","","","","","","","","","","","",""
"","response","","html-keyboard-response","169","206110","0.0-1.0-230.0-0.0","0","0","88363","","740","","","68","25","","","1","25","training","adjacent","BA","2","1","L.jpg","M.jpg","0","0","1","",""
"","feedback","","html-keyboard-response","170","207121","0.0-1.0-231.0-0.0","0","0","88363","","null","","","null","25","","","","","","","","","","","","","","","",""
"","ITI","","html-keyboard-response","171","208123","0.0-1.0-234.0","0","0","88363","","null","","","null","25","","","","","","","","","","","","","","","NaN",""
"","S1","","html-keyboard-response","172","208378","0.0-1.0-236.0","0","0","88363","","null","","","null","26","","","","","","","","","","","","","","","",""
"","ISI","","html-keyboard-response","173","209384","0.0-1.0-237.0","0","0","88363","","null","","","null","26","NaN","","","","","","","","","","","","","","",""
"","S2","","html-keyboard-response","174","209637","0.0-1.0-238.0","0","0","88363","","null","","","null","26","","NaN","","","","","","","","","","","","","",""
"","response","","html-keyboard-response","175","210528","0.0-1.0-239.0-0.0","0","0","88363","","890","","","68","26","","","1","26","training","adjacent","CB","3","2","P.jpg","L.jpg","0","0","1","",""
"","feedback","","html-keyboard-response","176","211536","0.0-1.0-240.0-0.0","0","0","88363","","null","","","null","26","","","","","","","","","","","","","","","",""
"","ITI","","html-keyboard-response","177","212552","0.0-1.0-243.0","0","0","88363","","null","","","null","26","","","","","","","","","","","","","","","NaN",""
"","S1","","html-keyboard-response","178","212806","0.0-1.0-245.0","0","0","88363","","null","","","null","27","","","","","","","","","","","","","","","",""
"","ISI","","html-keyboard-response","179","213820","0.0-1.0-246.0","0","0","88363","","null","","","null","27","NaN","","","","","","","","","","","","","","",""
"","S2","","html-keyboard-response","180","214073","0.0-1.0-247.0","0","0","88363","","null","","","null","27","","NaN","","","","","","","","","","","","","",""
"","response","","html-keyboard-response","181","215369","0.0-1.0-248.0-0.0","0","0","88363","","1295","","","68","27","","","1","27","training","adjacent","EF","5","6","Q.jpg","R.jpg","0","1","0","",""
"","feedback","","html-keyboard-response","182","216381","0.0-1.0-249.0-0.0","0","0","88363","","null","","","null","27","","","","","","","","","","","","","","","",""
"","time_out","","html-keyboard-response","183","218392","0.0-1.0-251.0-0.0","0","0","88363","","null","","","null","27","","","","","","","","","","","","","","","",""
"","ITI","","html-keyboard-response","184","219399","0.0-1.0-252.0","0","0","88363","","null","","","null","27","","","","","","","","","","","","","","","NaN",""
"","S1","","html-keyboard-response","185","219652","0.0-1.0-254.0","0","0","88363","","null","","","null","28","","","","","","","","","","","","","","","",""
"","ISI","","html-keyboard-response","186","220656","0.0-1.0-255.0","0","0","88363","","null","","","null","28","NaN","","","","","","","","","","","","","","",""
"","S2","","html-keyboard-response","187","220911","0.0-1.0-256.0","0","0","88363","","null","","","null","28","","NaN","","","","","","","","","","","","","",""
"","response","","html-keyboard-response","188","221559","0.0-1.0-257.0-0.0","0","0","88363","","645","","","68","28","","","1","28","training","adjacent","AB","1","2","M.jpg","L.jpg","0","1","0","",""
"","feedback","","html-keyboard-response","189","222566","0.0-1.0-258.0-0.0","0","0","88363","","null","","","null","28","","","","","","","","","","","","","","","",""
"","time_out","","html-keyboard-response","190","224576","0.0-1.0-260.0-0.0","0","0","88363","","null","","","null","28","","","","","","","","","","","","","","","",""
"","ITI","","html-keyboard-response","191","225582","0.0-1.0-261.0","0","0","88363","","null","","","null","28","","","","","","","","","","","","","","","NaN",""
"","S1","","html-keyboard-response","192","225837","0.0-1.0-263.0","0","0","88363","","null","","","null","29","","","","","","","","","","","","","","","",""
"","ISI","","html-keyboard-response","193","226842","0.0-1.0-264.0","0","0","88363","","null","","","null","29","NaN","","","","","","","","","","","","","","",""
"","S2","","html-keyboard-response","194","227098","0.0-1.0-265.0","0","0","88363","","null","","","null","29","","NaN","","","","","","","","","","","","","",""
"","response","","html-keyboard-response","195","227994","0.0-1.0-266.0-0.0","0","0","88363","","895","","","68","29","","","1","29","training","adjacent","DC","4","3","O.jpg","P.jpg","0","0","1","",""
"","feedback","","html-keyboard-response","196","228997","0.0-1.0-267.0-0.0","0","0","88363","","null","","","null","29","","","","","","","","","","","","","","","",""
"","ITI","","html-keyboard-response","197","230004","0.0-1.0-270.0","0","0","88363","","null","","","null","29","","","","","","","","","","","","","","","NaN",""
"","S1","","html-keyboard-response","198","230258","0.0-1.0-272.0","0","0","88363","","null","","","null","30","","","","","","","","","","","","","","","",""
"","ISI","","html-keyboard-response","199","231272","0.0-1.0-273.0","0","0","88363","","null","","","null","30","NaN","","","","","","","","","","","","","","",""
"","S2","","html-keyboard-response","200","231528","0.0-1.0-274.0","0","0","88363","","null","","","null","30","","NaN","","","","","","","","","","","","","",""
"","response","","html-keyboard-response","201","232593","0.0-1.0-275.0-0.0","0","0","88363","","1063","","","75","30","","","1","30","training","adjacent","CD","3","4","P.jpg","O.jpg","1","1","1","",""
"","feedback","","html-keyboard-response","202","233605","0.0-1.0-276.0-0.0","0","0","88363","","null","","","null","30","","","","","","","","","","","","","","","",""
"","ITI","","html-keyboard-response","203","234611","0.0-1.0-279.0","0","0","88363","","null","","","null","30","","","","","","","","","","","","","","","NaN",""
"","S1","","html-keyboard-response","204","234865","0.0-1.0-281.0","0","0","88363","","null","","","null","31","","","","","","","","","","","","","","","",""
"","ISI","","html-keyboard-response","205","235873","0.0-1.0-282.0","0","0","88363","","null","","","null","31","NaN","","","","","","","","","","","","","","",""
"","S2","","html-keyboard-response","206","236129","0.0-1.0-283.0","0","0","88363","","null","","","null","31","","NaN","","","","","","","","","","","","","",""
"","response","","html-keyboard-response","207","237146","0.0-1.0-284.0-0.0","0","0","88363","","1016","","","68","31","","","1","31","training","adjacent","DE","4","5","O.jpg","Q.jpg","0","1","0","",""
"","feedback","","html-keyboard-response","208","238153","0.0-1.0-285.0-0.0","0","0","88363","","null","","","null","31","","","","","","","","","","","","","","","",""
"","time_out","","html-keyboard-response","209","240162","0.0-1.0-287.0-0.0","0","0","88363","","null","","","null","31","","","","","","","","","","","","","","","",""
"","ITI","","html-keyboard-response","210","241168","0.0-1.0-288.0","0","0","88363","","null","","","null","31","","","","","","","","","","","","","","","NaN",""
"","S1","","html-keyboard-response","211","241422","0.0-1.0-290.0","0","0","88363","","null","","","null","32","","","","","","","","","","","","","","","",""
"","ISI","","html-keyboard-response","212","242437","0.0-1.0-291.0","0","0","88363","","null","","","null","32","NaN","","","","","","","","","","","","","","",""
"","S2","","html-keyboard-response","213","242691","0.0-1.0-292.0","0","0","88363","","null","","","null","32","","NaN","","","","","","","","","","","","","",""
"","response","","html-keyboard-response","214","243177","0.0-1.0-293.0-0.0","0","0","88363","","485","","","68","32","","","1","32","training","adjacent","BC","2","3","L.jpg","P.jpg","0","1","0","",""
"","feedback","","html-keyboard-response","215","244183","0.0-1.0-294.0-0.0","0","0","88363","","null","","","null","32","","","","","","","","","","","","","","","",""
"","time_out","","html-keyboard-response","216","246194","0.0-1.0-296.0-0.0","0","0","88363","","null","","","null","32","","","","","","","","","","","","","","","",""
"","ITI","","html-keyboard-response","217","247208","0.0-1.0-297.0","0","0","88363","","null","","","null","32","","","","","","","","","","","","","","","NaN",""
"","S1","","html-keyboard-response","218","247463","0.0-1.0-299.0","0","0","88363","","null","","","null","33","","","","","","","","","","","","","","","",""
"","ISI","","html-keyboard-response","219","248479","0.0-1.0-300.0","0","0","88363","","null","","","null","33","NaN","","","","","","","","","","","","","","",""
"","S2","","html-keyboard-response","220","248734","0.0-1.0-301.0","0","0","88363","","null","","","null","33","","NaN","","","","","","","","","","","","","",""
"","response","","html-keyboard-response","221","249612","0.0-1.0-302.0-0.0","0","0","88363","","877","","","68","33","","","1","33","training","adjacent","AB","1","2","M.jpg","L.jpg","0","1","0","",""
"","feedback","","html-keyboard-response","222","250618","0.0-1.0-303.0-0.0","0","0","88363","","null","","","null","33","","","","","","","","","","","","","","","",""
"","time_out","","html-keyboard-response","223","252629","0.0-1.0-305.0-0.0","0","0","88363","","null","","","null","33","","","","","","","","","","","","","","","",""
"","ITI","","html-keyboard-response","224","253633","0.0-1.0-306.0","0","0","88363","","null","","","null","33","","","","","","","","","","","","","","","NaN",""
"","S1","","html-keyboard-response","225","253889","0.0-1.0-308.0","0","0","88363","","null","","","null","34","","","","","","","","","","","","","","","",""
"","ISI","","html-keyboard-response","226","254893","0.0-1.0-309.0","0","0","88363","","null","","","null","34","NaN","","","","","","","","","","","","","","",""
"","S2","","html-keyboard-response","227","255149","0.0-1.0-310.0","0","0","88363","","null","","","null","34","","NaN","","","","","","","","","","","","","",""
"","response","","html-keyboard-response","228","255911","0.0-1.0-311.0-0.0","0","0","88363","","760","","","75","34","","","1","34","training","adjacent","FG","6","7","R.jpg","N.jpg","1","1","1","",""
"","feedback","","html-keyboard-response","229","256921","0.0-1.0-312.0-0.0","0","0","88363","","null","","","null","34","","","","","","","","","","","","","","","",""
"","ITI","","html-keyboard-response","230","257924","0.0-1.0-315.0","0","0","88363","","null","","","null","34","","","","","","","","","","","","","","","NaN",""
"","S1","","html-keyboard-response","231","258178","0.0-1.0-317.0","0","0","88363","","null","","","null","35","","","","","","","","","","","","","","","",""
"","ISI","","html-keyboard-response","232","259183","0.0-1.0-318.0","0","0","88363","","null","","","null","35","NaN","","","","","","","","","","","","","","",""
"","S2","","html-keyboard-response","233","259439","0.0-1.0-319.0","0","0","88363","","null","","","null","35","","NaN","","","","","","","","","","","","","",""
"","response","","html-keyboard-response","234","260027","0.0-1.0-320.0-0.0","0","0","88363","","588","","","75","35","","","1","35","training","adjacent","FG","6","7","R.jpg","N.jpg","1","1","1","",""
"","feedback","","html-keyboard-response","235","261035","0.0-1.0-321.0-0.0","0","0","88363","","null","","","null","35","","","","","","","","","","","","","","","",""
"","ITI","","html-keyboard-response","236","262040","0.0-1.0-324.0","0","0","88363","","null","","","null","35","","","","","","","","","","","","","","","NaN",""
"","S1","","html-keyboard-response","237","262296","0.0-1.0-326.0","0","0","88363","","null","","","null","36","","","","","","","","","","","","","","","",""
"","ISI","","html-keyboard-response","238","263297","0.0-1.0-327.0","0","0","88363","","null","","","null","36","NaN","","","","","","","","","","","","","","",""
"","S2","","html-keyboard-response","239","263554","0.0-1.0-328.0","0","0","88363","","null","","","null","36","","NaN","","","","","","","","","","","","","",""
"","response","","html-keyboard-response","240","264464","0.0-1.0-329.0-0.0","0","0","88363","","909","","","68","36","","","1","36","training","adjacent","GF","7","6","N.jpg","R.jpg","0","0","1","",""
"","feedback","","html-keyboard-response","241","265468","0.0-1.0-330.0-0.0","0","0","88363","","null","","","null","36","","","","","","","","","","","","","","","",""
"","ITI","","html-keyboard-response","242","266472","0.0-1.0-333.0","0","0","88363","","null","","","null","36","","","","","","","","","","","","","","","NaN",""
"","S1","","html-keyboard-response","243","266728","0.0-1.0-335.0","0","0","88363","","null","","","null","37","","","","","","","","","","","","","","","",""
"","ISI","","html-keyboard-response","244","267734","0.0-1.0-336.0","0","0","88363","","null","","","null","37","NaN","","","","","","","","","","","","","","",""
"","S2","","html-keyboard-response","245","267988","0.0-1.0-337.0","0","0","88363","","null","","","null","37","","NaN","","","","","","","","","","","","","",""
"","response","","html-keyboard-response","246","268793","0.0-1.0-338.0-0.0","0","0","88363","","804","","","68","37","","","1","37","training","adjacent","CB","3","2","P.jpg","L.jpg","0","0","1","",""
"","feedback","","html-keyboard-response","247","269796","0.0-1.0-339.0-0.0","0","0","88363","","null","","","null","37","","","","","","","","","","","","","","","",""
"","ITI","","html-keyboard-response","248","270812","0.0-1.0-342.0","0","0","88363","","null","","","null","37","","","","","","","","","","","","","","","NaN",""
"","S1","","html-keyboard-response","249","271063","0.0-1.0-344.0","0","0","88363","","null","","","null","38","","","","","","","","","","","","","","","",""
"","ISI","","html-keyboard-response","250","272079","0.0-1.0-345.0","0","0","88363","","null","","","null","38","NaN","","","","","","","","","","","","","","",""
"","S2","","html-keyboard-response","251","272331","0.0-1.0-346.0","0","0","88363","","null","","","null","38","","NaN","","","","","","","","","","","","","",""
"","response","","html-keyboard-response","252","273473","0.0-1.0-347.0-0.0","0","0","88363","","1141","","","68","38","","","1","38","training","adjacent","DE","4","5","O.jpg","Q.jpg","0","1","0","",""
"","feedback","","html-keyboard-response","253","274488","0.0-1.0-348.0-0.0","0","0","88363","","null","","","null","38","","","","","","","","","","","","","","","",""
"","time_out","","html-keyboard-response","254","276497","0.0-1.0-350.0-0.0","0","0","88363","","null","","","null","38","","","","","","","","","","","","","","","",""
"","ITI","","html-keyboard-response","255","277504","0.0-1.0-351.0","0","0","88363","","null","","","null","38","","","","","","","","","","","","","","","NaN",""
"","S1","","html-keyboard-response","256","277761","0.0-1.0-353.0","0","0","88363","","null","","","null","39","","","","","","","","","","","","","","","",""
"","ISI","","html-keyboard-response","257","278765","0.0-1.0-354.0","0","0","88363","","null","","","null","39","NaN","","","","","","","","","","","","","","",""
"","S2","","html-keyboard-response","258","279020","0.0-1.0-355.0","0","0","88363","","null","","","null","39","","NaN","","","","","","","","","","","","","",""
"","response","","html-keyboard-response","259","280335","0.0-1.0-356.0-0.0","0","0","88363","","1315","","","68","39","","","1","39","training","adjacent","DC","4","3","O.jpg","P.jpg","0","0","1","",""
"","feedback","","html-keyboard-response","260","281338","0.0-1.0-357.0-0.0","0","0","88363","","null","","","null","39","","","","","","","","","","","","","","","",""
"","ITI","","html-keyboard-response","261","282342","0.0-1.0-360.0","0","0","88363","","null","","","null","39","","","","","","","","","","","","","","","NaN",""
"","S1","","html-keyboard-response","262","282597","0.0-1.0-362.0","0","0","88363","","null","","","null","40","","","","","","","","","","","","","","","",""
"","ISI","","html-keyboard-response","263","283600","0.0-1.0-363.0","0","0","88363","","null","","","null","40","NaN","","","","","","","","","","","","","","",""
"","S2","","html-keyboard-response","264","283856","0.0-1.0-364.0","0","0","88363","","null","","","null","40","","NaN","","","","","","","","","","","","","",""
"","response","","html-keyboard-response","265","284985","0.0-1.0-365.0-0.0","0","0","88363","","1128","","","68","40","","","1","40","training","adjacent","BA","2","1","L.jpg","M.jpg","0","0","1","",""
"","feedback","","html-keyboard-response","266","285993","0.0-1.0-366.0-0.0","0","0","88363","","null","","","null","40","","","","","","","","","","","","","","","",""
"","ITI","","html-keyboard-response","267","287001","0.0-1.0-369.0","0","0","88363","","null","","","null","40","","","","","","","","","","","","","","","NaN",""
"","S1","","html-keyboard-response","268","287256","0.0-1.0-371.0","0","0","88363","","null","","","null","41","","","","","","","","","","","","","","","",""
"","ISI","","html-keyboard-response","269","288262","0.0-1.0-372.0","0","0","88363","","null","","","null","41","NaN","","","","","","","","","","","","","","",""
"","S2","","html-keyboard-response","270","288517","0.0-1.0-373.0","0","0","88363","","null","","","null","41","","NaN","","","","","","","","","","","","","",""
"","response","","html-keyboard-response","271","289778","0.0-1.0-374.0-0.0","0","0","88363","","1259","","","68","41","","","1","41","training","adjacent","GF","7","6","N.jpg","R.jpg","0","0","1","",""
"","feedback","","html-keyboard-response","272","290786","0.0-1.0-375.0-0.0","0","0","88363","","null","","","null","41","","","","","","","","","","","","","","","",""
"","ITI","","html-keyboard-response","273","291790","0.0-1.0-378.0","0","0","88363","","null","","","null","41","","","","","","","","","","","","","","","NaN",""
"","S1","","html-keyboard-response","274","292047","0.0-1.0-380.0","0","0","88363","","null","","","null","42","","","","","","","","","","","","","","","",""
"","ISI","","html-keyboard-response","275","293053","0.0-1.0-381.0","0","0","88363","","null","","","null","42","NaN","","","","","","","","","","","","","","",""
"","S2","","html-keyboard-response","276","293308","0.0-1.0-382.0","0","0","88363","","null","","","null","42","","NaN","","","","","","","","","","","","","",""
"","response","","html-keyboard-response","277","294362","0.0-1.0-383.0-0.0","0","0","88363","","1053","","","68","42","","","1","42","training","adjacent","FE","6","5","R.jpg","Q.jpg","0","0","1","",""
"","feedback","","html-keyboard-response","278","295368","0.0-1.0-384.0-0.0","0","0","88363","","null","","","null","42","","","","","","","","","","","","","","","",""
"","ITI","","html-keyboard-response","279","296371","0.0-1.0-387.0","0","0","88363","","null","","","null","42","","","","","","","","","","","","","","","NaN",""
"","S1","","html-keyboard-response","280","296628","0.0-1.0-389.0","0","0","88363","","null","","","null","43","","","","","","","","","","","","","","","",""
"","ISI","","html-keyboard-response","281","297634","0.0-1.0-390.0","0","0","88363","","null","","","null","43","NaN","","","","","","","","","","","","","","",""
"","S2","","html-keyboard-response","282","297890","0.0-1.0-391.0","0","0","88363","","null","","","null","43","","NaN","","","","","","","","","","","","","",""
"","response","","html-keyboard-response","283","298676","0.0-1.0-392.0-0.0","0","0","88363","","784","","","68","43","","","1","43","training","adjacent","DC","4","3","O.jpg","P.jpg","0","0","1","",""
"","feedback","","html-keyboard-response","284","299680","0.0-1.0-393.0-0.0","0","0","88363","","null","","","null","43","","","","","","","","","","","","","","","",""
"","ITI","","html-keyboard-response","285","300686","0.0-1.0-396.0","0","0","88363","","null","","","null","43","","","","","","","","","","","","","","","NaN",""
"","S1","","html-keyboard-response","286","300942","0.0-1.0-398.0","0","0","88363","","null","","","null","44","","","","","","","","","","","","","","","",""
"","ISI","","html-keyboard-response","287","301945","0.0-1.0-399.0","0","0","88363","","null","","","null","44","NaN","","","","","","","","","","","","","","",""
"","S2","","html-keyboard-response","288","302199","0.0-1.0-400.0","0","0","88363","","null","","","null","44","","NaN","","","","","","","","","","","","","",""
"","response","","html-keyboard-response","289","302674","0.0-1.0-401.0-0.0","0","0","88363","","474","","","75","44","","","1","44","training","adjacent","AB","1","2","M.jpg","L.jpg","1","1","1","",""
"","feedback","","html-keyboard-response","290","303685","0.0-1.0-402.0-0.0","0","0","88363","","null","","","null","44","","","","","","","","","","","","","","","",""
"","ITI","","html-keyboard-response","291","304690","0.0-1.0-405.0","0","0","88363","","null","","","null","44","","","","","","","","","","","","","","","NaN",""
"","S1","","html-keyboard-response","292","304945","0.0-1.0-407.0","0","0","88363","","null","","","null","45","","","","","","","","","","","","","","","",""
"","ISI","","html-keyboard-response","293","305949","0.0-1.0-408.0","0","0","88363","","null","","","null","45","NaN","","","","","","","","","","","","","","",""
"","S2","","html-keyboard-response","294","306205","0.0-1.0-409.0","0","0","88363","","null","","","null","45","","NaN","","","","","","","","","","","","","",""
"","response","","html-keyboard-response","295","306807","0.0-1.0-410.0-0.0","0","0","88363","","602","","","68","45","","","1","45","training","adjacent","CB","3","2","P.jpg","L.jpg","0","0","1","",""
"","feedback","","html-keyboard-response","296","307819","0.0-1.0-411.0-0.0","0","0","88363","","null","","","null","45","","","","","","","","","","","","","","","",""
"","ITI","","html-keyboard-response","297","308826","0.0-1.0-414.0","0","0","88363","","null","","","null","45","","","","","","","","","","","","","","","NaN",""
"","S1","","html-keyboard-response","298","309082","0.0-1.0-416.0","0","0","88363","","null","","","null","46","","","","","","","","","","","","","","","",""
"","ISI","","html-keyboard-response","299","310090","0.0-1.0-417.0","0","0","88363","","null","","","null","46","NaN","","","","","","","","","","","","","","",""
"","S2","","html-keyboard-response","300","310344","0.0-1.0-418.0","0","0","88363","","null","","","null","46","","NaN","","","","","","","","","","","","","",""
"","response","","html-keyboard-response","301","311984","0.0-1.0-419.0-0.0","0","0","88363","","1639","","","68","46","","","1","46","training","adjacent","EF","5","6","Q.jpg","R.jpg","0","1","0","",""
"","feedback","","html-keyboard-response","302","312998","0.0-1.0-420.0-0.0","0","0","88363","","null","","","null","46","","","","","","","","","","","","","","","",""
"","time_out","","html-keyboard-response","303","315007","0.0-1.0-422.0-0.0","0","0","88363","","null","","","null","46","","","","","","","","","","","","","","","",""
"","ITI","","html-keyboard-response","304","316022","0.0-1.0-423.0","0","0","88363","","null","","","null","46","","","","","","","","","","","","","","","NaN",""
"","S1","","html-keyboard-response","305","316276","0.0-1.0-425.0","0","0","88363","","null","","","null","47","","","","","","","","","","","","","","","",""
"","ISI","","html-keyboard-response","306","317281","0.0-1.0-426.0","0","0","88363","","null","","","null","47","NaN","","","","","","","","","","","","","","",""
"","S2","","html-keyboard-response","307","317537","0.0-1.0-427.0","0","0","88363","","null","","","null","47","","NaN","","","","","","","","","","","","","",""
"","response","","html-keyboard-response","308","318722","0.0-1.0-428.0-0.0","0","0","88363","","1184","","","75","47","","","1","47","training","adjacent","ED","5","4","Q.jpg","O.jpg","1","0","0","",""
"","feedback","","html-keyboard-response","309","319726","0.0-1.0-429.0-0.0","0","0","88363","","null","","","null","47","","","","","","","","","","","","","","","",""
"","time_out","","html-keyboard-response","310","321734","0.0-1.0-431.0-0.0","0","0","88363","","null","","","null","47","","","","","","","","","","","","","","","",""
"","ITI","","html-keyboard-response","311","322740","0.0-1.0-432.0","0","0","88363","","null","","","null","47","","","","","","","","","","","","","","","NaN",""
"","block_over","","html-keyboard-response","312","332864","0.0-1.0-433.0-0.0","0","0","88363","","10123","","","32","47","","","","","","","","","","","","","","","",""
"","S1","","html-keyboard-response","313","333130","0.0-1.0-434.0","0","0","88363","","null","","","null","48","","","","","","","","","","","","","","","",""
"","ISI","","html-keyboard-response","314","334136","0.0-1.0-435.0","0","0","88363","","null","","","null","48","NaN","","","","","","","","","","","","","","",""
"","S2","","html-keyboard-response","315","334391","0.0-1.0-436.0","0","0","88363","","null","","","null","48","","NaN","","","","","","","","","","","","","",""
"","response","","html-keyboard-response","316","335113","0.0-1.0-437.0-0.0","0","0","88363","","721","","","68","48","","","2","48","training","adjacent","FE","6","5","R.jpg","Q.jpg","0","0","1","",""
"","feedback","","html-keyboard-response","317","336127","0.0-1.0-438.0-0.0","0","0","88363","","null","","","null","48","","","","","","","","","","","","","","","",""
"","ITI","","html-keyboard-response","318","337128","0.0-1.0-441.0","0","0","88363","","null","","","null","48","","","","","","","","","","","","","","","NaN",""
"","S1","","html-keyboard-response","319","337385","0.0-1.0-443.0","0","0","88363","","null","","","null","49","","","","","","","","","","","","","","","",""
"","ISI","","html-keyboard-response","320","338391","0.0-1.0-444.0","0","0","88363","","null","","","null","49","NaN","","","","","","","","","","","","","","",""
"","S2","","html-keyboard-response","321","338647","0.0-1.0-445.0","0","0","88363","","null","","","null","49","","NaN","","","","","","","","","","","","","",""
"","response","","html-keyboard-response","322","339735","0.0-1.0-446.0-0.0","0","0","88363","","1087","","","75","49","","","2","49","training","adjacent","AB","1","2","M.jpg","L.jpg","1","1","1","",""
"","feedback","","html-keyboard-response","323","340737","0.0-1.0-447.0-0.0","0","0","88363","","null","","","null","49","","","","","","","","","","","","","","","",""
"","ITI","","html-keyboard-response","324","341741","0.0-1.0-450.0","0","0","88363","","null","","","null","49","","","","","","","","","","","","","","","NaN",""
"","S1","","html-keyboard-response","325","341995","0.0-1.0-452.0","0","0","88363","","null","","","null","50","","","","","","","","","","","","","","","",""
"","ISI","","html-keyboard-response","326","343008","0.0-1.0-453.0","0","0","88363","","null","","","null","50","NaN","","","","","","","","","","","","","","",""
"","S2","","html-keyboard-response","327","343262","0.0-1.0-454.0","0","0","88363","","null","","","null","50","","NaN","","","","","","","","","","","","","",""
"","response","","html-keyboard-response","328","344208","0.0-1.0-455.0-0.0","0","0","88363","","945","","","75","50","","","2","50","training","adjacent","CD","3","4","P.jpg","O.jpg","1","1","1","",""
"","feedback","","html-keyboard-response","329","345211","0.0-1.0-456.0-0.0","0","0","88363","","null","","","null","50","","","","","","","","","","","","","","","",""
"","ITI","","html-keyboard-response","330","346226","0.0-1.0-459.0","0","0","88363","","null","","","null","50","","","","","","","","","","","","","","","NaN",""
"","S1","","html-keyboard-response","331","346480","0.0-1.0-461.0","0","0","88363","","null","","","null","51","","","","","","","","","","","","","","","",""
"","ISI","","html-keyboard-response","332","347496","0.0-1.0-462.0","0","0","88363","","null","","","null","51","NaN","","","","","","","","","","","","","","",""
"","S2","","html-keyboard-response","333","347750","0.0-1.0-463.0","0","0","88363","","null","","","null","51","","NaN","","","","","","","","","","","","","",""
"","response","","html-keyboard-response","334","348588","0.0-1.0-464.0-0.0","0","0","88363","","837","","","68","51","","","2","51","training","adjacent","BA","2","1","L.jpg","M.jpg","0","0","1","",""
"","feedback","","html-keyboard-response","335","349592","0.0-1.0-465.0-0.0","0","0","88363","","null","","","null","51","","","","","","","","","","","","","","","",""
"","ITI","","html-keyboard-response","336","350606","0.0-1.0-468.0","0","0","88363","","null","","","null","51","","","","","","","","","","","","","","","NaN",""
"","S1","","html-keyboard-response","337","350862","0.0-1.0-470.0","0","0","88363","","null","","","null","52","","","","","","","","","","","","","","","",""
"","ISI","","html-keyboard-response","338","351878","0.0-1.0-471.0","0","0","88363","","null","","","null","52","NaN","","","","","","","","","","","","","","",""
"","S2","","html-keyboard-response","339","352130","0.0-1.0-472.0","0","0","88363","","null","","","null","52","","NaN","","","","","","","","","","","","","",""
"","response","","html-keyboard-response","340","353085","0.0-1.0-473.0-0.0","0","0","88363","","953","","","75","52","","","2","52","training","adjacent","BC","2","3","L.jpg","P.jpg","1","1","1","",""
"","feedback","","html-keyboard-response","341","354097","0.0-1.0-474.0-0.0","0","0","88363","","null","","","null","52","","","","","","","","","","","","","","","",""
"","ITI","","html-keyboard-response","342","355111","0.0-1.0-477.0","0","0","88363","","null","","","null","52","","","","","","","","","","","","","","","NaN",""
"","S1","","html-keyboard-response","343","355363","0.0-1.0-479.0","0","0","88363","","null","","","null","53","","","","","","","","","","","","","","","",""
"","ISI","","html-keyboard-response","344","356378","0.0-1.0-480.0","0","0","88363","","null","","","null","53","NaN","","","","","","","","","","","","","","",""
"","S2","","html-keyboard-response","345","356630","0.0-1.0-481.0","0","0","88363","","null","","","null","53","","NaN","","","","","","","","","","","","","",""
"","response","","html-keyboard-response","346","357645","0.0-1.0-482.0-0.0","0","0","88363","","1015","","","75","53","","","2","53","training","adjacent","EF","5","6","Q.jpg","R.jpg","1","1","1","",""
"","feedback","","html-keyboard-response","347","358656","0.0-1.0-483.0-0.0","0","0","88363","","null","","","null","53","","","","","","","","","","","","","","","",""
"","ITI","","html-keyboard-response","348","359659","0.0-1.0-486.0","0","0","88363","","null","","","null","53","","","","","","","","","","","","","","","NaN",""
"","S1","","html-keyboard-response","349","359914","0.0-1.0-488.0","0","0","88363","","null","","","null","54","","","","","","","","","","","","","","","",""
"","ISI","","html-keyboard-response","350","360921","0.0-1.0-489.0","0","0","88363","","null","","","null","54","NaN","","","","","","","","","","","","","","",""
"","S2","","html-keyboard-response","351","361177","0.0-1.0-490.0","0","0","88363","","null","","","null","54","","NaN","","","","","","","","","","","","","",""
"","response","","html-keyboard-response","352","362270","0.0-1.0-491.0-0.0","0","0","88363","","1092","","","75","54","","","2","54","training","adjacent","CD","3","4","P.jpg","O.jpg","1","1","1","",""
"","feedback","","html-keyboard-response","353","363277","0.0-1.0-492.0-0.0","0","0","88363","","null","","","null","54","","","","","","","","","","","","","","","",""
"","ITI","","html-keyboard-response","354","364281","0.0-1.0-495.0","0","0","88363","","null","","","null","54","","","","","","","","","","","","","","","NaN",""
"","S1","","html-keyboard-response","355","364535","0.0-1.0-497.0","0","0","88363","","null","","","null","55","","","","","","","","","","","","","","","",""
"","ISI","","html-keyboard-response","356","365541","0.0-1.0-498.0","0","0","88363","","null","","","null","55","NaN","","","","","","","","","","","","","","",""
"","S2","","html-keyboard-response","357","365797","0.0-1.0-499.0","0","0","88363","","null","","","null","55","","NaN","","","","","","","","","","","","","",""
"","response","","html-keyboard-response","358","366435","0.0-1.0-500.0-0.0","0","0","88363","","637","","","75","55","","","2","55","training","adjacent","FG","6","7","R.jpg","N.jpg","1","1","1","",""
"","feedback","","html-keyboard-response","359","367445","0.0-1.0-501.0-0.0","0","0","88363","","null","","","null","55","","","","","","","","","","","","","","","",""
"","ITI","","html-keyboard-response","360","368452","0.0-1.0-504.0","0","0","88363","","null","","","null","55","","","","","","","","","","","","","","","NaN",""
"","S1","","html-keyboard-response","361","368709","0.0-1.0-506.0","0","0","88363","","null","","","null","56","","","","","","","","","","","","","","","",""
"","ISI","","html-keyboard-response","362","369712","0.0-1.0-507.0","0","0","88363","","null","","","null","56","NaN","","","","","","","","","","","","","","",""
"","S2","","html-keyboard-response","363","369967","0.0-1.0-508.0","0","0","88363","","null","","","null","56","","NaN","","","","","","","","","","","","","",""
"","response","","html-keyboard-response","364","370846","0.0-1.0-509.0-0.0","0","0","88363","","878","","","68","56","","","2","56","training","adjacent","CB","3","2","P.jpg","L.jpg","0","0","1","",""
"","feedback","","html-keyboard-response","365","371853","0.0-1.0-510.0-0.0","0","0","88363","","null","","","null","56","","","","","","","","","","","","","","","",""
"","ITI","","html-keyboard-response","366","372861","0.0-1.0-513.0","0","0","88363","","null","","","null","56","","","","","","","","","","","","","","","NaN",""
"","S1","","html-keyboard-response","367","373117","0.0-1.0-515.0","0","0","88363","","null","","","null","57","","","","","","","","","","","","","","","",""
"","ISI","","html-keyboard-response","368","374130","0.0-1.0-516.0","0","0","88363","","null","","","null","57","NaN","","","","","","","","","","","","","","",""
"","S2","","html-keyboard-response","369","374385","0.0-1.0-517.0","0","0","88363","","null","","","null","57","","NaN","","","","","","","","","","","","","",""
"","response","","html-keyboard-response","370","375436","0.0-1.0-518.0-0.0","0","0","88363","","1050","","","75","57","","","2","57","training","adjacent","DE","4","5","O.jpg","Q.jpg","1","1","1","",""
"","feedback","","html-keyboard-response","371","376445","0.0-1.0-519.0-0.0","0","0","88363","","null","","","null","57","","","","","","","","","","","","","","","",""
"","ITI","","html-keyboard-response","372","377452","0.0-1.0-522.0","0","0","88363","","null","","","null","57","","","","","","","","","","","","","","","NaN",""
"","S1","","html-keyboard-response","373","377706","0.0-1.0-524.0","0","0","88363","","null","","","null","58","","","","","","","","","","","","","","","",""
"","ISI","","html-keyboard-response","374","378710","0.0-1.0-525.0","0","0","88363","","null","","","null","58","NaN","","","","","","","","","","","","","","",""
"","S2","","html-keyboard-response","375","378965","0.0-1.0-526.0","0","0","88363","","null","","","null","58","","NaN","","","","","","","","","","","","","",""
"","response","","html-keyboard-response","376","379650","0.0-1.0-527.0-0.0","0","0","88363","","683","","","75","58","","","2","58","training","adjacent","CD","3","4","P.jpg","O.jpg","1","1","1","",""
"","feedback","","html-keyboard-response","377","380657","0.0-1.0-528.0-0.0","0","0","88363","","null","","","null","58","","","","","","","","","","","","","","","",""
"","ITI","","html-keyboard-response","378","381663","0.0-1.0-531.0","0","0","88363","","null","","","null","58","","","","","","","","","","","","","","","NaN",""
"","S1","","html-keyboard-response","379","381919","0.0-1.0-533.0","0","0","88363","","null","","","null","59","","","","","","","","","","","","","","","",""
"","ISI","","html-keyboard-response","380","382923","0.0-1.0-534.0","0","0","88363","","null","","","null","59","NaN","","","","","","","","","","","","","","",""
"","S2","","html-keyboard-response","381","383178","0.0-1.0-535.0","0","0","88363","","null","","","null","59","","NaN","","","","","","","","","","","","","",""
"","response","","html-keyboard-response","382","383718","0.0-1.0-536.0-0.0","0","0","88363","","539","","","68","59","","","2","59","training","adjacent","CB","3","2","P.jpg","L.jpg","0","0","1","",""
"","feedback","","html-keyboard-response","383","384732","0.0-1.0-537.0-0.0","0","0","88363","","null","","","null","59","","","","","","","","","","","","","","","",""
"","ITI","","html-keyboard-response","384","385747","0.0-1.0-540.0","0","0","88363","","null","","","null","59","","","","","","","","","","","","","","","NaN",""
"","S1","","html-keyboard-response","385","385999","0.0-1.0-542.0","0","0","88363","","null","","","null","60","","","","","","","","","","","","","","","",""
"","ISI","","html-keyboard-response","386","387014","0.0-1.0-543.0","0","0","88363","","null","","","null","60","NaN","","","","","","","","","","","","","","",""
"","S2","","html-keyboard-response","387","387268","0.0-1.0-544.0","0","0","88363","","null","","","null","60","","NaN","","","","","","","","","","","","","",""
"","response","","html-keyboard-response","388","387956","0.0-1.0-545.0-0.0","0","0","88363","","688","","","68","60","","","2","60","training","adjacent","EF","5","6","Q.jpg","R.jpg","0","1","0","",""
"","feedback","","html-keyboard-response","389","388962","0.0-1.0-546.0-0.0","0","0","88363","","null","","","null","60","","","","","","","","","","","","","","","",""
"","time_out","","html-keyboard-response","390","390966","0.0-1.0-548.0-0.0","0","0","88363","","null","","","null","60","","","","","","","","","","","","","","","",""
"","ITI","","html-keyboard-response","391","391972","0.0-1.0-549.0","0","0","88363","","null","","","null","60","","","","","","","","","","","","","","","NaN",""
"","S1","","html-keyboard-response","392","392226","0.0-1.0-551.0","0","0","88363","","null","","","null","61","","","","","","","","","","","","","","","",""
"","ISI","","html-keyboard-response","393","393232","0.0-1.0-552.0","0","0","88363","","null","","","null","61","NaN","","","","","","","","","","","","","","",""
"","S2","","html-keyboard-response","394","393485","0.0-1.0-553.0","0","0","88363","","null","","","null","61","","NaN","","","","","","","","","","","","","",""
"","response","","html-keyboard-response","395","394398","0.0-1.0-554.0-0.0","0","0","88363","","911","","","68","61","","","2","61","training","adjacent","GF","7","6","N.jpg","R.jpg","0","0","1","",""
"","feedback","","html-keyboard-response","396","395413","0.0-1.0-555.0-0.0","0","0","88363","","null","","","null","61","","","","","","","","","","","","","","","",""
"","ITI","","html-keyboard-response","397","396417","0.0-1.0-558.0","0","0","88363","","null","","","null","61","","","","","","","","","","","","","","","NaN",""
"","S1","","html-keyboard-response","398","396674","0.0-1.0-560.0","0","0","88363","","null","","","null","62","","","","","","","","","","","","","","","",""
"","ISI","","html-keyboard-response","399","397678","0.0-1.0-561.0","0","0","88363","","null","","","null","62","NaN","","","","","","","","","","","","","","",""
"","S2","","html-keyboard-response","400","397934","0.0-1.0-562.0","0","0","88363","","null","","","null","62","","NaN","","","","","","","","","","","","","",""
"","response","","html-keyboard-response","401","398443","0.0-1.0-563.0-0.0","0","0","88363","","508","","","68","62","","","2","62","training","adjacent","GF","7","6","N.jpg","R.jpg","0","0","1","",""
"","feedback","","html-keyboard-response","402","399449","0.0-1.0-564.0-0.0","0","0","88363","","null","","","null","62","","","","","","","","","","","","","","","",""
"","ITI","","html-keyboard-response","403","400451","0.0-1.0-567.0","0","0","88363","","null","","","null","62","","","","","","","","","","","","","","","NaN",""
"","S1","","html-keyboard-response","404","400706","0.0-1.0-569.0","0","0","88363","","null","","","null","63","","","","","","","","","","","","","","","",""
"","ISI","","html-keyboard-response","405","401713","0.0-1.0-570.0","0","0","88363","","null","","","null","63","NaN","","","","","","","","","","","","","","",""
"","S2","","html-keyboard-response","406","401965","0.0-1.0-571.0","0","0","88363","","null","","","null","63","","NaN","","","","","","","","","","","","","",""
"","response","","html-keyboard-response","407","403110","0.0-1.0-572.0-0.0","0","0","88363","","1143","","","68","63","","","2","63","training","adjacent","ED","5","4","Q.jpg","O.jpg","0","0","1","",""
"","feedback","","html-keyboard-response","408","404118","0.0-1.0-573.0-0.0","0","0","88363","","null","","","null","63","","","","","","","","","","","","","","","",""
"","ITI","","html-keyboard-response","409","405122","0.0-1.0-576.0","0","0","88363","","null","","","null","63","","","","","","","","","","","","","","","NaN",""
"","S1","","html-keyboard-response","410","405378","0.0-1.0-578.0","0","0","88363","","null","","","null","64","","","","","","","","","","","","","","","",""
"","ISI","","html-keyboard-response","411","406387","0.0-1.0-579.0","0","0","88363","","null","","","null","64","NaN","","","","","","","","","","","","","","",""
"","S2","","html-keyboard-response","412","406642","0.0-1.0-580.0","0","0","88363","","null","","","null","64","","NaN","","","","","","","","","","","","","",""
"","response","","html-keyboard-response","413","407370","0.0-1.0-581.0-0.0","0","0","88363","","728","","","68","64","","","2","64","training","adjacent","DE","4","5","O.jpg","Q.jpg","0","1","0","",""
"","feedback","","html-keyboard-response","414","408381","0.0-1.0-582.0-0.0","0","0","88363","","null","","","null","64","","","","","","","","","","","","","","","",""
"","time_out","","html-keyboard-response","415","410390","0.0-1.0-584.0-0.0","0","0","88363","","null","","","null","64","","","","","","","","","","","","","","","",""
"","ITI","","html-keyboard-response","416","411398","0.0-1.0-585.0","0","0","88363","","null","","","null","64","","","","","","","","","","","","","","","NaN",""
"","S1","","html-keyboard-response","417","411654","0.0-1.0-587.0","0","0","88363","","null","","","null","65","","","","","","","","","","","","","","","",""
"","ISI","","html-keyboard-response","418","412659","0.0-1.0-588.0","0","0","88363","","null","","","null","65","NaN","","","","","","","","","","","","","","",""
"","S2","","html-keyboard-response","419","412912","0.0-1.0-589.0","0","0","88363","","null","","","null","65","","NaN","","","","","","","","","","","","","",""
"","response","","html-keyboard-response","420","413664","0.0-1.0-590.0-0.0","0","0","88363","","751","","","75","65","","","2","65","training","adjacent","CD","3","4","P.jpg","O.jpg","1","1","1","",""
"","feedback","","html-keyboard-response","421","414668","0.0-1.0-591.0-0.0","0","0","88363","","null","","","null","65","","","","","","","","","","","","","","","",""
"","ITI","","html-keyboard-response","422","415671","0.0-1.0-594.0","0","0","88363","","null","","","null","65","","","","","","","","","","","","","","","NaN",""
"","S1","","html-keyboard-response","423","415936","0.0-1.0-596.0","0","0","88363","","null","","","null","66","","","","","","","","","","","","","","","",""
"","ISI","","html-keyboard-response","424","416951","0.0-1.0-597.0","0","0","88363","","null","","","null","66","NaN","","","","","","","","","","","","","","",""
"","S2","","html-keyboard-response","425","417206","0.0-1.0-598.0","0","0","88363","","null","","","null","66","","NaN","","","","","","","","","","","","","",""
"","response","","html-keyboard-response","426","417852","0.0-1.0-599.0-0.0","0","0","88363","","645","","","68","66","","","2","66","training","adjacent","AB","1","2","M.jpg","L.jpg","0","1","0","",""
"","feedback","","html-keyboard-response","427","418858","0.0-1.0-600.0-0.0","0","0","88363","","null","","","null","66","","","","","","","","","","","","","","","",""
"","time_out","","html-keyboard-response","428","420870","0.0-1.0-602.0-0.0","0","0","88363","","null","","","null","66","","","","","","","","","","","","","","","",""
"","ITI","","html-keyboard-response","429","421873","0.0-1.0-603.0","0","0","88363","","null","","","null","66","","","","","","","","","","","","","","","NaN",""
"","S1","","html-keyboard-response","430","422129","0.0-1.0-605.0","0","0","88363","","null","","","null","67","","","","","","","","","","","","","","","",""
"","ISI","","html-keyboard-response","431","423135","0.0-1.0-606.0","0","0","88363","","null","","","null","67","NaN","","","","","","","","","","","","","","",""
"","S2","","html-keyboard-response","432","423390","0.0-1.0-607.0","0","0","88363","","null","","","null","67","","NaN","","","","","","","","","","","","","",""
"","response","","html-keyboard-response","433","423981","0.0-1.0-608.0-0.0","0","0","88363","","590","","","68","67","","","2","67","training","adjacent","DC","4","3","O.jpg","P.jpg","0","0","1","",""
"","feedback","","html-keyboard-response","434","424984","0.0-1.0-609.0-0.0","0","0","88363","","null","","","null","67","","","","","","","","","","","","","","","",""
"","ITI","","html-keyboard-response","435","425989","0.0-1.0-612.0","0","0","88363","","null","","","null","67","","","","","","","","","","","","","","","NaN",""
"","S1","","html-keyboard-response","436","426244","0.0-1.0-614.0","0","0","88363","","null","","","null","68","","","","","","","","","","","","","","","",""
"","ISI","","html-keyboard-response","437","427250","0.0-1.0-615.0","0","0","88363","","null","","","null","68","NaN","","","","","","","","","","","","","","",""
"","S2","","html-keyboard-response","438","427506","0.0-1.0-616.0","0","0","88363","","null","","","null","68","","NaN","","","","","","","","","","","","","",""
"","response","","html-keyboard-response","439","427975","0.0-1.0-617.0-0.0","0","0","88363","","468","","","75","68","","","2","68","training","adjacent","BC","2","3","L.jpg","P.jpg","1","1","1","",""
"","feedback","","html-keyboard-response","440","428989","0.0-1.0-618.0-0.0","0","0","88363","","null","","","null","68","","","","","","","","","","","","","","","",""
"","ITI","","html-keyboard-response","441","429999","0.0-1.0-621.0","0","0","88363","","null","","","null","68","","","","","","","","","","","","","","","NaN",""
"","S1","","html-keyboard-response","442","430253","0.0-1.0-623.0","0","0","88363","","null","","","null","69","","","","","","","","","","","","","","","",""
"","ISI","","html-keyboard-response","443","431257","0.0-1.0-624.0","0","0","88363","","null","","","null","69","NaN","","","","","","","","","","","","","","",""
"","S2","","html-keyboard-response","444","431513","0.0-1.0-625.0","0","0","88363","","null","","","null","69","","NaN","","","","","","","","","","","","","",""
"","response","","html-keyboard-response","445","432016","0.0-1.0-626.0-0.0","0","0","88363","","502","","","68","69","","","2","69","training","adjacent","DC","4","3","O.jpg","P.jpg","0","0","1","",""
"","feedback","","html-keyboard-response","446","433027","0.0-1.0-627.0-0.0","0","0","88363","","null","","","null","69","","","","","","","","","","","","","","","",""
"","ITI","","html-keyboard-response","447","434032","0.0-1.0-630.0","0","0","88363","","null","","","null","69","","","","","","","","","","","","","","","NaN",""
"","S1","","html-keyboard-response","448","434287","0.0-1.0-632.0","0","0","88363","","null","","","null","70","","","","","","","","","","","","","","","",""
"","ISI","","html-keyboard-response","449","435291","0.0-1.0-633.0","0","0","88363","","null","","","null","70","NaN","","","","","","","","","","","","","","",""
"","S2","","html-keyboard-response","450","435547","0.0-1.0-634.0","0","0","88363","","null","","","null","70","","NaN","","","","","","","","","","","","","",""
"","response","","html-keyboard-response","451","436031","0.0-1.0-635.0-0.0","0","0","88363","","484","","","68","70","","","2","70","training","adjacent","DC","4","3","O.jpg","P.jpg","0","0","1","",""
"","feedback","","html-keyboard-response","452","437045","0.0-1.0-636.0-0.0","0","0","88363","","null","","","null","70","","","","","","","","","","","","","","","",""
"","ITI","","html-keyboard-response","453","438050","0.0-1.0-639.0","0","0","88363","","null","","","null","70","","","","","","","","","","","","","","","NaN",""
"","S1","","html-keyboard-response","454","438304","0.0-1.0-641.0","0","0","88363","","null","","","null","71","","","","","","","","","","","","","","","",""
"","ISI","","html-keyboard-response","455","439306","0.0-1.0-642.0","0","0","88363","","null","","","null","71","NaN","","","","","","","","","","","","","","",""
"","S2","","html-keyboard-response","456","439562","0.0-1.0-643.0","0","0","88363","","null","","","null","71","","NaN","","","","","","","","","","","","","",""
"","response","","html-keyboard-response","457","440008","0.0-1.0-644.0-0.0","0","0","88363","","444","","","68","71","","","2","71","training","adjacent","DC","4","3","O.jpg","P.jpg","0","0","1","",""
"","feedback","","html-keyboard-response","458","441014","0.0-1.0-645.0-0.0","0","0","88363","","null","","","null","71","","","","","","","","","","","","","","","",""
"","ITI","","html-keyboard-response","459","442016","0.0-1.0-648.0","0","0","88363","","null","","","null","71","","","","","","","","","","","","","","","NaN",""
"","S1","","html-keyboard-response","460","442271","0.0-1.0-650.0","0","0","88363","","null","","","null","72","","","","","","","","","","","","","","","",""
"","ISI","","html-keyboard-response","461","443276","0.0-1.0-651.0","0","0","88363","","null","","","null","72","NaN","","","","","","","","","","","","","","",""
"","S2","","html-keyboard-response","462","443532","0.0-1.0-652.0","0","0","88363","","null","","","null","72","","NaN","","","","","","","","","","","","","",""
"","response","","html-keyboard-response","463","444088","0.0-1.0-653.0-0.0","0","0","88363","","556","","","68","72","","","2","72","training","adjacent","CB","3","2","P.jpg","L.jpg","0","0","1","",""
"","feedback","","html-keyboard-response","464","445091","0.0-1.0-654.0-0.0","0","0","88363","","null","","","null","72","","","","","","","","","","","","","","","",""
"","ITI","","html-keyboard-response","465","446096","0.0-1.0-657.0","0","0","88363","","null","","","null","72","","","","","","","","","","","","","","","NaN",""
"","S1","","html-keyboard-response","466","446351","0.0-1.0-659.0","0","0","88363","","null","","","null","73","","","","","","","","","","","","","","","",""
"","ISI","","html-keyboard-response","467","447354","0.0-1.0-660.0","0","0","88363","","null","","","null","73","NaN","","","","","","","","","","","","","","",""
"","S2","","html-keyboard-response","468","447610","0.0-1.0-661.0","0","0","88363","","null","","","null","73","","NaN","","","","","","","","","","","","","",""
"","response","","html-keyboard-response","469","448852","0.0-1.0-662.0-0.0","0","0","88363","","1241","","","75","73","","","2","73","training","adjacent","ED","5","4","Q.jpg","O.jpg","1","0","0","",""
"","feedback","","html-keyboard-response","470","449859","0.0-1.0-663.0-0.0","0","0","88363","","null","","","null","73","","","","","","","","","","","","","","","",""
"","time_out","","html-keyboard-response","471","451860","0.0-1.0-665.0-0.0","0","0","88363","","null","","","null","73","","","","","","","","","","","","","","","",""
"","ITI","","html-keyboard-response","472","452865","0.0-1.0-666.0","0","0","88363","","null","","","null","73","","","","","","","","","","","","","","","NaN",""
"","S1","","html-keyboard-response","473","453121","0.0-1.0-668.0","0","0","88363","","null","","","null","74","","","","","","","","","","","","","","","",""
"","ISI","","html-keyboard-response","474","454125","0.0-1.0-669.0","0","0","88363","","null","","","null","74","NaN","","","","","","","","","","","","","","",""
"","S2","","html-keyboard-response","475","454378","0.0-1.0-670.0","0","0","88363","","null","","","null","74","","NaN","","","","","","","","","","","","","",""
"","response","","html-keyboard-response","476","455014","0.0-1.0-671.0-0.0","0","0","88363","","634","","","68","74","","","2","74","training","adjacent","FE","6","5","R.jpg","Q.jpg","0","0","1","",""
"","feedback","","html-keyboard-response","477","456029","0.0-1.0-672.0-0.0","0","0","88363","","null","","","null","74","","","","","","","","","","","","","","","",""
"","ITI","","html-keyboard-response","478","457042","0.0-1.0-675.0","0","0","88363","","null","","","null","74","","","","","","","","","","","","","","","NaN",""
"","S1","","html-keyboard-response","479","457295","0.0-1.0-677.0","0","0","88363","","null","","","null","75","","","","","","","","","","","","","","","",""
"","ISI","","html-keyboard-response","480","458312","0.0-1.0-678.0","0","0","88363","","null","","","null","75","NaN","","","","","","","","","","","","","","",""
"","S2","","html-keyboard-response","481","458564","0.0-1.0-679.0","0","0","88363","","null","","","null","75","","NaN","","","","","","","","","","","","","",""
"","response","","html-keyboard-response","482","459111","0.0-1.0-680.0-0.0","0","0","88363","","546","","","68","75","","","2","75","training","adjacent","FE","6","5","R.jpg","Q.jpg","0","0","1","",""
"","feedback","","html-keyboard-response","483","460116","0.0-1.0-681.0-0.0","0","0","88363","","null","","","null","75","","","","","","","","","","","","","","","",""
"","ITI","","html-keyboard-response","484","461123","0.0-1.0-684.0","0","0","88363","","null","","","null","75","","","","","","","","","","","","","","","NaN",""
"","S1","","html-keyboard-response","485","461379","0.0-1.0-686.0","0","0","88363","","null","","","null","76","","","","","","","","","","","","","","","",""
"","ISI","","html-keyboard-response","486","462384","0.0-1.0-687.0","0","0","88363","","null","","","null","76","NaN","","","","","","","","","","","","","","",""
"","S2","","html-keyboard-response","487","462640","0.0-1.0-688.0","0","0","88363","","null","","","null","76","","NaN","","","","","","","","","","","","","",""
"","response","","html-keyboard-response","488","463275","0.0-1.0-689.0-0.0","0","0","88363","","634","","","68","76","","","2","76","training","adjacent","CB","3","2","P.jpg","L.jpg","0","0","1","",""
"","feedback","","html-keyboard-response","489","464286","0.0-1.0-690.0-0.0","0","0","88363","","null","","","null","76","","","","","","","","","","","","","","","",""
"","ITI","","html-keyboard-response","490","465290","0.0-1.0-693.0","0","0","88363","","null","","","null","76","","","","","","","","","","","","","","","NaN",""
"","S1","","html-keyboard-response","491","465546","0.0-1.0-695.0","0","0","88363","","null","","","null","77","","","","","","","","","","","","","","","",""
"","ISI","","html-keyboard-response","492","466554","0.0-1.0-696.0","0","0","88363","","null","","","null","77","NaN","","","","","","","","","","","","","","",""
"","S2","","html-keyboard-response","493","466810","0.0-1.0-697.0","0","0","88363","","null","","","null","77","","NaN","","","","","","","","","","","","","",""
"","response","","html-keyboard-response","494","467882","0.0-1.0-698.0-0.0","0","0","88363","","1071","","","68","77","","","2","77","training","adjacent","ED","5","4","Q.jpg","O.jpg","0","0","1","",""
"","feedback","","html-keyboard-response","495","468886","0.0-1.0-699.0-0.0","0","0","88363","","null","","","null","77","","","","","","","","","","","","","","","",""
"","ITI","","html-keyboard-response","496","469889","0.0-1.0-702.0","0","0","88363","","null","","","null","77","","","","","","","","","","","","","","","NaN",""
"","S1","","html-keyboard-response","497","470145","0.0-1.0-704.0","0","0","88363","","null","","","null","78","","","","","","","","","","","","","","","",""
"","ISI","","html-keyboard-response","498","471150","0.0-1.0-705.0","0","0","88363","","null","","","null","78","NaN","","","","","","","","","","","","","","",""
"","S2","","html-keyboard-response","499","471406","0.0-1.0-706.0","0","0","88363","","null","","","null","78","","NaN","","","","","","","","","","","","","",""
"","response","","html-keyboard-response","500","472090","0.0-1.0-707.0-0.0","0","0","88363","","683","","","75","78","","","2","78","training","adjacent","FG","6","7","R.jpg","N.jpg","1","1","1","",""
"","feedback","","html-keyboard-response","501","473098","0.0-1.0-708.0-0.0","0","0","88363","","null","","","null","78","","","","","","","","","","","","","","","",""
"","ITI","","html-keyboard-response","502","474104","0.0-1.0-711.0","0","0","88363","","null","","","null","78","","","","","","","","","","","","","","","NaN",""
"","S1","","html-keyboard-response","503","474359","0.0-1.0-713.0","0","0","88363","","null","","","null","79","","","","","","","","","","","","","","","",""
"","ISI","","html-keyboard-response","504","475371","0.0-1.0-714.0","0","0","88363","","null","","","null","79","NaN","","","","","","","","","","","","","","",""
"","S2","","html-keyboard-response","505","475625","0.0-1.0-715.0","0","0","88363","","null","","","null","79","","NaN","","","","","","","","","","","","","",""
"","response","","html-keyboard-response","506","476326","0.0-1.0-716.0-0.0","0","0","88363","","699","","","75","79","","","2","79","training","adjacent","DE","4","5","O.jpg","Q.jpg","1","1","1","",""
"","feedback","","html-keyboard-response","507","477336","0.0-1.0-717.0-0.0","0","0","88363","","null","","","null","79","","","","","","","","","","","","","","","",""
"","ITI","","html-keyboard-response","508","478339","0.0-1.0-720.0","0","0","88363","","null","","","null","79","","","","","","","","","","","","","","","NaN",""
"","S1","","html-keyboard-response","509","478595","0.0-1.0-722.0","0","0","88363","","null","","","null","80","","","","","","","","","","","","","","","",""
"","ISI","","html-keyboard-response","510","479601","0.0-1.0-723.0","0","0","88363","","null","","","null","80","NaN","","","","","","","","","","","","","","",""
"","S2","","html-keyboard-response","511","479856","0.0-1.0-724.0","0","0","88363","","null","","","null","80","","NaN","","","","","","","","","","","","","",""
"","response","","html-keyboard-response","512","480597","0.0-1.0-725.0-0.0","0","0","88363","","740","","","75","80","","","2","80","training","adjacent","AB","1","2","M.jpg","L.jpg","1","1","1","",""
"","feedback","","html-keyboard-response","513","481600","0.0-1.0-726.0-0.0","0","0","88363","","null","","","null","80","","","","","","","","","","","","","","","",""
"","ITI","","html-keyboard-response","514","482605","0.0-1.0-729.0","0","0","88363","","null","","","null","80","","","","","","","","","","","","","","","NaN",""
"","S1","","html-keyboard-response","515","482858","0.0-1.0-731.0","0","0","88363","","null","","","null","81","","","","","","","","","","","","","","","",""
"","ISI","","html-keyboard-response","516","483862","0.0-1.0-732.0","0","0","88363","","null","","","null","81","NaN","","","","","","","","","","","","","","",""
"","S2","","html-keyboard-response","517","484118","0.0-1.0-733.0","0","0","88363","","null","","","null","81","","NaN","","","","","","","","","","","","","",""
"","response","","html-keyboard-response","518","484713","0.0-1.0-734.0-0.0","0","0","88363","","594","","","68","81","","","2","81","training","adjacent","BA","2","1","L.jpg","M.jpg","0","0","1","",""
"","feedback","","html-keyboard-response","519","485722","0.0-1.0-735.0-0.0","0","0","88363","","null","","","null","81","","","","","","","","","","","","","","","",""
"","ITI","","html-keyboard-response","520","486737","0.0-1.0-738.0","0","0","88363","","null","","","null","81","","","","","","","","","","","","","","","NaN",""
"","S1","","html-keyboard-response","521","486990","0.0-1.0-740.0","0","0","88363","","null","","","null","82","","","","","","","","","","","","","","","",""
"","ISI","","html-keyboard-response","522","488004","0.0-1.0-741.0","0","0","88363","","null","","","null","82","NaN","","","","","","","","","","","","","","",""
"","S2","","html-keyboard-response","523","488257","0.0-1.0-742.0","0","0","88363","","null","","","null","82","","NaN","","","","","","","","","","","","","",""
"","response","","html-keyboard-response","524","489007","0.0-1.0-743.0-0.0","0","0","88363","","750","","","75","82","","","2","82","training","adjacent","ED","5","4","Q.jpg","O.jpg","1","0","0","",""
"","feedback","","html-keyboard-response","525","490014","0.0-1.0-744.0-0.0","0","0","88363","","null","","","null","82","","","","","","","","","","","","","","","",""
"","time_out","","html-keyboard-response","526","492025","0.0-1.0-746.0-0.0","0","0","88363","","null","","","null","82","","","","","","","","","","","","","","","",""
"","ITI","","html-keyboard-response","527","493030","0.0-1.0-747.0","0","0","88363","","null","","","null","82","","","","","","","","","","","","","","","NaN",""
"","S1","","html-keyboard-response","528","493286","0.0-1.0-749.0","0","0","88363","","null","","","null","83","","","","","","","","","","","","","","","",""
"","ISI","","html-keyboard-response","529","494291","0.0-1.0-750.0","0","0","88363","","null","","","null","83","NaN","","","","","","","","","","","","","","",""
"","S2","","html-keyboard-response","530","494548","0.0-1.0-751.0","0","0","88363","","null","","","null","83","","NaN","","","","","","","","","","","","","",""
"","response","","html-keyboard-response","531","494928","0.0-1.0-752.0-0.0","0","0","88363","","379","","","68","83","","","2","83","training","adjacent","GF","7","6","N.jpg","R.jpg","0","0","1","",""
"","feedback","","html-keyboard-response","532","495938","0.0-1.0-753.0-0.0","0","0","88363","","null","","","null","83","","","","","","","","","","","","","","","",""
"","ITI","","html-keyboard-response","533","496944","0.0-1.0-756.0","0","0","88363","","null","","","null","83","","","","","","","","","","","","","","","NaN",""
"","S1","","html-keyboard-response","534","497200","0.0-1.0-758.0","0","0","88363","","null","","","null","84","","","","","","","","","","","","","","","",""
"","ISI","","html-keyboard-response","535","498202","0.0-1.0-759.0","0","0","88363","","null","","","null","84","NaN","","","","","","","","","","","","","","",""
"","S2","","html-keyboard-response","536","498458","0.0-1.0-760.0","0","0","88363","","null","","","null","84","","NaN","","","","","","","","","","","","","",""
"","response","","html-keyboard-response","537","499082","0.0-1.0-761.0-0.0","0","0","88363","","623","","","75","84","","","2","84","training","adjacent","DE","4","5","O.jpg","Q.jpg","1","1","1","",""
"","feedback","","html-keyboard-response","538","500090","0.0-1.0-762.0-0.0","0","0","88363","","null","","","null","84","","","","","","","","","","","","","","","",""
"","ITI","","html-keyboard-response","539","501105","0.0-1.0-765.0","0","0","88363","","null","","","null","84","","","","","","","","","","","","","","","NaN",""
"","S1","","html-keyboard-response","540","501358","0.0-1.0-767.0","0","0","88363","","null","","","null","85","","","","","","","","","","","","","","","",""
"","ISI","","html-keyboard-response","541","502361","0.0-1.0-768.0","0","0","88363","","null","","","null","85","NaN","","","","","","","","","","","","","","",""
"","S2","","html-keyboard-response","542","502616","0.0-1.0-769.0","0","0","88363","","null","","","null","85","","NaN","","","","","","","","","","","","","",""
"","response","","html-keyboard-response","543","503286","0.0-1.0-770.0-0.0","0","0","88363","","669","","","68","85","","","2","85","training","adjacent","BA","2","1","L.jpg","M.jpg","0","0","1","",""
"","feedback","","html-keyboard-response","544","504287","0.0-1.0-771.0-0.0","0","0","88363","","null","","","null","85","","","","","","","","","","","","","","","",""
"","ITI","","html-keyboard-response","545","505303","0.0-1.0-774.0","0","0","88363","","null","","","null","85","","","","","","","","","","","","","","","NaN",""
"","S1","","html-keyboard-response","546","505556","0.0-1.0-776.0","0","0","88363","","null","","","null","86","","","","","","","","","","","","","","","",""
"","ISI","","html-keyboard-response","547","506572","0.0-1.0-777.0","0","0","88363","","null","","","null","86","NaN","","","","","","","","","","","","","","",""
"","S2","","html-keyboard-response","548","506825","0.0-1.0-778.0","0","0","88363","","null","","","null","86","","NaN","","","","","","","","","","","","","",""
"","response","","html-keyboard-response","549","507773","0.0-1.0-779.0-0.0","0","0","88363","","948","","","75","86","","","2","86","training","adjacent","BC","2","3","L.jpg","P.jpg","1","1","1","",""
"","feedback","","html-keyboard-response","550","508786","0.0-1.0-780.0-0.0","0","0","88363","","null","","","null","86","","","","","","","","","","","","","","","",""
"","ITI","","html-keyboard-response","551","509789","0.0-1.0-783.0","0","0","88363","","null","","","null","86","","","","","","","","","","","","","","","NaN",""
"","S1","","html-keyboard-response","552","510046","0.0-1.0-785.0","0","0","88363","","null","","","null","87","","","","","","","","","","","","","","","",""
"","ISI","","html-keyboard-response","553","511054","0.0-1.0-786.0","0","0","88363","","null","","","null","87","NaN","","","","","","","","","","","","","","",""
"","S2","","html-keyboard-response","554","511309","0.0-1.0-787.0","0","0","88363","","null","","","null","87","","NaN","","","","","","","","","","","","","",""
"","response","","html-keyboard-response","555","512080","0.0-1.0-788.0-0.0","0","0","88363","","769","","","68","87","","","2","87","training","adjacent","GF","7","6","N.jpg","R.jpg","0","0","1","",""
"","feedback","","html-keyboard-response","556","513082","0.0-1.0-789.0-0.0","0","0","88363","","null","","","null","87","","","","","","","","","","","","","","","",""
"","ITI","","html-keyboard-response","557","514087","0.0-1.0-792.0","0","0","88363","","null","","","null","87","","","","","","","","","","","","","","","NaN",""
"","S1","","html-keyboard-response","558","514343","0.0-1.0-794.0","0","0","88363","","null","","","null","88","","","","","","","","","","","","","","","",""
"","ISI","","html-keyboard-response","559","515349","0.0-1.0-795.0","0","0","88363","","null","","","null","88","NaN","","","","","","","","","","","","","","",""
"","S2","","html-keyboard-response","560","515604","0.0-1.0-796.0","0","0","88363","","null","","","null","88","","NaN","","","","","","","","","","","","","",""
"","response","","html-keyboard-response","561","516661","0.0-1.0-797.0-0.0","0","0","88363","","1055","","","75","88","","","2","88","training","adjacent","FE","6","5","R.jpg","Q.jpg","1","0","0","",""
"","feedback","","html-keyboard-response","562","517665","0.0-1.0-798.0-0.0","0","0","88363","","null","","","null","88","","","","","","","","","","","","","","","",""
"","time_out","","html-keyboard-response","563","519673","0.0-1.0-800.0-0.0","0","0","88363","","null","","","null","88","","","","","","","","","","","","","","","",""
"","ITI","","html-keyboard-response","564","520677","0.0-1.0-801.0","0","0","88363","","null","","","null","88","","","","","","","","","","","","","","","NaN",""
"","S1","","html-keyboard-response","565","520933","0.0-1.0-803.0","0","0","88363","","null","","","null","89","","","","","","","","","","","","","","","",""
"","ISI","","html-keyboard-response","566","521940","0.0-1.0-804.0","0","0","88363","","null","","","null","89","NaN","","","","","","","","","","","","","","",""
"","S2","","html-keyboard-response","567","522195","0.0-1.0-805.0","0","0","88363","","null","","","null","89","","NaN","","","","","","","","","","","","","",""
"","response","","html-keyboard-response","568","522787","0.0-1.0-806.0-0.0","0","0","88363","","590","","","75","89","","","2","89","training","adjacent","FG","6","7","R.jpg","N.jpg","1","1","1","",""
"","feedback","","html-keyboard-response","569","523791","0.0-1.0-807.0-0.0","0","0","88363","","null","","","null","89","","","","","","","","","","","","","","","",""
"","ITI","","html-keyboard-response","570","524798","0.0-1.0-810.0","0","0","88363","","null","","","null","89","","","","","","","","","","","","","","","NaN",""
"","S1","","html-keyboard-response","571","525052","0.0-1.0-812.0","0","0","88363","","null","","","null","90","","","","","","","","","","","","","","","",""
"","ISI","","html-keyboard-response","572","526057","0.0-1.0-813.0","0","0","88363","","null","","","null","90","NaN","","","","","","","","","","","","","","",""
"","S2","","html-keyboard-response","573","526312","0.0-1.0-814.0","0","0","88363","","null","","","null","90","","NaN","","","","","","","","","","","","","",""
"","response","","html-keyboard-response","574","526718","0.0-1.0-815.0-0.0","0","0","88363","","404","","","68","90","","","2","90","training","adjacent","BA","2","1","L.jpg","M.jpg","0","0","1","",""
"","feedback","","html-keyboard-response","575","527730","0.0-1.0-816.0-0.0","0","0","88363","","null","","","null","90","","","","","","","","","","","","","","","",""
"","ITI","","html-keyboard-response","576","528737","0.0-1.0-819.0","0","0","88363","","null","","","null","90","","","","","","","","","","","","","","","NaN",""
"","S1","","html-keyboard-response","577","528993","0.0-1.0-821.0","0","0","88363","","null","","","null","91","","","","","","","","","","","","","","","",""
"","ISI","","html-keyboard-response","578","529998","0.0-1.0-822.0","0","0","88363","","null","","","null","91","NaN","","","","","","","","","","","","","","",""
"","S2","","html-keyboard-response","579","530254","0.0-1.0-823.0","0","0","88363","","null","","","null","91","","NaN","","","","","","","","","","","","","",""
"","response","","html-keyboard-response","580","530872","0.0-1.0-824.0-0.0","0","0","88363","","616","","","75","91","","","2","91","training","adjacent","AB","1","2","M.jpg","L.jpg","1","1","1","",""
"","feedback","","html-keyboard-response","581","531882","0.0-1.0-825.0-0.0","0","0","88363","","null","","","null","91","","","","","","","","","","","","","","","",""
"","ITI","","html-keyboard-response","582","532889","0.0-1.0-828.0","0","0","88363","","null","","","null","91","","","","","","","","","","","","","","","NaN",""
