"success","ttype","start_time","trial_type","trial_index","time_elapsed","internal_node_id","warning","missed_checkup","PID","view_history","rt","responses","repeat_instructions","key_press","index","keypress_isi","keypress_S2","block","trial_num","phase","group_type","pair_type","S1_stim","S2_stim","S1_img","S2_img","S1_chosen","S1_higher","accuracy","keypress_iti","total_bonus_tally"
"true","full_screen","d03072023hr1910","fullscreen","0","7239","0.0-0.0","0","0","21384","","","","","","","","","","","","","","","","","","","","","",""
"","instructions","","instructions","1","39416","0.0-1.0-0.0-0.0","0","0","21384","[{""page_index"":0,""viewing_time"":4767},{""page_index"":1,""viewing_time"":16230},{""page_index"":2,""viewing_time"":8275},{""page_index"":3,""viewing_time"":2896}]","32169","","","","","","","","","","","","","","","","","","","",""
"","comprehension_check","","survey-multi-choice","2","68540","0.0-1.0-0.0-1.0","0","0","21384","","29113","{""Q0"":""True"",""Q1"":""D"",""Q2"":""Only when the screen 'MAKE A CHOICE' is shown"",""Q3"":""Green mark"",""Q4"":""either D or K""}","1","","","","","","","","","","","","","","","","","",""
"","missed_instruction_checkup","","html-keyboard-response","3","70886","0.0-1.0-0.0-2.0-0.0","0","1","21384","","2337","","","32","","","","","","","","","","","","","","","","",""
"","instructions","","instructions","4","104619","0.0-1.0-0.1-0.1","0","0","21384","[{""page_index"":0,""viewing_time"":6612},{""page_index"":1,""viewing_time"":20595},{""page_index"":2,""viewing_time"":4866},{""page_index"":3,""viewing_time"":1653}]","33727","","","","","","","","","","","","","","","","","","","",""
"","comprehension_check","","survey-multi-choice","5","130072","0.0-1.0-0.1-1.1","0","0","21384","","25442","{""Q0"":""True"",""Q1"":""D"",""Q2"":""Once the second image appears and while the screen 'MAKE A CHOICE' is shown"",""Q3"":""Green mark"",""Q4"":""either D or K""}","0","","","","","","","","","","","","","","","","","",""
"","start_exp","","html-keyboard-response","6","140165","0.0-1.0-1.0","0","0","21384","","10085","","","32","","","","","","","","","","","","","","","","",""
"","S1","","html-keyboard-response","7","140423","0.0-1.0-2.0","0","0","21384","","null","","","null","0","","","","","","","","","","","","","","","",""
"","ISI","","html-keyboard-response","8","141430","0.0-1.0-3.0","0","0","21384","","997","","","68","0","d","","","","","","","","","","","","","","",""
"","S2","","html-keyboard-response","9","141691","0.0-1.0-4.0","0","0","21384","","null","","","null","0","","NaN","","","","","","","","","","","","","",""
"","response","","html-keyboard-response","10","142339","0.0-1.0-5.0-0.0","0","0","21384","","640","","","68","0","","","1","0","training","adjacent","EF","5","6","P.jpg","Q.jpg","1","1","1","",""
"","feedback","","html-keyboard-response","11","143351","0.0-1.0-6.0-0.0","0","0","21384","","null","","","null","0","","","","","","","","","","","","","","","",""
"","ITI","","html-keyboard-response","12","144362","0.0-1.0-9.0","0","0","21384","","null","","","null","0","","","","","","","","","","","","","","","NaN",""
"","S1","","html-keyboard-response","13","144618","0.0-1.0-11.0","0","0","21384","","null","","","null","1","","","","","","","","","","","","","","","",""
"","ISI","","html-keyboard-response","14","145628","0.0-1.0-12.0","0","0","21384","","null","","","null","1","NaN","","","","","","","","","","","","","","",""
"","S2","","html-keyboard-response","15","145662","0.0-1.0-13.0","0","0","21384","","29","","","68","1","","d","1","1","training","adjacent","BA","2","1","N.jpg","R.jpg","1","0","0","",""
"","feedback","","html-keyboard-response","16","146672","0.0-1.0-15.0-0.0","0","0","21384","","null","","","null","1","","","","","","","","","","","","","","","",""
"","time_out","","html-keyboard-response","17","148680","0.0-1.0-17.0-0.0","0","0","21384","","null","","","null","1","","","","","","","","","","","","","","","",""
"","ITI","","html-keyboard-response","18","149689","0.0-1.0-18.0","0","0","21384","","null","","","null","1","","","","","","","","","","","","","","","NaN",""
"","S1","","html-keyboard-response","19","149946","0.0-1.0-20.0","0","0","21384","","null","","","null","2","","","","","","","","","","","","","","","",""
"","ISI","","html-keyboard-response","20","150953","0.0-1.0-21.0","0","0","21384","","137","","","75","2","k","","","","","","","","","","","","","","",""
"","S2","","html-keyboard-response","21","151214","0.0-1.0-22.0","0","0","21384","","null","","","null","2","","NaN","","","","","","","","","","","","","",""
"","response","","html-keyboard-response","22","151441","0.0-1.0-23.0-0.0","0","0","21384","","220","","","75","2","","","1","2","training","adjacent","ED","5","4","P.jpg","L.jpg","0","0","1","",""
"","feedback","","html-keyboard-response","23","152453","0.0-1.0-24.0-0.0","0","0","21384","","null","","","null","2","","","","","","","","","","","","","","","",""
"","ITI","","html-keyboard-response","24","153465","0.0-1.0-27.0","0","0","21384","","null","","","null","2","","","","","","","","","","","","","","","NaN",""
"","S1","","html-keyboard-response","25","153722","0.0-1.0-29.0","0","0","21384","","null","","","null","3","","","","","","","","","","","","","","","",""
"","ISI","","html-keyboard-response","26","154733","0.0-1.0-30.0","0","0","21384","","null","","","null","3","NaN","","","","","","","","","","","","","","",""
"","S2","","html-keyboard-response","27","155005","0.0-1.0-31.0","0","0","21384","","null","","","null","3","","NaN","","","","","","","","","","","","","",""
"","response","","html-keyboard-response","28","155169","0.0-1.0-32.0-0.0","0","0","21384","","157","","","75","3","","","1","3","training","adjacent","FG","6","7","Q.jpg","O.jpg","0","1","0","",""
"","feedback","","html-keyboard-response","29","156179","0.0-1.0-33.0-0.0","0","0","21384","","null","","","null","3","","","","","","","","","","","","","","","",""
"","time_out","","html-keyboard-response","30","158188","0.0-1.0-35.0-0.0","0","0","21384","","null","","","null","3","","","","","","","","","","","","","","","",""
"","ITI","","html-keyboard-response","31","159199","0.0-1.0-36.0","0","0","21384","","null","","","null","3","","","","","","","","","","","","","","","NaN",""
"","S1","","html-keyboard-response","32","159456","0.0-1.0-38.0","0","0","21384","","null","","","null","4","","","","","","","","","","","","","","","",""
"","ISI","","html-keyboard-response","33","160464","0.0-1.0-39.0","0","0","21384","","40","","","68","4","d","","","","","","","","","","","","","","",""
"","S2","","html-keyboard-response","34","160724","0.0-1.0-40.0","0","0","21384","","null","","","null","4","","NaN","","","","","","","","","","","","","",""
"","response","","html-keyboard-response","35","160736","0.0-1.0-41.0-0.0","0","0","21384","","4","","","68","4","","","1","4","training","adjacent","DE","4","5","L.jpg","P.jpg","1","1","1","",""
"","feedback","","html-keyboard-response","36","161746","0.0-1.0-42.0-0.0","0","0","21384","","null","","","null","4","","","","","","","","","","","","","","","",""
"","ITI","","html-keyboard-response","37","162755","0.0-1.0-45.0","0","0","21384","","null","","","null","4","","","","","","","","","","","","","","","NaN",""
"","S1","","html-keyboard-response","38","163021","0.0-1.0-47.0","0","0","21384","","null","","","null","5","","","","","","","","","","","","","","","",""
"","ISI","","html-keyboard-response","39","164031","0.0-1.0-48.0","0","0","21384","","291","","","68","5","d","","","","","","","","","","","","","","",""
"","S2","","html-keyboard-response","40","164291","0.0-1.0-49.0","0","0","21384","","null","","","null","5","","NaN","","","","","","","","","","","","","",""
"","response","","html-keyboard-response","41","164405","0.0-1.0-50.0-0.0","0","0","21384","","108","","","68","5","","","1","5","training","adjacent","DE","4","5","L.jpg","P.jpg","1","1","1","",""
"","feedback","","html-keyboard-response","42","165416","0.0-1.0-51.0-0.0","0","0","21384","","null","","","null","5","","","","","","","","","","","","","","","",""
"","ITI","","html-keyboard-response","43","166426","0.0-1.0-54.0","0","0","21384","","null","","","null","5","","","","","","","","","","","","","","","NaN",""
"","S1","","html-keyboard-response","44","166685","0.0-1.0-56.0","0","0","21384","","null","","","null","6","","","","","","","","","","","","","","","",""
"","ISI","","html-keyboard-response","45","167693","0.0-1.0-57.0","0","0","21384","","null","","","null","6","NaN","","","","","","","","","","","","","","",""
"","S2","","html-keyboard-response","46","167952","0.0-1.0-58.0","0","0","21384","","null","","","null","6","","NaN","","","","","","","","","","","","","",""
"","response","","html-keyboard-response","47","168576","0.0-1.0-59.0-0.0","0","0","21384","","616","","","75","6","","","1","6","training","adjacent","EF","5","6","P.jpg","Q.jpg","0","1","0","",""
"","feedback","","html-keyboard-response","48","169585","0.0-1.0-60.0-0.0","0","0","21384","","null","","","null","6","","","","","","","","","","","","","","","",""
"","time_out","","html-keyboard-response","49","171591","0.0-1.0-62.0-0.0","0","0","21384","","null","","","null","6","","","","","","","","","","","","","","","",""
"","ITI","","html-keyboard-response","50","172600","0.0-1.0-63.0","0","0","21384","","946","","","68","6","","","","","","","","","","","","","","","d",""
"","S1","","html-keyboard-response","51","172858","0.0-1.0-65.0","0","0","21384","","null","","","null","7","","","","","","","","","","","","","","","",""
"","ISI","","html-keyboard-response","52","173863","0.0-1.0-66.0","0","0","21384","","173","","","68","7","d","","","","","","","","","","","","","","",""
"","S2","","html-keyboard-response","53","174078","0.0-1.0-67.0","0","0","21384","","207","","","68","7","","d","1","7","training","adjacent","EF","5","6","P.jpg","Q.jpg","1","1","1","",""
"","feedback","","html-keyboard-response","54","175088","0.0-1.0-69.0-0.0","0","0","21384","","null","","","null","7","","","","","","","","","","","","","","","",""
"","ITI","","html-keyboard-response","55","176098","0.0-1.0-72.0","0","0","21384","","null","","","null","7","","","","","","","","","","","","","","","NaN",""
"","S1","","html-keyboard-response","56","176354","0.0-1.0-74.0","0","0","21384","","null","","","null","8","","","","","","","","","","","","","","","",""
"","ISI","","html-keyboard-response","57","177360","0.0-1.0-75.0","0","0","21384","","29","","","68","8","d","","","","","","","","","","","","","","",""
"","S2","","html-keyboard-response","58","177620","0.0-1.0-76.0","0","0","21384","","null","","","null","8","","NaN","","","","","","","","","","","","","",""
"","response","","html-keyboard-response","59","177894","0.0-1.0-77.0-0.0","0","0","21384","","266","","","68","8","","","1","8","training","adjacent","ED","5","4","P.jpg","L.jpg","1","0","0","",""
"","feedback","","html-keyboard-response","60","178902","0.0-1.0-78.0-0.0","0","0","21384","","null","","","null","8","","","","","","","","","","","","","","","",""
"","time_out","","html-keyboard-response","61","180911","0.0-1.0-80.0-0.0","0","0","21384","","null","","","null","8","","","","","","","","","","","","","","","",""
"","ITI","","html-keyboard-response","62","181920","0.0-1.0-81.0","0","0","21384","","null","","","null","8","","","","","","","","","","","","","","","NaN",""
"","S1","","html-keyboard-response","63","182176","0.0-1.0-83.0","0","0","21384","","null","","","null","9","","","","","","","","","","","","","","","",""
"","ISI","","html-keyboard-response","64","183182","0.0-1.0-84.0","0","0","21384","","null","","","null","9","NaN","","","","","","","","","","","","","","",""
"","S2","","html-keyboard-response","65","183413","0.0-1.0-85.0","0","0","21384","","223","","","75","9","","k","1","9","training","adjacent","DE","4","5","L.jpg","P.jpg","0","1","0","",""
"","feedback","","html-keyboard-response","66","184423","0.0-1.0-87.0-0.0","0","0","21384","","null","","","null","9","","","","","","","","","","","","","","","",""
"","time_out","","html-keyboard-response","67","186432","0.0-1.0-89.0-0.0","0","0","21384","","null","","","null","9","","","","","","","","","","","","","","","",""
"","ITI","","html-keyboard-response","68","187442","0.0-1.0-90.0","0","0","21384","","null","","","null","9","","","","","","","","","","","","","","","NaN",""
"","S1","","html-keyboard-response","69","187701","0.0-1.0-92.0","0","0","21384","","null","","","null","10","","","","","","","","","","","","","","","",""
"","ISI","","html-keyboard-response","70","188712","0.0-1.0-93.0","0","0","21384","","32","","","68","10","d","","","","","","","","","","","","","","",""
"","S2","","html-keyboard-response","71","188972","0.0-1.0-94.0","0","0","21384","","null","","","null","10","","NaN","","","","","","","","","","","","","",""
"","response","","html-keyboard-response","72","189048","0.0-1.0-95.0-0.0","0","0","21384","","71","","","68","10","","","1","10","training","adjacent","DC","4","3","L.jpg","M.jpg","1","0","0","",""
"","feedback","","html-keyboard-response","73","190057","0.0-1.0-96.0-0.0","0","0","21384","","null","","","null","10","","","","","","","","","","","","","","","",""
"","time_out","","html-keyboard-response","74","192065","0.0-1.0-98.0-0.0","0","0","21384","","null","","","null","10","","","","","","","","","","","","","","","",""
"","ITI","","html-keyboard-response","75","193073","0.0-1.0-99.0","0","0","21384","","null","","","null","10","","","","","","","","","","","","","","","NaN",""
"","S1","","html-keyboard-response","76","193332","0.0-1.0-101.0","0","0","21384","","null","","","null","11","","","","","","","","","","","","","","","",""
"","ISI","","html-keyboard-response","77","194339","0.0-1.0-102.0","0","0","21384","","null","","","null","11","NaN","","","","","","","","","","","","","","",""
"","S2","","html-keyboard-response","78","194597","0.0-1.0-103.0","0","0","21384","","null","","","null","11","","NaN","","","","","","","","","","","","","",""
"","response","","html-keyboard-response","79","194601","0.0-1.0-104.0-0.0","0","0","21384","","0","","","68","11","","","1","11","training","adjacent","DC","4","3","L.jpg","M.jpg","1","0","0","",""
"","feedback","","html-keyboard-response","80","195609","0.0-1.0-105.0-0.0","0","0","21384","","null","","","null","11","","","","","","","","","","","","","","","",""
"","time_out","","html-keyboard-response","81","197615","0.0-1.0-107.0-0.0","0","0","21384","","null","","","null","11","","","","","","","","","","","","","","","",""
"","ITI","","html-keyboard-response","82","198620","0.0-1.0-108.0","0","0","21384","","null","","","null","11","","","","","","","","","","","","","","","NaN",""
"","S1","","html-keyboard-response","83","198879","0.0-1.0-110.0","0","0","21384","","null","","","null","12","","","","","","","","","","","","","","","",""
"","ISI","","html-keyboard-response","84","199888","0.0-1.0-111.0","0","0","21384","","29","","","68","12","d","","","","","","","","","","","","","","",""
"","S2","","html-keyboard-response","85","200147","0.0-1.0-112.0","0","0","21384","","null","","","null","12","","NaN","","","","","","","","","","","","","",""
"","response","","html-keyboard-response","86","200199","0.0-1.0-113.0-0.0","0","0","21384","","47","","","68","12","","","1","12","training","adjacent","AB","1","2","R.jpg","N.jpg","1","1","1","",""
"","feedback","","html-keyboard-response","87","201208","0.0-1.0-114.0-0.0","0","0","21384","","null","","","null","12","","","","","","","","","","","","","","","",""
"","ITI","","html-keyboard-response","88","202216","0.0-1.0-117.0","0","0","21384","","null","","","null","12","","","","","","","","","","","","","","","NaN",""
"","S1","","html-keyboard-response","89","202474","0.0-1.0-119.0","0","0","21384","","null","","","null","13","","","","","","","","","","","","","","","",""
"","ISI","","html-keyboard-response","90","203483","0.0-1.0-120.0","0","0","21384","","930","","","68","13","d","","","","","","","","","","","","","","",""
"","S2","","html-keyboard-response","91","203743","0.0-1.0-121.0","0","0","21384","","null","","","null","13","","NaN","","","","","","","","","","","","","",""
"","response","","html-keyboard-response","92","203862","0.0-1.0-122.0-0.0","0","0","21384","","114","","","68","13","","","1","13","training","adjacent","ED","5","4","P.jpg","L.jpg","1","0","0","",""
"","feedback","","html-keyboard-response","93","204870","0.0-1.0-123.0-0.0","0","0","21384","","null","","","null","13","","","","","","","","","","","","","","","",""
"","time_out","","html-keyboard-response","94","206878","0.0-1.0-125.0-0.0","0","0","21384","","null","","","null","13","","","","","","","","","","","","","","","",""
"","ITI","","html-keyboard-response","95","207886","0.0-1.0-126.0","0","0","21384","","null","","","null","13","","","","","","","","","","","","","","","NaN",""
"","S1","","html-keyboard-response","96","208146","0.0-1.0-128.0","0","0","21384","","null","","","null","14","","","","","","","","","","","","","","","",""
"","ISI","","html-keyboard-response","97","209151","0.0-1.0-129.0","0","0","21384","","null","","","null","14","NaN","","","","","","","","","","","","","","",""
"","S2","","html-keyboard-response","98","209412","0.0-1.0-130.0","0","0","21384","","null","","","null","14","","NaN","","","","","","","","","","","","","",""
"","response","","html-keyboard-response","99","211169","0.0-1.0-131.0-0.0","0","0","21384","","null","","","null","14","","","1","14","training","adjacent","DE","4","5","L.jpg","P.jpg","NaN","1","0","",""
"","too_slow_prompt","","html-keyboard-response","100","212177","0.0-1.0-133.0-0.0","1","0","21384","","null","","","null","","","","","","","","","","","","","","","","",""
"","time_out","","html-keyboard-response","101","214186","0.0-1.0-134.0-0.0","0","0","21384","","null","","","null","14","","","","","","","","","","","","","","","",""
"","ITI","","html-keyboard-response","102","215195","0.0-1.0-135.0","0","0","21384","","null","","","null","14","","","","","","","","","","","","","","","NaN",""
"","S1","","html-keyboard-response","103","215452","0.0-1.0-137.0","0","0","21384","","null","","","null","15","","","","","","","","","","","","","","","",""
"","ISI","","html-keyboard-response","104","216463","0.0-1.0-138.0","0","0","21384","","null","","","null","15","NaN","","","","","","","","","","","","","","",""
"","S2","","html-keyboard-response","105","216723","0.0-1.0-139.0","0","0","21384","","null","","","null","15","","NaN","","","","","","","","","","","","","",""
"","response","","html-keyboard-response","106","216739","0.0-1.0-140.0-0.0","0","0","21384","","8","","","68","15","","","1","15","training","adjacent","DC","4","3","L.jpg","M.jpg","1","0","0","",""
"","feedback","","html-keyboard-response","107","217749","0.0-1.0-141.0-0.0","0","0","21384","","null","","","null","15","","","","","","","","","","","","","","","",""
"","time_out","","html-keyboard-response","108","219758","0.0-1.0-143.0-0.0","0","0","21384","","null","","","null","15","","","","","","","","","","","","","","","",""
"","ITI","","html-keyboard-response","109","220765","0.0-1.0-144.0","0","0","21384","","null","","","null","15","","","","","","","","","","","","","","","NaN",""
"","S1","","html-keyboard-response","110","221024","0.0-1.0-146.0","0","0","21384","","null","","","null","16","","","","","","","","","","","","","","","",""
"","ISI","","html-keyboard-response","111","222029","0.0-1.0-147.0","0","0","21384","","711","","","75","16","k","","","","","","","","","","","","","","",""
"","S2","","html-keyboard-response","112","222267","0.0-1.0-148.0","0","0","21384","","230","","","75","16","","k","1","16","training","adjacent","DC","4","3","L.jpg","M.jpg","0","0","1","",""
"","feedback","","html-keyboard-response","113","223274","0.0-1.0-150.0-0.0","0","0","21384","","null","","","null","16","","","","","","","","","","","","","","","",""
"","ITI","","html-keyboard-response","114","224283","0.0-1.0-153.0","0","0","21384","","null","","","null","16","","","","","","","","","","","","","","","NaN",""
"","S1","","html-keyboard-response","115","224541","0.0-1.0-155.0","0","0","21384","","null","","","null","17","","","","","","","","","","","","","","","",""
"","ISI","","html-keyboard-response","116","225550","0.0-1.0-156.0","0","0","21384","","null","","","null","17","NaN","","","","","","","","","","","","","","",""
"","S2","","html-keyboard-response","117","225807","0.0-1.0-157.0","0","0","21384","","249","","","75","17","","k","1","17","training","adjacent","FE","6","5","Q.jpg","P.jpg","0","0","1","",""
"","feedback","","html-keyboard-response","118","226827","0.0-1.0-159.0-0.0","0","0","21384","","null","","","null","17","","","","","","","","","","","","","","","",""
"","ITI","","html-keyboard-response","119","227835","0.0-1.0-162.0","0","0","21384","","null","","","null","17","","","","","","","","","","","","","","","NaN",""
"","S1","","html-keyboard-response","120","228094","0.0-1.0-164.0","0","0","21384","","null","","","null","18","","","","","","","","","","","","","","","",""
"","ISI","","html-keyboard-response","121","229104","0.0-1.0-165.0","0","0","21384","","105","","","75","18","k","","","","","","","","","","","","","","",""
"","S2","","html-keyboard-response","122","229303","0.0-1.0-166.0","0","0","21384","","191","","","75","18","","k","1","18","training","adjacent","GF","7","6","O.jpg","Q.jpg","0","0","1","",""
"","feedback","","html-keyboard-response","123","230312","0.0-1.0-168.0-0.0","0","0","21384","","null","","","null","18","","","","","","","","","","","","","","","",""
"","ITI","","html-keyboard-response","124","231321","0.0-1.0-171.0","0","0","21384","","null","","","null","18","","","","","","","","","","","","","","","NaN",""
"","S1","","html-keyboard-response","125","231581","0.0-1.0-173.0","0","0","21384","","null","","","null","19","","","","","","","","","","","","","","","",""
"","ISI","","html-keyboard-response","126","232588","0.0-1.0-174.0","0","0","21384","","900","","","75","19","k","","","","","","","","","","","","","","",""
"","S2","","html-keyboard-response","127","232849","0.0-1.0-175.0","0","0","21384","","null","","","null","19","","NaN","","","","","","","","","","","","","",""
"","response","","html-keyboard-response","128","232907","0.0-1.0-176.0-0.0","0","0","21384","","53","","","75","19","","","1","19","training","adjacent","AB","1","2","R.jpg","N.jpg","0","1","0","",""
"","feedback","","html-keyboard-response","129","233916","0.0-1.0-177.0-0.0","0","0","21384","","null","","","null","19","","","","","","","","","","","","","","","",""
"","time_out","","html-keyboard-response","130","235925","0.0-1.0-179.0-0.0","0","0","21384","","null","","","null","19","","","","","","","","","","","","","","","",""
"","ITI","","html-keyboard-response","131","236931","0.0-1.0-180.0","0","0","21384","","322","","","75","19","","","","","","","","","","","","","","","k",""
"","S1","","html-keyboard-response","132","237193","0.0-1.0-182.0","0","0","21384","","null","","","null","20","","","","","","","","","","","","","","","",""
"","ISI","","html-keyboard-response","133","238198","0.0-1.0-183.0","0","0","21384","","557","","","75","20","k","","","","","","","","","","","","","","",""
"","S2","","html-keyboard-response","134","238450","0.0-1.0-184.0","0","0","21384","","247","","","75","20","","k","1","20","training","adjacent","CD","3","4","M.jpg","L.jpg","0","1","0","",""
"","feedback","","html-keyboard-response","135","239461","0.0-1.0-186.0-0.0","0","0","21384","","null","","","null","20","","","","","","","","","","","","","","","",""
"","time_out","","html-keyboard-response","136","241476","0.0-1.0-188.0-0.0","0","0","21384","","null","","","null","20","","","","","","","","","","","","","","","",""
"","ITI","","html-keyboard-response","137","242487","0.0-1.0-189.0","0","0","21384","","null","","","null","20","","","","","","","","","","","","","","","NaN",""
"","S1","","html-keyboard-response","138","242746","0.0-1.0-191.0","0","0","21384","","null","","","null","21","","","","","","","","","","","","","","","",""
"","ISI","","html-keyboard-response","139","243753","0.0-1.0-192.0","0","0","21384","","348","","","75","21","k","","","","","","","","","","","","","","",""
"","S2","","html-keyboard-response","140","244008","0.0-1.0-193.0","0","0","21384","","null","","","null","21","","NaN","","","","","","","","","","","","","",""
"","response","","html-keyboard-response","141","244013","0.0-1.0-194.0-0.0","0","0","21384","","0","","","75","21","","","1","21","training","adjacent","FE","6","5","Q.jpg","P.jpg","0","0","1","",""
"","feedback","","html-keyboard-response","142","245018","0.0-1.0-195.0-0.0","0","0","21384","","null","","","null","21","","","","","","","","","","","","","","","",""
"","ITI","","html-keyboard-response","143","246026","0.0-1.0-198.0","0","0","21384","","null","","","null","21","","","","","","","","","","","","","","","NaN",""
"","S1","","html-keyboard-response","144","246284","0.0-1.0-200.0","0","0","21384","","null","","","null","22","","","","","","","","","","","","","","","",""
"","ISI","","html-keyboard-response","145","247292","0.0-1.0-201.0","0","0","21384","","24","","","75","22","k","","","","","","","","","","","","","","",""
"","S2","","html-keyboard-response","146","247524","0.0-1.0-202.0","0","0","21384","","224","","","75","22","","k","1","22","training","adjacent","ED","5","4","P.jpg","L.jpg","0","0","1","",""
"","feedback","","html-keyboard-response","147","248534","0.0-1.0-204.0-0.0","0","0","21384","","null","","","null","22","","","","","","","","","","","","","","","",""
"","ITI","","html-keyboard-response","148","249543","0.0-1.0-207.0","0","0","21384","","null","","","null","22","","","","","","","","","","","","","","","NaN",""
"","S1","","html-keyboard-response","149","249803","0.0-1.0-209.0","0","0","21384","","null","","","null","23","","","","","","","","","","","","","","","",""
"","ISI","","html-keyboard-response","150","250811","0.0-1.0-210.0","0","0","21384","","null","","","null","23","NaN","","","","","","","","","","","","","","",""
"","S2","","html-keyboard-response","151","251059","0.0-1.0-211.0","0","0","21384","","241","","","75","23","","k","1","23","training","adjacent","FE","6","5","Q.jpg","P.jpg","0","0","1","",""
"","feedback","","html-keyboard-response","152","252079","0.0-1.0-213.0-0.0","0","0","21384","","null","","","null","23","","","","","","","","","","","","","","","",""
"","ITI","","html-keyboard-response","153","253088","0.0-1.0-216.0","0","0","21384","","null","","","null","23","","","","","","","","","","","","","","","NaN",""
"","S1","","html-keyboard-response","154","253347","0.0-1.0-218.0","0","0","21384","","null","","","null","24","","","","","","","","","","","","","","","",""
"","ISI","","html-keyboard-response","155","254354","0.0-1.0-219.0","0","0","21384","","null","","","null","24","NaN","","","","","","","","","","","","","","",""
"","S2","","html-keyboard-response","156","254604","0.0-1.0-220.0","0","0","21384","","242","","","75","24","","k","1","24","training","adjacent","CB","3","2","M.jpg","N.jpg","0","0","1","",""
"","feedback","","html-keyboard-response","157","255614","0.0-1.0-222.0-0.0","0","0","21384","","null","","","null","24","","","","","","","","","","","","","","","",""
"","ITI","","html-keyboard-response","158","256621","0.0-1.0-225.0","0","0","21384","","null","","","null","24","","","","","","","","","","","","","","","NaN",""
"","S1","","html-keyboard-response","159","256881","0.0-1.0-227.0","0","0","21384","","null","","","null","25","","","","","","","","","","","","","","","",""
"","ISI","","html-keyboard-response","160","257889","0.0-1.0-228.0","0","0","21384","","null","","","null","25","NaN","","","","","","","","","","","","","","",""
"","S2","","html-keyboard-response","161","258035","0.0-1.0-229.0","0","0","21384","","138","","","75","25","","k","1","25","training","adjacent","BA","2","1","N.jpg","R.jpg","0","0","1","",""
"","feedback","","html-keyboard-response","162","259043","0.0-1.0-231.0-0.0","0","0","21384","","null","","","null","25","","","","","","","","","","","","","","","",""
"","ITI","","html-keyboard-response","163","260052","0.0-1.0-234.0","0","0","21384","","null","","","null","25","","","","","","","","","","","","","","","NaN",""
"","S1","","html-keyboard-response","164","260311","0.0-1.0-236.0","0","0","21384","","null","","","null","26","","","","","","","","","","","","","","","",""
"","ISI","","html-keyboard-response","165","261320","0.0-1.0-237.0","0","0","21384","","null","","","null","26","NaN","","","","","","","","","","","","","","",""
"","S2","","html-keyboard-response","166","261483","0.0-1.0-238.0","0","0","21384","","155","","","75","26","","k","1","26","training","adjacent","EF","5","6","P.jpg","Q.jpg","0","1","0","",""
"","feedback","","html-keyboard-response","167","262492","0.0-1.0-240.0-0.0","0","0","21384","","null","","","null","26","","","","","","","","","","","","","","","",""
"","time_out","","html-keyboard-response","168","264499","0.0-1.0-242.0-0.0","0","0","21384","","null","","","null","26","","","","","","","","","","","","","","","",""
"","ITI","","html-keyboard-response","169","265509","0.0-1.0-243.0","0","0","21384","","null","","","null","26","","","","","","","","","","","","","","","NaN",""
"","S1","","html-keyboard-response","170","265768","0.0-1.0-245.0","0","0","21384","","null","","","null","27","","","","","","","","","","","","","","","",""
"","ISI","","html-keyboard-response","171","266777","0.0-1.0-246.0","0","0","21384","","null","","","null","27","NaN","","","","","","","","","","","","","","",""
"","S2","","html-keyboard-response","172","267020","0.0-1.0-247.0","0","0","21384","","234","","","75","27","","k","1","27","training","adjacent","FG","6","7","Q.jpg","O.jpg","0","1","0","",""
"","feedback","","html-keyboard-response","173","268030","0.0-1.0-249.0-0.0","0","0","21384","","null","","","null","27","","","","","","","","","","","","","","","",""
"","time_out","","html-keyboard-response","174","270040","0.0-1.0-251.0-0.0","0","0","21384","","null","","","null","27","","","","","","","","","","","","","","","",""
"","ITI","","html-keyboard-response","175","271049","0.0-1.0-252.0","0","0","21384","","null","","","null","27","","","","","","","","","","","","","","","NaN",""
"","S1","","html-keyboard-response","176","271308","0.0-1.0-254.0","0","0","21384","","null","","","null","28","","","","","","","","","","","","","","","",""
"","ISI","","html-keyboard-response","177","272317","0.0-1.0-255.0","0","0","21384","","966","","","68","28","d","","","","","","","","","","","","","","",""
"","S2","","html-keyboard-response","178","272576","0.0-1.0-256.0","0","0","21384","","null","","","null","28","","NaN","","","","","","","","","","","","","",""
"","response","","html-keyboard-response","179","272761","0.0-1.0-257.0-0.0","0","0","21384","","178","","","68","28","","","1","28","training","adjacent","CD","3","4","M.jpg","L.jpg","1","1","1","",""
"","feedback","","html-keyboard-response","180","273772","0.0-1.0-258.0-0.0","0","0","21384","","null","","","null","28","","","","","","","","","","","","","","","",""
"","ITI","","html-keyboard-response","181","274781","0.0-1.0-261.0","0","0","21384","","null","","","null","28","","","","","","","","","","","","","","","NaN",""
"","S1","","html-keyboard-response","182","275039","0.0-1.0-263.0","0","0","21384","","null","","","null","29","","","","","","","","","","","","","","","",""
"","ISI","","html-keyboard-response","183","276049","0.0-1.0-264.0","0","0","21384","","467","","","68","29","d","","","","","","","","","","","","","","",""
"","S2","","html-keyboard-response","184","276309","0.0-1.0-265.0","0","0","21384","","null","","","null","29","","NaN","","","","","","","","","","","","","",""
"","response","","html-keyboard-response","185","276325","0.0-1.0-266.0-0.0","0","0","21384","","9","","","68","29","","","1","29","training","adjacent","CB","3","2","M.jpg","N.jpg","1","0","0","",""
"","feedback","","html-keyboard-response","186","277342","0.0-1.0-267.0-0.0","0","0","21384","","null","","","null","29","","","","","","","","","","","","","","","",""
"","time_out","","html-keyboard-response","187","279359","0.0-1.0-269.0-0.0","0","0","21384","","null","","","null","29","","","","","","","","","","","","","","","",""
"","ITI","","html-keyboard-response","188","280369","0.0-1.0-270.0","0","0","21384","","null","","","null","29","","","","","","","","","","","","","","","NaN",""
"","S1","","html-keyboard-response","189","280628","0.0-1.0-272.0","0","0","21384","","null","","","null","30","","","","","","","","","","","","","","","",""
"","ISI","","html-keyboard-response","190","281637","0.0-1.0-273.0","0","0","21384","","null","","","null","30","NaN","","","","","","","","","","","","","","",""
"","S2","","html-keyboard-response","191","281769","0.0-1.0-274.0","0","0","21384","","124","","","68","30","","d","1","30","training","adjacent","CD","3","4","M.jpg","L.jpg","1","1","1","",""
"","feedback","","html-keyboard-response","192","282813","0.0-1.0-276.0-0.0","0","0","21384","","null","","","null","30","","","","","","","","","","","","","","","",""
"","ITI","","html-keyboard-response","193","283822","0.0-1.0-279.0","0","0","21384","","null","","","null","30","","","","","","","","","","","","","","","NaN",""
"","S1","","html-keyboard-response","194","284082","0.0-1.0-281.0","0","0","21384","","null","","","null","31","","","","","","","","","","","","","","","",""
"","ISI","","html-keyboard-response","195","285091","0.0-1.0-282.0","0","0","21384","","null","","","null","31","NaN","","","","","","","","","","","","","","",""
"","S2","","html-keyboard-response","196","285329","0.0-1.0-283.0","0","0","21384","","228","","","75","31","","k","1","31","training","adjacent","CD","3","4","M.jpg","L.jpg","0","1","0","",""
"","feedback","","html-keyboard-response","197","286339","0.0-1.0-285.0-0.0","0","0","21384","","null","","","null","31","","","","","","","","","","","","","","","",""
"","time_out","","html-keyboard-response","198","288344","0.0-1.0-287.0-0.0","0","0","21384","","null","","","null","31","","","","","","","","","","","","","","","",""
"","ITI","","html-keyboard-response","199","289353","0.0-1.0-288.0","0","0","21384","","null","","","null","31","","","","","","","","","","","","","","","NaN",""
"","S1","","html-keyboard-response","200","289612","0.0-1.0-290.0","0","0","21384","","null","","","null","32","","","","","","","","","","","","","","","",""
"","ISI","","html-keyboard-response","201","290620","0.0-1.0-291.0","0","0","21384","","null","","","null","32","NaN","","","","","","","","","","","","","","",""
"","S2","","html-keyboard-response","202","290863","0.0-1.0-292.0","0","0","21384","","236","","","75","32","","k","1","32","training","adjacent","BC","2","3","N.jpg","M.jpg","0","1","0","",""
"","feedback","","html-keyboard-response","203","291881","0.0-1.0-294.0-0.0","0","0","21384","","null","","","null","32","","","","","","","","","","","","","","","",""
"","time_out","","html-keyboard-response","204","293893","0.0-1.0-296.0-0.0","0","0","21384","","null","","","null","32","","","","","","","","","","","","","","","",""
"","ITI","","html-keyboard-response","205","294901","0.0-1.0-297.0","0","0","21384","","null","","","null","32","","","","","","","","","","","","","","","NaN",""
"","S1","","html-keyboard-response","206","295161","0.0-1.0-299.0","0","0","21384","","null","","","null","33","","","","","","","","","","","","","","","",""
"","ISI","","html-keyboard-response","207","296171","0.0-1.0-300.0","0","0","21384","","27","","","68","33","d","","","","","","","","","","","","","","",""
"","S2","","html-keyboard-response","208","296382","0.0-1.0-301.0","0","0","21384","","203","","","68","33","","d","1","33","training","adjacent","BA","2","1","N.jpg","R.jpg","1","0","0","",""
"","feedback","","html-keyboard-response","209","297392","0.0-1.0-303.0-0.0","0","0","21384","","null","","","null","33","","","","","","","","","","","","","","","",""
"","time_out","","html-keyboard-response","210","299400","0.0-1.0-305.0-0.0","0","0","21384","","null","","","null","33","","","","","","","","","","","","","","","",""
"","ITI","","html-keyboard-response","211","300408","0.0-1.0-306.0","0","0","21384","","319","","","68","33","","","","","","","","","","","","","","","d",""
"","S1","","html-keyboard-response","212","300668","0.0-1.0-308.0","0","0","21384","","null","","","null","34","","","","","","","","","","","","","","","",""
"","ISI","","html-keyboard-response","213","301675","0.0-1.0-309.0","0","0","21384","","0","","","68","34","d","","","","","","","","","","","","","","",""
"","S2","","html-keyboard-response","214","301845","0.0-1.0-310.0","0","0","21384","","162","","","68","34","","d","1","34","training","adjacent","FE","6","5","Q.jpg","P.jpg","1","0","0","",""
"","feedback","","html-keyboard-response","215","302854","0.0-1.0-312.0-0.0","0","0","21384","","null","","","null","34","","","","","","","","","","","","","","","",""
"","time_out","","html-keyboard-response","216","304860","0.0-1.0-314.0-0.0","0","0","21384","","null","","","null","34","","","","","","","","","","","","","","","",""
"","ITI","","html-keyboard-response","217","305870","0.0-1.0-315.0","0","0","21384","","155","","","75","34","","","","","","","","","","","","","","","k",""
"","S1","","html-keyboard-response","218","306130","0.0-1.0-317.0","0","0","21384","","null","","","null","35","","","","","","","","","","","","","","","",""
"","ISI","","html-keyboard-response","219","307141","0.0-1.0-318.0","0","0","21384","","556","","","75","35","k","","","","","","","","","","","","","","",""
"","S2","","html-keyboard-response","220","307399","0.0-1.0-319.0","0","0","21384","","null","","","null","35","","NaN","","","","","","","","","","","","","",""
"","response","","html-keyboard-response","221","307482","0.0-1.0-320.0-0.0","0","0","21384","","78","","","75","35","","","1","35","training","adjacent","BC","2","3","N.jpg","M.jpg","0","1","0","",""
"","feedback","","html-keyboard-response","222","308490","0.0-1.0-321.0-0.0","0","0","21384","","null","","","null","35","","","","","","","","","","","","","","","",""
"","time_out","","html-keyboard-response","223","310501","0.0-1.0-323.0-0.0","0","0","21384","","null","","","null","35","","","","","","","","","","","","","","","",""
"","ITI","","html-keyboard-response","224","311511","0.0-1.0-324.0","0","0","21384","","null","","","null","35","","","","","","","","","","","","","","","NaN",""
"","S1","","html-keyboard-response","225","311770","0.0-1.0-326.0","0","0","21384","","null","","","null","36","","","","","","","","","","","","","","","",""
"","ISI","","html-keyboard-response","226","312780","0.0-1.0-327.0","0","0","21384","","null","","","null","36","NaN","","","","","","","","","","","","","","",""
"","S2","","html-keyboard-response","227","312833","0.0-1.0-328.0","0","0","21384","","47","","","75","36","","k","1","36","training","adjacent","BC","2","3","N.jpg","M.jpg","0","1","0","",""
"","feedback","","html-keyboard-response","228","313841","0.0-1.0-330.0-0.0","0","0","21384","","null","","","null","36","","","","","","","","","","","","","","","",""
"","time_out","","html-keyboard-response","229","315847","0.0-1.0-332.0-0.0","0","0","21384","","null","","","null","36","","","","","","","","","","","","","","","",""
"","ITI","","html-keyboard-response","230","316856","0.0-1.0-333.0","0","0","21384","","53","","","75","36","","","","","","","","","","","","","","","k",""
"","S1","","html-keyboard-response","231","317113","0.0-1.0-335.0","0","0","21384","","null","","","null","37","","","","","","","","","","","","","","","",""
"","ISI","","html-keyboard-response","232","318119","0.0-1.0-336.0","0","0","21384","","null","","","null","37","NaN","","","","","","","","","","","","","","",""
"","S2","","html-keyboard-response","233","318373","0.0-1.0-337.0","0","0","21384","","245","","","75","37","","k","1","37","training","adjacent","CB","3","2","M.jpg","N.jpg","0","0","1","",""
"","feedback","","html-keyboard-response","234","319384","0.0-1.0-339.0-0.0","0","0","21384","","null","","","null","37","","","","","","","","","","","","","","","",""
"","ITI","","html-keyboard-response","235","320396","0.0-1.0-342.0","0","0","21384","","null","","","null","37","","","","","","","","","","","","","","","NaN",""
"","S1","","html-keyboard-response","236","320656","0.0-1.0-344.0","0","0","21384","","null","","","null","38","","","","","","","","","","","","","","","",""
"","ISI","","html-keyboard-response","237","321664","0.0-1.0-345.0","0","0","21384","","null","","","null","38","NaN","","","","","","","","","","","","","","",""
"","S2","","html-keyboard-response","238","321923","0.0-1.0-346.0","0","0","21384","","250","","","75","38","","k","1","38","training","adjacent","GF","7","6","O.jpg","Q.jpg","0","0","1","",""
"","feedback","","html-keyboard-response","239","322931","0.0-1.0-348.0-0.0","0","0","21384","","null","","","null","38","","","","","","","","","","","","","","","",""
"","ITI","","html-keyboard-response","240","323942","0.0-1.0-351.0","0","0","21384","","null","","","null","38","","","","","","","","","","","","","","","NaN",""
"","S1","","html-keyboard-response","241","324201","0.0-1.0-353.0","0","0","21384","","null","","","null","39","","","","","","","","","","","","","","","",""
"","ISI","","html-keyboard-response","242","325210","0.0-1.0-354.0","0","0","21384","","898","","","75","39","k","","","","","","","","","","","","","","",""
"","S2","","html-keyboard-response","243","325471","0.0-1.0-355.0","0","0","21384","","null","","","null","39","","NaN","","","","","","","","","","","","","",""
"","response","","html-keyboard-response","244","325521","0.0-1.0-356.0-0.0","0","0","21384","","44","","","75","39","","","1","39","training","adjacent","FG","6","7","Q.jpg","O.jpg","0","1","0","",""
"","feedback","","html-keyboard-response","245","326531","0.0-1.0-357.0-0.0","0","0","21384","","null","","","null","39","","","","","","","","","","","","","","","",""
"","time_out","","html-keyboard-response","246","328538","0.0-1.0-359.0-0.0","0","0","21384","","null","","","null","39","","","","","","","","","","","","","","","",""
"","ITI","","html-keyboard-response","247","329544","0.0-1.0-360.0","0","0","21384","","null","","","null","39","","","","","","","","","","","","","","","NaN",""
"","S1","","html-keyboard-response","248","329800","0.0-1.0-362.0","0","0","21384","","null","","","null","40","","","","","","","","","","","","","","","",""
"","ISI","","html-keyboard-response","249","330806","0.0-1.0-363.0","0","0","21384","","18","","","68","40","d","","","","","","","","","","","","","","",""
"","S2","","html-keyboard-response","250","331055","0.0-1.0-364.0","0","0","21384","","243","","","68","40","","d","1","40","training","adjacent","BC","2","3","N.jpg","M.jpg","1","1","1","",""
"","feedback","","html-keyboard-response","251","332065","0.0-1.0-366.0-0.0","0","0","21384","","null","","","null","40","","","","","","","","","","","","","","","",""
"","ITI","","html-keyboard-response","252","333073","0.0-1.0-369.0","0","0","21384","","null","","","null","40","","","","","","","","","","","","","","","NaN",""
"","S1","","html-keyboard-response","253","333332","0.0-1.0-371.0","0","0","21384","","null","","","null","41","","","","","","","","","","","","","","","",""
"","ISI","","html-keyboard-response","254","334339","0.0-1.0-372.0","0","0","21384","","null","","","null","41","NaN","","","","","","","","","","","","","","",""
"","S2","","html-keyboard-response","255","334582","0.0-1.0-373.0","0","0","21384","","238","","","75","41","","k","1","41","training","adjacent","AB","1","2","R.jpg","N.jpg","0","1","0","",""
"","feedback","","html-keyboard-response","256","335607","0.0-1.0-375.0-0.0","0","0","21384","","null","","","null","41","","","","","","","","","","","","","","","",""
"","time_out","","html-keyboard-response","257","337647","0.0-1.0-377.0-0.0","0","0","21384","","null","","","null","41","","","","","","","","","","","","","","","",""
"","ITI","","html-keyboard-response","258","338689","0.0-1.0-378.0","0","0","21384","","null","","","null","41","","","","","","","","","","","","","","","NaN",""
"","S1","","html-keyboard-response","259","338985","0.0-1.0-380.0","0","0","21384","","null","","","null","42","","","","","","","","","","","","","","","",""
"","ISI","","html-keyboard-response","260","339992","0.0-1.0-381.0","0","0","21384","","null","","","null","42","NaN","","","","","","","","","","","","","","",""
"","S2","","html-keyboard-response","261","340248","0.0-1.0-382.0","0","0","21384","","null","","","null","42","","NaN","","","","","","","","","","","","","",""
"","response","","html-keyboard-response","262","340557","0.0-1.0-383.0-0.0","0","0","21384","","305","","","75","42","","","1","42","training","adjacent","AB","1","2","R.jpg","N.jpg","0","1","0","",""
"","feedback","","html-keyboard-response","263","341563","0.0-1.0-384.0-0.0","0","0","21384","","null","","","null","42","","","","","","","","","","","","","","","",""
"","time_out","","html-keyboard-response","264","343573","0.0-1.0-386.0-0.0","0","0","21384","","null","","","null","42","","","","","","","","","","","","","","","",""
"","ITI","","html-keyboard-response","265","344581","0.0-1.0-387.0","0","0","21384","","null","","","null","42","","","","","","","","","","","","","","","NaN",""
"","S1","","html-keyboard-response","266","344841","0.0-1.0-389.0","0","0","21384","","null","","","null","43","","","","","","","","","","","","","","","",""
"","ISI","","html-keyboard-response","267","345848","0.0-1.0-390.0","0","0","21384","","null","","","null","43","NaN","","","","","","","","","","","","","","",""
"","S2","","html-keyboard-response","268","346109","0.0-1.0-391.0","0","0","21384","","null","","","null","43","","NaN","","","","","","","","","","","","","",""
"","response","","html-keyboard-response","269","346599","0.0-1.0-392.0-0.0","0","0","21384","","484","","","68","43","","","1","43","training","adjacent","GF","7","6","O.jpg","Q.jpg","1","0","0","",""
"","feedback","","html-keyboard-response","270","347607","0.0-1.0-393.0-0.0","0","0","21384","","null","","","null","43","","","","","","","","","","","","","","","",""
"","time_out","","html-keyboard-response","271","349617","0.0-1.0-395.0-0.0","0","0","21384","","null","","","null","43","","","","","","","","","","","","","","","",""
"","ITI","","html-keyboard-response","272","350628","0.0-1.0-396.0","0","0","21384","","null","","","null","43","","","","","","","","","","","","","","","NaN",""
"","S1","","html-keyboard-response","273","350886","0.0-1.0-398.0","0","0","21384","","null","","","null","44","","","","","","","","","","","","","","","",""
"","ISI","","html-keyboard-response","274","351895","0.0-1.0-399.0","0","0","21384","","33","","","75","44","k","","","","","","","","","","","","","","",""
"","S2","","html-keyboard-response","275","352155","0.0-1.0-400.0","0","0","21384","","null","","","null","44","","NaN","","","","","","","","","","","","","",""
"","response","","html-keyboard-response","276","352475","0.0-1.0-401.0-0.0","0","0","21384","","315","","","75","44","","","1","44","training","adjacent","FG","6","7","Q.jpg","O.jpg","0","1","0","",""
"","feedback","","html-keyboard-response","277","353484","0.0-1.0-402.0-0.0","0","0","21384","","null","","","null","44","","","","","","","","","","","","","","","",""
"","time_out","","html-keyboard-response","278","355504","0.0-1.0-404.0-0.0","0","0","21384","","null","","","null","44","","","","","","","","","","","","","","","",""
"","ITI","","html-keyboard-response","279","356511","0.0-1.0-405.0","0","0","21384","","937","","","75","44","","","","","","","","","","","","","","","k",""
"","S1","","html-keyboard-response","280","356770","0.0-1.0-407.0","0","0","21384","","null","","","null","45","","","","","","","","","","","","","","","",""
"","ISI","","html-keyboard-response","281","357777","0.0-1.0-408.0","0","0","21384","","1","","","75","45","k","","","","","","","","","","","","","","",""
"","S2","","html-keyboard-response","282","358035","0.0-1.0-409.0","0","0","21384","","null","","","null","45","","NaN","","","","","","","","","","","","","",""
"","response","","html-keyboard-response","283","358058","0.0-1.0-410.0-0.0","0","0","21384","","14","","","75","45","","","1","45","training","adjacent","CB","3","2","M.jpg","N.jpg","0","0","1","",""
"","feedback","","html-keyboard-response","284","359067","0.0-1.0-411.0-0.0","0","0","21384","","null","","","null","45","","","","","","","","","","","","","","","",""
"","ITI","","html-keyboard-response","285","360077","0.0-1.0-414.0","0","0","21384","","947","","","75","45","","","","","","","","","","","","","","","k",""
"","S1","","html-keyboard-response","286","360336","0.0-1.0-416.0","0","0","21384","","null","","","null","46","","","","","","","","","","","","","","","",""
"","ISI","","html-keyboard-response","287","361346","0.0-1.0-417.0","0","0","21384","","214","","","75","46","k","","","","","","","","","","","","","","",""
"","S2","","html-keyboard-response","288","361607","0.0-1.0-418.0","0","0","21384","","null","","","null","46","","NaN","","","","","","","","","","","","","",""
"","response","","html-keyboard-response","289","361669","0.0-1.0-419.0-0.0","0","0","21384","","54","","","75","46","","","1","46","training","adjacent","GF","7","6","O.jpg","Q.jpg","0","0","1","",""
"","feedback","","html-keyboard-response","290","362679","0.0-1.0-420.0-0.0","0","0","21384","","null","","","null","46","","","","","","","","","","","","","","","",""
"","ITI","","html-keyboard-response","291","363688","0.0-1.0-423.0","0","0","21384","","null","","","null","46","","","","","","","","","","","","","","","NaN",""
"","S1","","html-keyboard-response","292","363946","0.0-1.0-425.0","0","0","21384","","null","","","null","47","","","","","","","","","","","","","","","",""
"","ISI","","html-keyboard-response","293","364954","0.0-1.0-426.0","0","0","21384","","0","","","75","47","k","","","","","","","","","","","","","","",""
"","S2","","html-keyboard-response","294","365214","0.0-1.0-427.0","0","0","21384","","null","","","null","47","","NaN","","","","","","","","","","","","","",""
"","response","","html-keyboard-response","295","365230","0.0-1.0-428.0-0.0","0","0","21384","","9","","","75","47","","","1","47","training","adjacent","BA","2","1","N.jpg","R.jpg","0","0","1","",""
"","feedback","","html-keyboard-response","296","366240","0.0-1.0-429.0-0.0","0","0","21384","","null","","","null","47","","","","","","","","","","","","","","","",""
"","ITI","","html-keyboard-response","297","367247","0.0-1.0-432.0","0","0","21384","","null","","","null","47","","","","","","","","","","","","","","","NaN",""
"","block_over","","html-keyboard-response","298","372053","0.0-1.0-433.0-0.0","0","0","21384","","4797","","","32","47","","","","","","","","","","","","","","","",""
"","S1","","html-keyboard-response","299","372310","0.0-1.0-434.0","0","0","21384","","null","","","null","48","","","","","","","","","","","","","","","",""
"","ISI","","html-keyboard-response","300","373320","0.0-1.0-435.0","0","0","21384","","247","","","75","48","k","","","","","","","","","","","","","","",""
"","S2","","html-keyboard-response","301","373549","0.0-1.0-436.0","0","0","21384","","219","","","75","48","","k","2","48","training","adjacent","CB","3","2","M.jpg","N.jpg","0","0","1","",""
"","feedback","","html-keyboard-response","302","374560","0.0-1.0-438.0-0.0","0","0","21384","","null","","","null","48","","","","","","","","","","","","","","","",""
"","ITI","","html-keyboard-response","303","375570","0.0-1.0-441.0","0","0","21384","","454","","","75","48","","","","","","","","","","","","","","","k",""
"","S1","","html-keyboard-response","304","375828","0.0-1.0-443.0","0","0","21384","","null","","","null","49","","","","","","","","","","","","","","","",""
"","ISI","","html-keyboard-response","305","376834","0.0-1.0-444.0","0","0","21384","","895","","","75","49","k","","","","","","","","","","","","","","",""
"","S2","","html-keyboard-response","306","377093","0.0-1.0-445.0","0","0","21384","","null","","","null","49","","NaN","","","","","","","","","","","","","",""
"","response","","html-keyboard-response","307","377176","0.0-1.0-446.0-0.0","0","0","21384","","77","","","75","49","","","2","49","training","adjacent","AB","1","2","R.jpg","N.jpg","0","1","0","",""
"","feedback","","html-keyboard-response","308","378184","0.0-1.0-447.0-0.0","0","0","21384","","null","","","null","49","","","","","","","","","","","","","","","",""
"","time_out","","html-keyboard-response","309","380194","0.0-1.0-449.0-0.0","0","0","21384","","null","","","null","49","","","","","","","","","","","","","","","",""
"","ITI","","html-keyboard-response","310","381204","0.0-1.0-450.0","0","0","21384","","null","","","null","49","","","","","","","","","","","","","","","NaN",""
"","S1","","html-keyboard-response","311","381462","0.0-1.0-452.0","0","0","21384","","null","","","null","50","","","","","","","","","","","","","","","",""
"","ISI","","html-keyboard-response","312","382471","0.0-1.0-453.0","0","0","21384","","69","","","68","50","d","","","","","","","","","","","","","","",""
"","S2","","html-keyboard-response","313","382741","0.0-1.0-454.0","0","0","21384","","null","","","null","50","","NaN","","","","","","","","","","","","","",""
"","response","","html-keyboard-response","314","382986","0.0-1.0-455.0-0.0","0","0","21384","","237","","","75","50","","","2","50","training","adjacent","FG","6","7","Q.jpg","O.jpg","0","1","0","",""
"","feedback","","html-keyboard-response","315","383995","0.0-1.0-456.0-0.0","0","0","21384","","null","","","null","50","","","","","","","","","","","","","","","",""
"","time_out","","html-keyboard-response","316","386004","0.0-1.0-458.0-0.0","0","0","21384","","null","","","null","50","","","","","","","","","","","","","","","",""
"","ITI","","html-keyboard-response","317","387012","0.0-1.0-459.0","0","0","21384","","694","","","68","50","","","","","","","","","","","","","","","d",""
"","S1","","html-keyboard-response","318","387271","0.0-1.0-461.0","0","0","21384","","null","","","null","51","","","","","","","","","","","","","","","",""
"","ISI","","html-keyboard-response","319","388281","0.0-1.0-462.0","0","0","21384","","22","","","68","51","d","","","","","","","","","","","","","","",""
"","S2","","html-keyboard-response","320","388531","0.0-1.0-463.0","0","0","21384","","241","","","75","51","","k","2","51","training","adjacent","CB","3","2","M.jpg","N.jpg","0","0","1","",""
"","feedback","","html-keyboard-response","321","389555","0.0-1.0-465.0-0.0","0","0","21384","","null","","","null","51","","","","","","","","","","","","","","","",""
"","ITI","","html-keyboard-response","322","390566","0.0-1.0-468.0","0","0","21384","","null","","","null","51","","","","","","","","","","","","","","","NaN",""
"","S1","","html-keyboard-response","323","390826","0.0-1.0-470.0","0","0","21384","","null","","","null","52","","","","","","","","","","","","","","","",""
"","ISI","","html-keyboard-response","324","391834","0.0-1.0-471.0","0","0","21384","","49","","","68","52","d","","","","","","","","","","","","","","",""
"","S2","","html-keyboard-response","325","392094","0.0-1.0-472.0","0","0","21384","","null","","","null","52","","NaN","","","","","","","","","","","","","",""
"","response","","html-keyboard-response","326","392131","0.0-1.0-473.0-0.0","0","0","21384","","31","","","75","52","","","2","52","training","adjacent","CB","3","2","M.jpg","N.jpg","0","0","1","",""
"","feedback","","html-keyboard-response","327","393142","0.0-1.0-474.0-0.0","0","0","21384","","null","","","null","52","","","","","","","","","","","","","","","",""
"","ITI","","html-keyboard-response","328","394153","0.0-1.0-477.0","0","0","21384","","null","","","null","52","","","","","","","","","","","","","","","NaN",""
"","S1","","html-keyboard-response","329","394414","0.0-1.0-479.0","0","0","21384","","null","","","null","53","","","","","","","","","","","","","","","",""
"","ISI","","html-keyboard-response","330","395424","0.0-1.0-480.0","0","0","21384","","2","","","75","53","k","","","","","","","","","","","","","","",""
"","S2","","html-keyboard-response","331","395673","0.0-1.0-481.0","0","0","21384","","240","","","68","53","","d","2","53","training","adjacent","FG","6","7","Q.jpg","O.jpg","1","1","1","",""
"","feedback","","html-keyboard-response","332","396684","0.0-1.0-483.0-0.0","0","0","21384","","null","","","null","53","","","","","","","","","","","","","","","",""
"","ITI","","html-keyboard-response","333","397695","0.0-1.0-486.0","0","0","21384","","566","","","68","53","","","","","","","","","","","","","","","d",""
"","S1","","html-keyboard-response","334","397954","0.0-1.0-488.0","0","0","21384","","null","","","null","54","","","","","","","","","","","","","","","",""
"","ISI","","html-keyboard-response","335","398964","0.0-1.0-489.0","0","0","21384","","7","","","68","54","d","","","","","","","","","","","","","","",""
"","S2","","html-keyboard-response","336","398976","0.0-1.0-490.0","0","0","21384","","5","","","75","54","","k","2","54","training","adjacent","BA","2","1","N.jpg","R.jpg","0","0","1","",""
"","feedback","","html-keyboard-response","337","399986","0.0-1.0-492.0-0.0","0","0","21384","","null","","","null","54","","","","","","","","","","","","","","","",""
"","ITI","","html-keyboard-response","338","401004","0.0-1.0-495.0","0","0","21384","","527","","","68","54","","","","","","","","","","","","","","","d",""
"","S1","","html-keyboard-response","339","401262","0.0-1.0-497.0","0","0","21384","","null","","","null","55","","","","","","","","","","","","","","","",""
"","ISI","","html-keyboard-response","340","402271","0.0-1.0-498.0","0","0","21384","","84","","","68","55","d","","","","","","","","","","","","","","",""
"","S2","","html-keyboard-response","341","402530","0.0-1.0-499.0","0","0","21384","","null","","","null","55","","NaN","","","","","","","","","","","","","",""
"","response","","html-keyboard-response","342","402567","0.0-1.0-500.0-0.0","0","0","21384","","30","","","75","55","","","2","55","training","adjacent","FG","6","7","Q.jpg","O.jpg","0","1","0","",""
"","feedback","","html-keyboard-response","343","403579","0.0-1.0-501.0-0.0","0","0","21384","","null","","","null","55","","","","","","","","","","","","","","","",""
"","time_out","","html-keyboard-response","344","405590","0.0-1.0-503.0-0.0","0","0","21384","","null","","","null","55","","","","","","","","","","","","","","","",""
"","ITI","","html-keyboard-response","345","406601","0.0-1.0-504.0","0","0","21384","","null","","","null","55","","","","","","","","","","","","","","","NaN",""
"","S1","","html-keyboard-response","346","406858","0.0-1.0-506.0","0","0","21384","","null","","","null","56","","","","","","","","","","","","","","","",""
"","ISI","","html-keyboard-response","347","407866","0.0-1.0-507.0","0","0","21384","","29","","","75","56","k","","","","","","","","","","","","","","",""
"","S2","","html-keyboard-response","348","408126","0.0-1.0-508.0","0","0","21384","","null","","","null","56","","NaN","","","","","","","","","","","","","",""
"","response","","html-keyboard-response","349","408221","0.0-1.0-509.0-0.0","0","0","21384","","89","","","68","56","","","2","56","training","adjacent","BC","2","3","N.jpg","M.jpg","1","1","1","",""
"","feedback","","html-keyboard-response","350","409230","0.0-1.0-510.0-0.0","0","0","21384","","null","","","null","56","","","","","","","","","","","","","","","",""
"","ITI","","html-keyboard-response","351","410240","0.0-1.0-513.0","0","0","21384","","650","","","75","56","","","","","","","","","","","","","","","k",""
"","S1","","html-keyboard-response","352","410498","0.0-1.0-515.0","0","0","21384","","null","","","null","57","","","","","","","","","","","","","","","",""
"","ISI","","html-keyboard-response","353","411518","0.0-1.0-516.0","0","0","21384","","62","","","68","57","d","","","","","","","","","","","","","","",""
"","S2","","html-keyboard-response","354","411755","0.0-1.0-517.0","0","0","21384","","232","","","68","57","","d","2","57","training","adjacent","DE","4","5","L.jpg","P.jpg","1","1","1","",""
"","feedback","","html-keyboard-response","355","412765","0.0-1.0-519.0-0.0","0","0","21384","","null","","","null","57","","","","","","","","","","","","","","","",""
"","ITI","","html-keyboard-response","356","413777","0.0-1.0-522.0","0","0","21384","","530","","","75","57","","","","","","","","","","","","","","","k",""
"","S1","","html-keyboard-response","357","414038","0.0-1.0-524.0","0","0","21384","","null","","","null","58","","","","","","","","","","","","","","","",""
"","ISI","","html-keyboard-response","358","415047","0.0-1.0-525.0","0","0","21384","","1","","","68","58","d","","","","","","","","","","","","","","",""
"","S2","","html-keyboard-response","359","415305","0.0-1.0-526.0","0","0","21384","","null","","","null","58","","NaN","","","","","","","","","","","","","",""
"","response","","html-keyboard-response","360","415323","0.0-1.0-527.0-0.0","0","0","21384","","14","","","75","58","","","2","58","training","adjacent","GF","7","6","O.jpg","Q.jpg","0","0","1","",""
"","feedback","","html-keyboard-response","361","416333","0.0-1.0-528.0-0.0","0","0","21384","","null","","","null","58","","","","","","","","","","","","","","","",""
"","ITI","","html-keyboard-response","362","417341","0.0-1.0-531.0","0","0","21384","","610","","","75","58","","","","","","","","","","","","","","","k",""
"","S1","","html-keyboard-response","363","417599","0.0-1.0-533.0","0","0","21384","","null","","","null","59","","","","","","","","","","","","","","","",""
"","ISI","","html-keyboard-response","364","418607","0.0-1.0-534.0","0","0","21384","","32","","","68","59","d","","","","","","","","","","","","","","",""
"","S2","","html-keyboard-response","365","418854","0.0-1.0-535.0","0","0","21384","","239","","","75","59","","k","2","59","training","adjacent","FE","6","5","Q.jpg","P.jpg","0","0","1","",""
"","feedback","","html-keyboard-response","366","419866","0.0-1.0-537.0-0.0","0","0","21384","","null","","","null","59","","","","","","","","","","","","","","","",""
"","ITI","","html-keyboard-response","367","420875","0.0-1.0-540.0","0","0","21384","","508","","","68","59","","","","","","","","","","","","","","","d",""
"","S1","","html-keyboard-response","368","421134","0.0-1.0-542.0","0","0","21384","","null","","","null","60","","","","","","","","","","","","","","","",""
"","ISI","","html-keyboard-response","369","422144","0.0-1.0-543.0","0","0","21384","","136","","","75","60","k","","","","","","","","","","","","","","",""
"","S2","","html-keyboard-response","370","422402","0.0-1.0-544.0","0","0","21384","","null","","","null","60","","NaN","","","","","","","","","","","","","",""
"","response","","html-keyboard-response","371","422460","0.0-1.0-545.0-0.0","0","0","21384","","52","","","75","60","","","2","60","training","adjacent","ED","5","4","P.jpg","L.jpg","0","0","1","",""
"","feedback","","html-keyboard-response","372","423472","0.0-1.0-546.0-0.0","0","0","21384","","null","","","null","60","","","","","","","","","","","","","","","",""
"","ITI","","html-keyboard-response","373","424481","0.0-1.0-549.0","0","0","21384","","438","","","75","60","","","","","","","","","","","","","","","k",""
"","S1","","html-keyboard-response","374","424741","0.0-1.0-551.0","0","0","21384","","null","","","null","61","","","","","","","","","","","","","","","",""
"","ISI","","html-keyboard-response","375","425750","0.0-1.0-552.0","0","0","21384","","106","","","75","61","k","","","","","","","","","","","","","","",""
"","S2","","html-keyboard-response","376","425897","0.0-1.0-553.0","0","0","21384","","142","","","75","61","","k","2","61","training","adjacent","EF","5","6","P.jpg","Q.jpg","0","1","0","",""
"","feedback","","html-keyboard-response","377","426905","0.0-1.0-555.0-0.0","0","0","21384","","null","","","null","61","","","","","","","","","","","","","","","",""
"","time_out","","html-keyboard-response","378","428915","0.0-1.0-557.0-0.0","0","0","21384","","null","","","null","61","","","","","","","","","","","","","","","",""
"","ITI","","html-keyboard-response","379","429925","0.0-1.0-558.0","0","0","21384","","681","","","68","61","","","","","","","","","","","","","","","d",""
"","S1","","html-keyboard-response","380","430197","0.0-1.0-560.0","0","0","21384","","null","","","null","62","","","","","","","","","","","","","","","",""
"","ISI","","html-keyboard-response","381","431206","0.0-1.0-561.0","0","0","21384","","48","","","75","62","k","","","","","","","","","","","","","","",""
"","S2","","html-keyboard-response","382","431281","0.0-1.0-562.0","0","0","21384","","69","","","68","62","","d","2","62","training","adjacent","CB","3","2","M.jpg","N.jpg","1","0","0","",""
"","feedback","","html-keyboard-response","383","432291","0.0-1.0-564.0-0.0","0","0","21384","","null","","","null","62","","","","","","","","","","","","","","","",""
"","time_out","","html-keyboard-response","384","434301","0.0-1.0-566.0-0.0","0","0","21384","","null","","","null","62","","","","","","","","","","","","","","","",""
"","ITI","","html-keyboard-response","385","435312","0.0-1.0-567.0","0","0","21384","","17","","","68","62","","","","","","","","","","","","","","","d",""
"","S1","","html-keyboard-response","386","435571","0.0-1.0-569.0","0","0","21384","","null","","","null","63","","","","","","","","","","","","","","","",""
"","ISI","","html-keyboard-response","387","436580","0.0-1.0-570.0","0","0","21384","","73","","","68","63","d","","","","","","","","","","","","","","",""
"","S2","","html-keyboard-response","388","436840","0.0-1.0-571.0","0","0","21384","","null","","","null","63","","NaN","","","","","","","","","","","","","",""
"","response","","html-keyboard-response","389","436860","0.0-1.0-572.0-0.0","0","0","21384","","12","","","68","63","","","2","63","training","adjacent","ED","5","4","P.jpg","L.jpg","1","0","0","",""
"","feedback","","html-keyboard-response","390","437869","0.0-1.0-573.0-0.0","0","0","21384","","null","","","null","63","","","","","","","","","","","","","","","",""
"","time_out","","html-keyboard-response","391","439878","0.0-1.0-575.0-0.0","0","0","21384","","null","","","null","63","","","","","","","","","","","","","","","",""
"","ITI","","html-keyboard-response","392","440886","0.0-1.0-576.0","0","0","21384","","502","","","75","63","","","","","","","","","","","","","","","k",""
"","S1","","html-keyboard-response","393","441145","0.0-1.0-578.0","0","0","21384","","null","","","null","64","","","","","","","","","","","","","","","",""
"","ISI","","html-keyboard-response","394","442154","0.0-1.0-579.0","0","0","21384","","2","","","75","64","k","","","","","","","","","","","","","","",""
"","S2","","html-keyboard-response","395","442413","0.0-1.0-580.0","0","0","21384","","null","","","null","64","","NaN","","","","","","","","","","","","","",""
"","response","","html-keyboard-response","396","442441","0.0-1.0-581.0-0.0","0","0","21384","","22","","","75","64","","","2","64","training","adjacent","FE","6","5","Q.jpg","P.jpg","0","0","1","",""
"","feedback","","html-keyboard-response","397","443451","0.0-1.0-582.0-0.0","0","0","21384","","null","","","null","64","","","","","","","","","","","","","","","",""
"","ITI","","html-keyboard-response","398","444461","0.0-1.0-585.0","0","0","21384","","255","","","75","64","","","","","","","","","","","","","","","k",""
"","S1","","html-keyboard-response","399","444721","0.0-1.0-587.0","0","0","21384","","null","","","null","65","","","","","","","","","","","","","","","",""
"","ISI","","html-keyboard-response","400","445731","0.0-1.0-588.0","0","0","21384","","65","","","68","65","d","","","","","","","","","","","","","","",""
"","S2","","html-keyboard-response","401","445842","0.0-1.0-589.0","0","0","21384","","102","","","75","65","","k","2","65","training","adjacent","BA","2","1","N.jpg","R.jpg","0","0","1","",""
"","feedback","","html-keyboard-response","402","446860","0.0-1.0-591.0-0.0","0","0","21384","","null","","","null","65","","","","","","","","","","","","","","","",""
"","ITI","","html-keyboard-response","403","447870","0.0-1.0-594.0","0","0","21384","","60","","","68","65","","","","","","","","","","","","","","","d",""
"","S1","","html-keyboard-response","404","448126","0.0-1.0-596.0","0","0","21384","","null","","","null","66","","","","","","","","","","","","","","","",""
"","ISI","","html-keyboard-response","405","449135","0.0-1.0-597.0","0","0","21384","","76","","","75","66","k","","","","","","","","","","","","","","",""
"","S2","","html-keyboard-response","406","449395","0.0-1.0-598.0","0","0","21384","","null","","","null","66","","NaN","","","","","","","","","","","","","",""
"","response","","html-keyboard-response","407","449417","0.0-1.0-599.0-0.0","0","0","21384","","14","","","68","66","","","2","66","training","adjacent","AB","1","2","R.jpg","N.jpg","1","1","1","",""
"","feedback","","html-keyboard-response","408","450425","0.0-1.0-600.0-0.0","0","0","21384","","null","","","null","66","","","","","","","","","","","","","","","",""
"","ITI","","html-keyboard-response","409","451432","0.0-1.0-603.0","0","0","21384","","427","","","68","66","","","","","","","","","","","","","","","d",""
"","S1","","html-keyboard-response","410","451690","0.0-1.0-605.0","0","0","21384","","null","","","null","67","","","","","","","","","","","","","","","",""
"","ISI","","html-keyboard-response","411","452698","0.0-1.0-606.0","0","0","21384","","62","","","75","67","k","","","","","","","","","","","","","","",""
"","S2","","html-keyboard-response","412","452777","0.0-1.0-607.0","0","0","21384","","71","","","75","67","","k","2","67","training","adjacent","DE","4","5","L.jpg","P.jpg","0","1","0","",""
"","feedback","","html-keyboard-response","413","453787","0.0-1.0-609.0-0.0","0","0","21384","","null","","","null","67","","","","","","","","","","","","","","","",""
"","time_out","","html-keyboard-response","414","455795","0.0-1.0-611.0-0.0","0","0","21384","","null","","","null","67","","","","","","","","","","","","","","","",""
"","ITI","","html-keyboard-response","415","456803","0.0-1.0-612.0","0","0","21384","","37","","","75","67","","","","","","","","","","","","","","","k",""
"","S1","","html-keyboard-response","416","457063","0.0-1.0-614.0","0","0","21384","","null","","","null","68","","","","","","","","","","","","","","","",""
"","ISI","","html-keyboard-response","417","458070","0.0-1.0-615.0","0","0","21384","","33","","","75","68","k","","","","","","","","","","","","","","",""
"","S2","","html-keyboard-response","418","458326","0.0-1.0-616.0","0","0","21384","","251","","","68","68","","d","2","68","training","adjacent","DC","4","3","L.jpg","M.jpg","1","0","0","",""
"","feedback","","html-keyboard-response","419","459334","0.0-1.0-618.0-0.0","0","0","21384","","null","","","null","68","","","","","","","","","","","","","","","",""
"","time_out","","html-keyboard-response","420","461343","0.0-1.0-620.0-0.0","0","0","21384","","null","","","null","68","","","","","","","","","","","","","","","",""
"","ITI","","html-keyboard-response","421","462350","0.0-1.0-621.0","0","0","21384","","363","","","68","68","","","","","","","","","","","","","","","d",""
"","S1","","html-keyboard-response","422","462608","0.0-1.0-623.0","0","0","21384","","null","","","null","69","","","","","","","","","","","","","","","",""
"","ISI","","html-keyboard-response","423","463632","0.0-1.0-624.0","0","0","21384","","176","","","68","69","d","","","","","","","","","","","","","","",""
"","S2","","html-keyboard-response","424","463894","0.0-1.0-625.0","0","0","21384","","null","","","null","69","","NaN","","","","","","","","","","","","","",""
"","response","","html-keyboard-response","425","463919","0.0-1.0-626.0-0.0","0","0","21384","","18","","","68","69","","","2","69","training","adjacent","DC","4","3","L.jpg","M.jpg","1","0","0","",""
"","feedback","","html-keyboard-response","426","464931","0.0-1.0-627.0-0.0","0","0","21384","","null","","","null","69","","","","","","","","","","","","","","","",""
"","time_out","","html-keyboard-response","427","466943","0.0-1.0-629.0-0.0","0","0","21384","","null","","","null","69","","","","","","","","","","","","","","","",""
"","ITI","","html-keyboard-response","428","467951","0.0-1.0-630.0","0","0","21384","","967","","","75","69","","","","","","","","","","","","","","","k",""
"","S1","","html-keyboard-response","429","468209","0.0-1.0-632.0","0","0","21384","","null","","","null","70","","","","","","","","","","","","","","","",""
"","ISI","","html-keyboard-response","430","469217","0.0-1.0-633.0","0","0","21384","","78","","","68","70","d","","","","","","","","","","","","","","",""
"","S2","","html-keyboard-response","431","469391","0.0-1.0-634.0","0","0","21384","","166","","","68","70","","d","2","70","training","adjacent","BA","2","1","N.jpg","R.jpg","1","0","0","",""
"","feedback","","html-keyboard-response","432","470403","0.0-1.0-636.0-0.0","0","0","21384","","null","","","null","70","","","","","","","","","","","","","","","",""
"","time_out","","html-keyboard-response","433","472421","0.0-1.0-638.0-0.0","0","0","21384","","null","","","null","70","","","","","","","","","","","","","","","",""
"","ITI","","html-keyboard-response","434","473429","0.0-1.0-639.0","0","0","21384","","897","","","75","70","","","","","","","","","","","","","","","k",""
"","S1","","html-keyboard-response","435","473689","0.0-1.0-641.0","0","0","21384","","null","","","null","71","","","","","","","","","","","","","","","",""
"","ISI","","html-keyboard-response","436","474699","0.0-1.0-642.0","0","0","21384","","54","","","75","71","k","","","","","","","","","","","","","","",""
"","S2","","html-keyboard-response","437","474902","0.0-1.0-643.0","0","0","21384","","195","","","75","71","","k","2","71","training","adjacent","ED","5","4","P.jpg","L.jpg","0","0","1","",""
"","feedback","","html-keyboard-response","438","475912","0.0-1.0-645.0-0.0","0","0","21384","","null","","","null","71","","","","","","","","","","","","","","","",""
"","ITI","","html-keyboard-response","439","476922","0.0-1.0-648.0","0","0","21384","","775","","","75","71","","","","","","","","","","","","","","","k",""
"","S1","","html-keyboard-response","440","477181","0.0-1.0-650.0","0","0","21384","","null","","","null","72","","","","","","","","","","","","","","","",""
"","ISI","","html-keyboard-response","441","478189","0.0-1.0-651.0","0","0","21384","","345","","","68","72","d","","","","","","","","","","","","","","",""
"","S2","","html-keyboard-response","442","478449","0.0-1.0-652.0","0","0","21384","","null","","","null","72","","NaN","","","","","","","","","","","","","",""
"","response","","html-keyboard-response","443","478501","0.0-1.0-653.0-0.0","0","0","21384","","44","","","75","72","","","2","72","training","adjacent","GF","7","6","O.jpg","Q.jpg","0","0","1","",""
"","feedback","","html-keyboard-response","444","479511","0.0-1.0-654.0-0.0","0","0","21384","","null","","","null","72","","","","","","","","","","","","","","","",""
"","ITI","","html-keyboard-response","445","480522","0.0-1.0-657.0","0","0","21384","","238","","","75","72","","","","","","","","","","","","","","","k",""
"","S1","","html-keyboard-response","446","480782","0.0-1.0-659.0","0","0","21384","","null","","","null","73","","","","","","","","","","","","","","","",""
"","ISI","","html-keyboard-response","447","481790","0.0-1.0-660.0","0","0","21384","","216","","","75","73","k","","","","","","","","","","","","","","",""
"","S2","","html-keyboard-response","448","481893","0.0-1.0-661.0","0","0","21384","","94","","","75","73","","k","2","73","training","adjacent","DC","4","3","L.jpg","M.jpg","0","0","1","",""
"","feedback","","html-keyboard-response","449","482902","0.0-1.0-663.0-0.0","0","0","21384","","null","","","null","73","","","","","","","","","","","","","","","",""
"","ITI","","html-keyboard-response","450","483911","0.0-1.0-666.0","0","0","21384","","352","","","75","73","","","","","","","","","","","","","","","k",""
"","S1","","html-keyboard-response","451","484178","0.0-1.0-668.0","0","0","21384","","null","","","null","74","","","","","","","","","","","","","","","",""
"","ISI","","html-keyboard-response","452","485187","0.0-1.0-669.0","0","0","21384","","27","","","68","74","d","","","","","","","","","","","","","","",""
"","S2","","html-keyboard-response","453","485447","0.0-1.0-670.0","0","0","21384","","null","","","null","74","","NaN","","","","","","","","","","","","","",""
"","response","","html-keyboard-response","454","485455","0.0-1.0-671.0-0.0","0","0","21384","","0","","","75","74","","","2","74","training","adjacent","BC","2","3","N.jpg","M.jpg","0","1","0","",""
"","feedback","","html-keyboard-response","455","486465","0.0-1.0-672.0-0.0","0","0","21384","","null","","","null","74","","","","","","","","","","","","","","","",""
"","time_out","","html-keyboard-response","456","488478","0.0-1.0-674.0-0.0","0","0","21384","","null","","","null","74","","","","","","","","","","","","","","","",""
"","ITI","","html-keyboard-response","457","489487","0.0-1.0-675.0","0","0","21384","","352","","","68","74","","","","","","","","","","","","","","","d",""
"","S1","","html-keyboard-response","458","489744","0.0-1.0-677.0","0","0","21384","","null","","","null","75","","","","","","","","","","","","","","","",""
"","ISI","","html-keyboard-response","459","490750","0.0-1.0-678.0","0","0","21384","","20","","","75","75","k","","","","","","","","","","","","","","",""
"","S2","","html-keyboard-response","460","491009","0.0-1.0-679.0","0","0","21384","","null","","","null","75","","NaN","","","","","","","","","","","","","",""
"","response","","html-keyboard-response","461","491075","0.0-1.0-680.0-0.0","0","0","21384","","59","","","68","75","","","2","75","training","adjacent","EF","5","6","P.jpg","Q.jpg","1","1","1","",""
"","feedback","","html-keyboard-response","462","492085","0.0-1.0-681.0-0.0","0","0","21384","","null","","","null","75","","","","","","","","","","","","","","","",""
"","ITI","","html-keyboard-response","463","493095","0.0-1.0-684.0","0","0","21384","","638","","","75","75","","","","","","","","","","","","","","","k",""
"","S1","","html-keyboard-response","464","493354","0.0-1.0-686.0","0","0","21384","","null","","","null","76","","","","","","","","","","","","","","","",""
"","ISI","","html-keyboard-response","465","494360","0.0-1.0-687.0","0","0","21384","","282","","","75","76","k","","","","","","","","","","","","","","",""
"","S2","","html-keyboard-response","466","494501","0.0-1.0-688.0","0","0","21384","","132","","","75","76","","k","2","76","training","adjacent","BC","2","3","N.jpg","M.jpg","0","1","0","",""
"","feedback","","html-keyboard-response","467","495511","0.0-1.0-690.0-0.0","0","0","21384","","null","","","null","76","","","","","","","","","","","","","","","",""
"","time_out","","html-keyboard-response","468","497523","0.0-1.0-692.0-0.0","0","0","21384","","null","","","null","76","","","","","","","","","","","","","","","",""
"","ITI","","html-keyboard-response","469","498542","0.0-1.0-693.0","0","0","21384","","23","","","68","76","","","","","","","","","","","","","","","d",""
"","S1","","html-keyboard-response","470","498802","0.0-1.0-695.0","0","0","21384","","null","","","null","77","","","","","","","","","","","","","","","",""
"","ISI","","html-keyboard-response","471","499812","0.0-1.0-696.0","0","0","21384","","24","","","68","77","d","","","","","","","","","","","","","","",""
"","S2","","html-keyboard-response","472","499879","0.0-1.0-697.0","0","0","21384","","61","","","68","77","","d","2","77","training","adjacent","GF","7","6","O.jpg","Q.jpg","1","0","0","",""
"","feedback","","html-keyboard-response","473","500890","0.0-1.0-699.0-0.0","0","0","21384","","null","","","null","77","","","","","","","","","","","","","","","",""
"","time_out","","html-keyboard-response","474","502898","0.0-1.0-701.0-0.0","0","0","21384","","null","","","null","77","","","","","","","","","","","","","","","",""
"","ITI","","html-keyboard-response","475","503906","0.0-1.0-702.0","0","0","21384","","79","","","68","77","","","","","","","","","","","","","","","d",""
"","S1","","html-keyboard-response","476","504165","0.0-1.0-704.0","0","0","21384","","null","","","null","78","","","","","","","","","","","","","","","",""
"","ISI","","html-keyboard-response","477","505173","0.0-1.0-705.0","0","0","21384","","350","","","68","78","d","","","","","","","","","","","","","","",""
"","S2","","html-keyboard-response","478","505215","0.0-1.0-706.0","0","0","21384","","36","","","68","78","","d","2","78","training","adjacent","DE","4","5","L.jpg","P.jpg","1","1","1","",""
"","feedback","","html-keyboard-response","479","506222","0.0-1.0-708.0-0.0","0","0","21384","","null","","","null","78","","","","","","","","","","","","","","","",""
"","ITI","","html-keyboard-response","480","507231","0.0-1.0-711.0","0","0","21384","","237","","","68","78","","","","","","","","","","","","","","","d",""
"","S1","","html-keyboard-response","481","507489","0.0-1.0-713.0","0","0","21384","","null","","","null","79","","","","","","","","","","","","","","","",""
"","ISI","","html-keyboard-response","482","508498","0.0-1.0-714.0","0","0","21384","","40","","","68","79","d","","","","","","","","","","","","","","",""
"","S2","","html-keyboard-response","483","508603","0.0-1.0-715.0","0","0","21384","","95","","","68","79","","d","2","79","training","adjacent","GF","7","6","O.jpg","Q.jpg","1","0","0","",""
"","feedback","","html-keyboard-response","484","509613","0.0-1.0-717.0-0.0","0","0","21384","","null","","","null","79","","","","","","","","","","","","","","","",""
"","time_out","","html-keyboard-response","485","511623","0.0-1.0-719.0-0.0","0","0","21384","","null","","","null","79","","","","","","","","","","","","","","","",""
"","ITI","","html-keyboard-response","486","512632","0.0-1.0-720.0","0","0","21384","","722","","","68","79","","","","","","","","","","","","","","","d",""
"","S1","","html-keyboard-response","487","512889","0.0-1.0-722.0","0","0","21384","","null","","","null","80","","","","","","","","","","","","","","","",""
"","ISI","","html-keyboard-response","488","513894","0.0-1.0-723.0","0","0","21384","","593","","","68","80","d","","","","","","","","","","","","","","",""
"","S2","","html-keyboard-response","489","514147","0.0-1.0-724.0","0","0","21384","","245","","","68","80","","d","2","80","training","adjacent","BC","2","3","N.jpg","M.jpg","1","1","1","",""
"","feedback","","html-keyboard-response","490","515158","0.0-1.0-726.0-0.0","0","0","21384","","null","","","null","80","","","","","","","","","","","","","","","",""
"","ITI","","html-keyboard-response","491","516172","0.0-1.0-729.0","0","0","21384","","123","","","68","80","","","","","","","","","","","","","","","d",""
"","S1","","html-keyboard-response","492","516431","0.0-1.0-731.0","0","0","21384","","null","","","null","81","","","","","","","","","","","","","","","",""
"","ISI","","html-keyboard-response","493","517452","0.0-1.0-732.0","0","0","21384","","105","","","68","81","d","","","","","","","","","","","","","","",""
"","S2","","html-keyboard-response","494","517608","0.0-1.0-733.0","0","0","21384","","147","","","68","81","","d","2","81","training","adjacent","BA","2","1","N.jpg","R.jpg","1","0","0","",""
"","feedback","","html-keyboard-response","495","518619","0.0-1.0-735.0-0.0","0","0","21384","","null","","","null","81","","","","","","","","","","","","","","","",""
"","time_out","","html-keyboard-response","496","520628","0.0-1.0-737.0-0.0","0","0","21384","","null","","","null","81","","","","","","","","","","","","","","","",""
"","ITI","","html-keyboard-response","497","521635","0.0-1.0-738.0","0","0","21384","","683","","","68","81","","","","","","","","","","","","","","","d",""
"","S1","","html-keyboard-response","498","521892","0.0-1.0-740.0","0","0","21384","","null","","","null","82","","","","","","","","","","","","","","","",""
"","ISI","","html-keyboard-response","499","522897","0.0-1.0-741.0","0","0","21384","","291","","","68","82","d","","","","","","","","","","","","","","",""
"","S2","","html-keyboard-response","500","523060","0.0-1.0-742.0","0","0","21384","","157","","","68","82","","d","2","82","training","adjacent","AB","1","2","R.jpg","N.jpg","1","1","1","",""
"","feedback","","html-keyboard-response","501","524071","0.0-1.0-744.0-0.0","0","0","21384","","null","","","null","82","","","","","","","","","","","","","","","",""
"","ITI","","html-keyboard-response","502","525082","0.0-1.0-747.0","0","0","21384","","513","","","68","82","","","","","","","","","","","","","","","d",""
"","S1","","html-keyboard-response","503","525344","0.0-1.0-749.0","0","0","21384","","null","","","null","83","","","","","","","","","","","","","","","",""
"","ISI","","html-keyboard-response","504","526353","0.0-1.0-750.0","0","0","21384","","174","","","68","83","d","","","","","","","","","","","","","","",""
"","S2","","html-keyboard-response","505","526454","0.0-1.0-751.0","0","0","21384","","94","","","68","83","","d","2","83","training","adjacent","DE","4","5","L.jpg","P.jpg","1","1","1","",""
"","feedback","","html-keyboard-response","506","527464","0.0-1.0-753.0-0.0","0","0","21384","","null","","","null","83","","","","","","","","","","","","","","","",""
"","ITI","","html-keyboard-response","507","528475","0.0-1.0-756.0","0","0","21384","","78","","","68","83","","","","","","","","","","","","","","","d",""
"","S1","","html-keyboard-response","508","528737","0.0-1.0-758.0","0","0","21384","","null","","","null","84","","","","","","","","","","","","","","","",""
"","ISI","","html-keyboard-response","509","529763","0.0-1.0-759.0","0","0","21384","","95","","","68","84","d","","","","","","","","","","","","","","",""
"","S2","","html-keyboard-response","510","529967","0.0-1.0-760.0","0","0","21384","","196","","","68","84","","d","2","84","training","adjacent","EF","5","6","P.jpg","Q.jpg","1","1","1","",""
"","feedback","","html-keyboard-response","511","530979","0.0-1.0-762.0-0.0","0","0","21384","","null","","","null","84","","","","","","","","","","","","","","","",""
"","ITI","","html-keyboard-response","512","531989","0.0-1.0-765.0","0","0","21384","","83","","","68","84","","","","","","","","","","","","","","","d",""
"","S1","","html-keyboard-response","513","532267","0.0-1.0-767.0","0","0","21384","","null","","","null","85","","","","","","","","","","","","","","","",""
"","ISI","","html-keyboard-response","514","533280","0.0-1.0-768.0","0","0","21384","","335","","","68","85","d","","","","","","","","","","","","","","",""
"","S2","","html-keyboard-response","515","533527","0.0-1.0-769.0","0","0","21384","","239","","","68","85","","d","2","85","training","adjacent","CD","3","4","M.jpg","L.jpg","1","1","1","",""
"","feedback","","html-keyboard-response","516","534538","0.0-1.0-771.0-0.0","0","0","21384","","null","","","null","85","","","","","","","","","","","","","","","",""
"","ITI","","html-keyboard-response","517","535548","0.0-1.0-774.0","0","0","21384","","444","","","68","85","","","","","","","","","","","","","","","d",""
"","S1","","html-keyboard-response","518","535807","0.0-1.0-776.0","0","0","21384","","null","","","null","86","","","","","","","","","","","","","","","",""
"","ISI","","html-keyboard-response","519","536818","0.0-1.0-777.0","0","0","21384","","63","","","68","86","d","","","","","","","","","","","","","","",""
"","S2","","html-keyboard-response","520","536984","0.0-1.0-778.0","0","0","21384","","157","","","68","86","","d","2","86","training","adjacent","EF","5","6","P.jpg","Q.jpg","1","1","1","",""
"","feedback","","html-keyboard-response","521","537994","0.0-1.0-780.0-0.0","0","0","21384","","null","","","null","86","","","","","","","","","","","","","","","",""
"","ITI","","html-keyboard-response","522","539005","0.0-1.0-783.0","0","0","21384","","98","","","68","86","","","","","","","","","","","","","","","d",""
"","S1","","html-keyboard-response","523","539265","0.0-1.0-785.0","0","0","21384","","null","","","null","87","","","","","","","","","","","","","","","",""
"","ISI","","html-keyboard-response","524","540275","0.0-1.0-786.0","0","0","21384","","1","","","68","87","d","","","","","","","","","","","","","","",""
"","S2","","html-keyboard-response","525","540462","0.0-1.0-787.0","0","0","21384","","179","","","68","87","","d","2","87","training","adjacent","DC","4","3","L.jpg","M.jpg","1","0","0","",""
"","feedback","","html-keyboard-response","526","541471","0.0-1.0-789.0-0.0","0","0","21384","","null","","","null","87","","","","","","","","","","","","","","","",""
"","time_out","","html-keyboard-response","527","543477","0.0-1.0-791.0-0.0","0","0","21384","","null","","","null","87","","","","","","","","","","","","","","","",""
"","ITI","","html-keyboard-response","528","544485","0.0-1.0-792.0","0","0","21384","","201","","","68","87","","","","","","","","","","","","","","","d",""
"","S1","","html-keyboard-response","529","544745","0.0-1.0-794.0","0","0","21384","","null","","","null","88","","","","","","","","","","","","","","","",""
"","ISI","","html-keyboard-response","530","545757","0.0-1.0-795.0","0","0","21384","","398","","","75","88","k","","","","","","","","","","","","","","",""
"","S2","","html-keyboard-response","531","545789","0.0-1.0-796.0","0","0","21384","","24","","","75","88","","k","2","88","training","adjacent","CD","3","4","M.jpg","L.jpg","0","1","0","",""
"","feedback","","html-keyboard-response","532","546795","0.0-1.0-798.0-0.0","0","0","21384","","null","","","null","88","","","","","","","","","","","","","","","",""
"","time_out","","html-keyboard-response","533","548802","0.0-1.0-800.0-0.0","0","0","21384","","null","","","null","88","","","","","","","","","","","","","","","",""
"","ITI","","html-keyboard-response","534","549811","0.0-1.0-801.0","0","0","21384","","828","","","68","88","","","","","","","","","","","","","","","d",""
"","S1","","html-keyboard-response","535","550071","0.0-1.0-803.0","0","0","21384","","null","","","null","89","","","","","","","","","","","","","","","",""
"","ISI","","html-keyboard-response","536","551084","0.0-1.0-804.0","0","0","21384","","61","","","68","89","d","","","","","","","","","","","","","","",""
"","S2","","html-keyboard-response","537","551343","0.0-1.0-805.0","0","0","21384","","null","","","null","89","","NaN","","","","","","","","","","","","","",""
"","response","","html-keyboard-response","538","551377","0.0-1.0-806.0-0.0","0","0","21384","","28","","","68","89","","","2","89","training","adjacent","CD","3","4","M.jpg","L.jpg","1","1","1","",""
"","feedback","","html-keyboard-response","539","552389","0.0-1.0-807.0-0.0","0","0","21384","","null","","","null","89","","","","","","","","","","","","","","","",""
"","ITI","","html-keyboard-response","540","553400","0.0-1.0-810.0","0","0","21384","","36","","","68","89","","","","","","","","","","","","","","","d",""
"","S1","","html-keyboard-response","541","553657","0.0-1.0-812.0","0","0","21384","","null","","","null","90","","","","","","","","","","","","","","","",""
"","ISI","","html-keyboard-response","542","554667","0.0-1.0-813.0","0","0","21384","","42","","","68","90","d","","","","","","","","","","","","","","",""
"","S2","","html-keyboard-response","543","554916","0.0-1.0-814.0","0","0","21384","","239","","","68","90","","d","2","90","training","adjacent","FG","6","7","Q.jpg","O.jpg","1","1","1","",""
"","feedback","","html-keyboard-response","544","555928","0.0-1.0-816.0-0.0","0","0","21384","","null","","","null","90","","","","","","","","","","","","","","","",""
"","ITI","","html-keyboard-response","545","556938","0.0-1.0-819.0","0","0","21384","","34","","","68","90","","","","","","","","","","","","","","","d",""
"","S1","","html-keyboard-response","546","557196","0.0-1.0-821.0","0","0","21384","","null","","","null","91","","","","","","","","","","","","","","","",""
"","ISI","","html-keyboard-response","547","558204","0.0-1.0-822.0","0","0","21384","","128","","","68","91","d","","","","","","","","","","","","","","",""
"","S2","","html-keyboard-response","548","558451","0.0-1.0-823.0","0","0","21384","","238","","","68","91","","d","2","91","training","adjacent","CD","3","4","M.jpg","L.jpg","1","1","1","",""
"","feedback","","html-keyboard-response","549","559463","0.0-1.0-825.0-0.0","0","0","21384","","null","","","null","91","","","","","","","","","","","","","","","",""
"","ITI","","html-keyboard-response","550","560473","0.0-1.0-828.0","0","0","21384","","291","","","68","91","","","","","","","","","","","","","","","d",""
"","S1","","html-keyboard-response","551","560733","0.0-1.0-830.0","0","0","21384","","null","","","null","92","","","","","","","","","","","","","","","",""
"","ISI","","html-keyboard-response","552","561739","0.0-1.0-831.0","0","0","21384","","327","","","68","92","d","","","","","","","","","","","","","","",""
"","S2","","html-keyboard-response","553","561922","0.0-1.0-832.0","0","0","21384","","175","","","68","92","","d","2","92","training","adjacent","FE","6","5","Q.jpg","P.jpg","1","0","0","",""
"","feedback","","html-keyboard-response","554","562933","0.0-1.0-834.0-0.0","0","0","21384","","null","","","null","92","","","","","","","","","","","","","","","",""
"","time_out","","html-keyboard-response","555","564944","0.0-1.0-836.0-0.0","0","0","21384","","null","","","null","92","","","","","","","","","","","","","","","",""
"","ITI","","html-keyboard-response","556","565954","0.0-1.0-837.0","0","0","21384","","null","","","null","92","","","","","","","","","","","","","","","NaN",""
"","S1","","html-keyboard-response","557","566213","0.0-1.0-839.0","0","0","21384","","null","","","null","93","","","","","","","","","","","","","","","",""
"","ISI","","html-keyboard-response","558","567225","0.0-1.0-840.0","0","0","21384","","94","","","68","93","d","","","","","","","","","","","","","","",""
"","S2","","html-keyboard-response","559","567486","0.0-1.0-841.0","0","0","21384","","null","","","null","93","","NaN","","","","","","","","","","","","","",""
"","response","","html-keyboard-response","560","567583","0.0-1.0-842.0-0.0","0","0","21384","","91","","","68","93","","","2","93","training","adjacent","AB","1","2","R.jpg","N.jpg","1","1","1","",""
"","feedback","","html-keyboard-response","561","568590","0.0-1.0-843.0-0.0","0","0","21384","","null","","","null","93","","","","","","","","","","","","","","","",""
"","ITI","","html-keyboard-response","562","569599","0.0-1.0-846.0","0","0","21384","","756","","","68","93","","","","","","","","","","","","","","","d",""
"","S1","","html-keyboard-response","563","569859","0.0-1.0-848.0","0","0","21384","","null","","","null","94","","","","","","","","","","","","","","","",""
"","ISI","","html-keyboard-response","564","570868","0.0-1.0-849.0","0","0","21384","","272","","","68","94","d","","","","","","","","","","","","","","",""
"","S2","","html-keyboard-response","565","571127","0.0-1.0-850.0","0","0","21384","","null","","","null","94","","NaN","","","","","","","","","","","","","",""
"","response","","html-keyboard-response","566","571177","0.0-1.0-851.0-0.0","0","0","21384","","43","","","68","94","","","2","94","training","adjacent","ED","5","4","P.jpg","L.jpg","1","0","0","",""
"","feedback","","html-keyboard-response","567","572188","0.0-1.0-852.0-0.0","0","0","21384","","null","","","null","94","","","","","","","","","","","","","","","",""
"","time_out","","html-keyboard-response","568","574197","0.0-1.0-854.0-0.0","0","0","21384","","null","","","null","94","","","","","","","","","","","","","","","",""
"","ITI","","html-keyboard-response","569","575204","0.0-1.0-855.0","0","0","21384","","4","","","68","94","","","","","","","","","","","","","","","d",""
"","S1","","html-keyboard-response","570","575467","0.0-1.0-857.0","0","0","21384","","null","","","null","95","","","","","","","","","","","","","","","",""
"","ISI","","html-keyboard-response","571","576477","0.0-1.0-858.0","0","0","21384","","null","","","null","95","NaN","","","","","","","","","","","","","","",""
"","S2","","html-keyboard-response","572","576735","0.0-1.0-859.0","0","0","21384","","null","","","null","95","","NaN","","","","","","","","","","","","","",""
"","response","","html-keyboard-response","573","578495","0.0-1.0-860.0-0.0","0","0","21384","","null","","","null","95","","","2","95","training","adjacent","FE","6","5","Q.jpg","P.jpg","NaN","0","0","",""
"","too_slow_prompt","","html-keyboard-response","574","579506","0.0-1.0-862.0-0.0","1","0","21384","","null","","","null","","","","","","","","","","","","","","","","",""
"","time_out","","html-keyboard-response","575","581513","0.0-1.0-863.0-0.0","0","0","21384","","null","","","null","95","","","","","","","","","","","","","","","",""
"","ITI","","html-keyboard-response","576","582521","0.0-1.0-864.0","0","0","21384","","null","","","null","95","","","","","","","","","","","","","","","NaN",""
"","block_over","","html-keyboard-response","577","592688","0.0-1.0-865.0-0.0","0","0","21384","","10157","","","32","95","","","","","","","","","","","","","","","",""
"","S1","","html-keyboard-response","578","592947","0.0-1.0-866.0","0","0","21384","","null","","","null","96","","","","","","","","","","","","","","","",""
"","ISI","","html-keyboard-response","579","593954","0.0-1.0-867.0","0","0","21384","","597","","","68","96","d","","","","","","","","","","","","","","",""
"","S2","","html-keyboard-response","580","594078","0.0-1.0-868.0","0","0","21384","","116","","","68","96","","d","3","96","training","adjacent","CB","3","2","M.jpg","N.jpg","1","0","0","",""
"","feedback","","html-keyboard-response","581","595090","0.0-1.0-870.0-0.0","0","0","21384","","null","","","null","96","","","","","","","","","","","","","","","",""
"","time_out","","html-keyboard-response","582","597101","0.0-1.0-872.0-0.0","0","0","21384","","null","","","null","96","","","","","","","","","","","","","","","",""
"","ITI","","html-keyboard-response","583","598110","0.0-1.0-873.0","0","0","21384","","353","","","68","96","","","","","","","","","","","","","","","d",""
"","S1","","html-keyboard-response","584","598370","0.0-1.0-875.0","0","0","21384","","null","","","null","97","","","","","","","","","","","","","","","",""
"","ISI","","html-keyboard-response","585","599380","0.0-1.0-876.0","0","0","21384","","1","","","68","97","d","","","","","","","","","","","","","","",""
