"success","ttype","start_time","trial_type","trial_index","time_elapsed","internal_node_id","warning","missed_checkup","PID","view_history","rt","responses","repeat_instructions","key_press","index","keypress_isi","keypress_S2","block","trial_num","phase","group_type","pair_type","S1_stim","S2_stim","S1_img","S2_img","S1_chosen","S1_higher","accuracy","keypress_iti","total_bonus_tally"
"true","full_screen","d03032023hr2029","fullscreen","0","32384","0.0-0.0","0","0","27742","","","","","","","","","","","","","","","","","","","","","",""
"","instructions","","instructions","1","285485","0.0-1.0-0.0-0.0","0","0","27742","[{""page_index"":0,""viewing_time"":20772},{""page_index"":1,""viewing_time"":213236},{""page_index"":2,""viewing_time"":12692},{""page_index"":3,""viewing_time"":6397}]","253097","","","","","","","","","","","","","","","","","","","",""
"","comprehension_check","","survey-multi-choice","2","352379","0.0-1.0-0.0-1.0","0","0","27742","","66888","{""Q0"":""True"",""Q1"":""D"",""Q2"":""Only when the screen 'MAKE A CHOICE' is shown"",""Q3"":""Green mark"",""Q4"":""either D or K""}","1","","","","","","","","","","","","","","","","","",""
"","missed_instruction_checkup","","html-keyboard-response","3","355602","0.0-1.0-0.0-2.0-0.0","0","1","27742","","3219","","","32","","","","","","","","","","","","","","","","",""
"","instructions","","instructions","4","368856","0.0-1.0-0.1-0.1","0","0","27742","[{""page_index"":0,""viewing_time"":8833},{""page_index"":1,""viewing_time"":1419},{""page_index"":2,""viewing_time"":1224},{""page_index"":3,""viewing_time"":1776}]","13252","","","","","","","","","","","","","","","","","","","",""
"","comprehension_check","","survey-multi-choice","5","385005","0.0-1.0-0.1-1.1","0","0","27742","","16144","{""Q0"":""True"",""Q1"":""D"",""Q2"":""Once the second image appears and while the screen 'MAKE A CHOICE' is shown"",""Q3"":""Green mark"",""Q4"":""either D or K""}","0","","","","","","","","","","","","","","","","","",""
"","start_exp","","html-keyboard-response","6","389948","0.0-1.0-1.0","0","0","27742","","4941","","","32","","","","","","","","","","","","","","","","",""
"","S1","","html-keyboard-response","7","390200","0.0-1.0-2.0","0","0","27742","","null","","","null","0","","","","","","","","","","","","","","","",""
"","ISI","","html-keyboard-response","8","390701","0.0-1.0-3.0","0","0","27742","","null","","","null","0","NaN","","","","","","","","","","","","","","",""
"","S2","","html-keyboard-response","9","390954","0.0-1.0-4.0","0","0","27742","","null","","","null","0","","NaN","","","","","","","","","","","","","",""
"","response","","html-keyboard-response","10","392707","0.0-1.0-5.0-0.0","0","0","27742","","null","","","null","0","","","1","0","training","adjacent","AB","1","2","O.jpg","M.jpg","NaN","1","0","",""
"","too_slow_prompt","","html-keyboard-response","11","393709","0.0-1.0-7.0-0.0","1","0","27742","","null","","","null","","","","","","","","","","","","","","","","",""
"","time_out","","html-keyboard-response","12","395743","0.0-1.0-8.0-0.0","0","0","27742","","null","","","null","0","","","","","","","","","","","","","","","",""
"","ITI","","html-keyboard-response","13","396745","0.0-1.0-9.0","0","0","27742","","546","","","75","0","","","","","","","","","","","","","","","k",""
"","S1","","html-keyboard-response","14","396997","0.0-1.0-11.0","0","0","27742","","null","","","null","1","","","","","","","","","","","","","","","",""
"","ISI","","html-keyboard-response","15","397498","0.0-1.0-12.0","0","0","27742","","null","","","null","1","NaN","","","","","","","","","","","","","","",""
"","S2","","html-keyboard-response","16","397821","0.0-1.0-13.0","0","0","27742","","null","","","null","1","","NaN","","","","","","","","","","","","","",""
"","response","","html-keyboard-response","17","399246","0.0-1.0-14.0-0.0","0","0","27742","","1423","","","75","1","","","1","1","training","adjacent","BC","2","3","M.jpg","L.jpg","0","1","0","",""
"","feedback","","html-keyboard-response","18","400247","0.0-1.0-15.0-0.0","0","0","27742","","null","","","null","1","","","","","","","","","","","","","","","",""
"","time_out","","html-keyboard-response","19","402249","0.0-1.0-17.0-0.0","0","0","27742","","null","","","null","1","","","","","","","","","","","","","","","",""
"","ITI","","html-keyboard-response","20","403250","0.0-1.0-18.0","0","0","27742","","946","","","75","1","","","","","","","","","","","","","","","k",""
"","S1","","html-keyboard-response","21","403502","0.0-1.0-20.0","0","0","27742","","null","","","null","2","","","","","","","","","","","","","","","",""
"","ISI","","html-keyboard-response","22","404004","0.0-1.0-21.0","0","0","27742","","null","","","null","2","NaN","","","","","","","","","","","","","","",""
"","S2","","html-keyboard-response","23","404257","0.0-1.0-22.0","0","0","27742","","null","","","null","2","","NaN","","","","","","","","","","","","","",""
"","response","","html-keyboard-response","24","404895","0.0-1.0-23.0-0.0","0","0","27742","","636","","","68","2","","","1","2","training","adjacent","GF","7","6","P.jpg","N.jpg","1","0","0","",""
"","feedback","","html-keyboard-response","25","405897","0.0-1.0-24.0-0.0","0","0","27742","","null","","","null","2","","","","","","","","","","","","","","","",""
"","time_out","","html-keyboard-response","26","407898","0.0-1.0-26.0-0.0","0","0","27742","","null","","","null","2","","","","","","","","","","","","","","","",""
"","ITI","","html-keyboard-response","27","408899","0.0-1.0-27.0","0","0","27742","","null","","","null","2","","","","","","","","","","","","","","","NaN",""
"","S1","","html-keyboard-response","28","409150","0.0-1.0-29.0","0","0","27742","","null","","","null","3","","","","","","","","","","","","","","","",""
"","ISI","","html-keyboard-response","29","409651","0.0-1.0-30.0","0","0","27742","","null","","","null","3","NaN","","","","","","","","","","","","","","",""
"","S2","","html-keyboard-response","30","409905","0.0-1.0-31.0","0","0","27742","","null","","","null","3","","NaN","","","","","","","","","","","","","",""
"","response","","html-keyboard-response","31","411657","0.0-1.0-32.0-0.0","0","0","27742","","null","","","null","3","","","1","3","training","adjacent","EF","5","6","Q.jpg","N.jpg","NaN","1","0","",""
"","too_slow_prompt","","html-keyboard-response","32","412659","0.0-1.0-34.0-0.0","1","0","27742","","null","","","null","","","","","","","","","","","","","","","","",""
"","time_out","","html-keyboard-response","33","414662","0.0-1.0-35.0-0.0","0","0","27742","","null","","","null","3","","","","","","","","","","","","","","","",""
"","ITI","","html-keyboard-response","34","415664","0.0-1.0-36.0","0","0","27742","","120","","","75","3","","","","","","","","","","","","","","","k",""
"","S1","","html-keyboard-response","35","415916","0.0-1.0-38.0","0","0","27742","","null","","","null","4","","","","","","","","","","","","","","","",""
"","ISI","","html-keyboard-response","36","416418","0.0-1.0-39.0","0","0","27742","","null","","","null","4","NaN","","","","","","","","","","","","","","",""
"","S2","","html-keyboard-response","37","416669","0.0-1.0-40.0","0","0","27742","","null","","","null","4","","NaN","","","","","","","","","","","","","",""
"","response","","html-keyboard-response","38","417516","0.0-1.0-41.0-0.0","0","0","27742","","846","","","75","4","","","1","4","training","adjacent","AB","1","2","O.jpg","M.jpg","0","1","0","",""
"","feedback","","html-keyboard-response","39","418517","0.0-1.0-42.0-0.0","0","0","27742","","null","","","null","4","","","","","","","","","","","","","","","",""
"","time_out","","html-keyboard-response","40","420519","0.0-1.0-44.0-0.0","0","0","27742","","null","","","null","4","","","","","","","","","","","","","","","",""
"","ITI","","html-keyboard-response","41","421520","0.0-1.0-45.0","0","0","27742","","null","","","null","4","","","","","","","","","","","","","","","NaN",""
"","S1","","html-keyboard-response","42","421772","0.0-1.0-47.0","0","0","27742","","null","","","null","5","","","","","","","","","","","","","","","",""
"","ISI","","html-keyboard-response","43","422274","0.0-1.0-48.0","0","0","27742","","null","","","null","5","NaN","","","","","","","","","","","","","","",""
"","S2","","html-keyboard-response","44","422526","0.0-1.0-49.0","0","0","27742","","null","","","null","5","","NaN","","","","","","","","","","","","","",""
"","response","","html-keyboard-response","45","424282","0.0-1.0-50.0-0.0","0","0","27742","","null","","","null","5","","","1","5","training","adjacent","DC","4","3","R.jpg","L.jpg","NaN","0","0","",""
"","too_slow_prompt","","html-keyboard-response","46","425283","0.0-1.0-52.0-0.0","1","0","27742","","null","","","null","","","","","","","","","","","","","","","","",""
"","time_out","","html-keyboard-response","47","427283","0.0-1.0-53.0-0.0","0","0","27742","","null","","","null","5","","","","","","","","","","","","","","","",""
"","ITI","","html-keyboard-response","48","428286","0.0-1.0-54.0","0","0","27742","","727","","","68","5","","","","","","","","","","","","","","","d",""
"","S1","","html-keyboard-response","49","428537","0.0-1.0-56.0","0","0","27742","","null","","","null","6","","","","","","","","","","","","","","","",""
"","ISI","","html-keyboard-response","50","429040","0.0-1.0-57.0","0","0","27742","","71","","","68","6","d","","","","","","","","","","","","","","",""
"","S2","","html-keyboard-response","51","429292","0.0-1.0-58.0","0","0","27742","","null","","","null","6","","NaN","","","","","","","","","","","","","",""
"","response","","html-keyboard-response","52","430046","0.0-1.0-59.0-0.0","0","0","27742","","753","","","68","6","","","1","6","training","adjacent","AB","1","2","O.jpg","M.jpg","1","1","1","",""
"","feedback","","html-keyboard-response","53","431048","0.0-1.0-60.0-0.0","0","0","27742","","null","","","null","6","","","","","","","","","","","","","","","",""
"","ITI","","html-keyboard-response","54","432049","0.0-1.0-63.0","0","0","27742","","null","","","null","6","","","","","","","","","","","","","","","NaN",""
"","S1","","html-keyboard-response","55","432304","0.0-1.0-65.0","0","0","27742","","null","","","null","7","","","","","","","","","","","","","","","",""
"","ISI","","html-keyboard-response","56","432805","0.0-1.0-66.0","0","0","27742","","null","","","null","7","NaN","","","","","","","","","","","","","","",""
"","S2","","html-keyboard-response","57","432836","0.0-1.0-67.0","0","0","27742","","29","","","68","7","","d","1","7","training","adjacent","FG","6","7","N.jpg","P.jpg","1","1","1","",""
"","feedback","","html-keyboard-response","58","433838","0.0-1.0-69.0-0.0","0","0","27742","","null","","","null","7","","","","","","","","","","","","","","","",""
"","ITI","","html-keyboard-response","59","434840","0.0-1.0-72.0","0","0","27742","","null","","","null","7","","","","","","","","","","","","","","","NaN",""
"","S1","","html-keyboard-response","60","435093","0.0-1.0-74.0","0","0","27742","","null","","","null","8","","","","","","","","","","","","","","","",""
"","ISI","","html-keyboard-response","61","435595","0.0-1.0-75.0","0","0","27742","","null","","","null","8","NaN","","","","","","","","","","","","","","",""
"","S2","","html-keyboard-response","62","435670","0.0-1.0-76.0","0","0","27742","","74","","","68","8","","d","1","8","training","adjacent","FE","6","5","N.jpg","Q.jpg","1","0","0","",""
"","feedback","","html-keyboard-response","63","436726","0.0-1.0-78.0-0.0","0","0","27742","","null","","","null","8","","","","","","","","","","","","","","","",""
"","time_out","","html-keyboard-response","64","438726","0.0-1.0-80.0-0.0","0","0","27742","","null","","","null","8","","","","","","","","","","","","","","","",""
"","ITI","","html-keyboard-response","65","439729","0.0-1.0-81.0","0","0","27742","","null","","","null","8","","","","","","","","","","","","","","","NaN",""
"","S1","","html-keyboard-response","66","439982","0.0-1.0-83.0","0","0","27742","","null","","","null","9","","","","","","","","","","","","","","","",""
"","ISI","","html-keyboard-response","67","440483","0.0-1.0-84.0","0","0","27742","","495","","","68","9","d","","","","","","","","","","","","","","",""
"","S2","","html-keyboard-response","68","440735","0.0-1.0-85.0","0","0","27742","","null","","","null","9","","NaN","","","","","","","","","","","","","",""
"","response","","html-keyboard-response","69","441683","0.0-1.0-86.0-0.0","0","0","27742","","947","","","68","9","","","1","9","training","adjacent","FE","6","5","N.jpg","Q.jpg","1","0","0","",""
"","feedback","","html-keyboard-response","70","442685","0.0-1.0-87.0-0.0","0","0","27742","","null","","","null","9","","","","","","","","","","","","","","","",""
"","time_out","","html-keyboard-response","71","444686","0.0-1.0-89.0-0.0","0","0","27742","","null","","","null","9","","","","","","","","","","","","","","","",""
"","ITI","","html-keyboard-response","72","445687","0.0-1.0-90.0","0","0","27742","","null","","","null","9","","","","","","","","","","","","","","","NaN",""
"","S1","","html-keyboard-response","73","445939","0.0-1.0-92.0","0","0","27742","","null","","","null","10","","","","","","","","","","","","","","","",""
"","ISI","","html-keyboard-response","74","446441","0.0-1.0-93.0","0","0","27742","","367","","","68","10","d","","","","","","","","","","","","","","",""
"","S2","","html-keyboard-response","75","446693","0.0-1.0-94.0","0","0","27742","","null","","","null","10","","NaN","","","","","","","","","","","","","",""
"","response","","html-keyboard-response","76","447023","0.0-1.0-95.0-0.0","0","0","27742","","328","","","68","10","","","1","10","training","adjacent","DE","4","5","R.jpg","Q.jpg","1","1","1","",""
"","feedback","","html-keyboard-response","77","448024","0.0-1.0-96.0-0.0","0","0","27742","","null","","","null","10","","","","","","","","","","","","","","","",""
"","ITI","","html-keyboard-response","78","449026","0.0-1.0-99.0","0","0","27742","","null","","","null","10","","","","","","","","","","","","","","","NaN",""
"","S1","","html-keyboard-response","79","449278","0.0-1.0-101.0","0","0","27742","","null","","","null","11","","","","","","","","","","","","","","","",""
"","ISI","","html-keyboard-response","80","449780","0.0-1.0-102.0","0","0","27742","","null","","","null","11","NaN","","","","","","","","","","","","","","",""
"","S2","","html-keyboard-response","81","449823","0.0-1.0-103.0","0","0","27742","","41","","","68","11","","d","1","11","training","adjacent","FE","6","5","N.jpg","Q.jpg","1","0","0","",""
"","feedback","","html-keyboard-response","82","450824","0.0-1.0-105.0-0.0","0","0","27742","","null","","","null","11","","","","","","","","","","","","","","","",""
"","time_out","","html-keyboard-response","83","452827","0.0-1.0-107.0-0.0","0","0","27742","","null","","","null","11","","","","","","","","","","","","","","","",""
"","ITI","","html-keyboard-response","84","453828","0.0-1.0-108.0","0","0","27742","","null","","","null","11","","","","","","","","","","","","","","","NaN",""
"","S1","","html-keyboard-response","85","454079","0.0-1.0-110.0","0","0","27742","","null","","","null","12","","","","","","","","","","","","","","","",""
"","ISI","","html-keyboard-response","86","454581","0.0-1.0-111.0","0","0","27742","","359","","","68","12","d","","","","","","","","","","","","","","",""
"","S2","","html-keyboard-response","87","454679","0.0-1.0-112.0","0","0","27742","","97","","","68","12","","d","1","12","training","adjacent","GF","7","6","P.jpg","N.jpg","1","0","0","",""
"","feedback","","html-keyboard-response","88","455681","0.0-1.0-114.0-0.0","0","0","27742","","null","","","null","12","","","","","","","","","","","","","","","",""
"","time_out","","html-keyboard-response","89","457684","0.0-1.0-116.0-0.0","0","0","27742","","null","","","null","12","","","","","","","","","","","","","","","",""
"","ITI","","html-keyboard-response","90","458687","0.0-1.0-117.0","0","0","27742","","null","","","null","12","","","","","","","","","","","","","","","NaN",""
"","S1","","html-keyboard-response","91","458941","0.0-1.0-119.0","0","0","27742","","null","","","null","13","","","","","","","","","","","","","","","",""
"","ISI","","html-keyboard-response","92","459442","0.0-1.0-120.0","0","0","27742","","299","","","75","13","k","","","","","","","","","","","","","","",""
"","S2","","html-keyboard-response","93","459465","0.0-1.0-121.0","0","0","27742","","23","","","75","13","","k","1","13","training","adjacent","DE","4","5","R.jpg","Q.jpg","0","1","0","",""
"","feedback","","html-keyboard-response","94","460466","0.0-1.0-123.0-0.0","0","0","27742","","null","","","null","13","","","","","","","","","","","","","","","",""
"","time_out","","html-keyboard-response","95","462469","0.0-1.0-125.0-0.0","0","0","27742","","null","","","null","13","","","","","","","","","","","","","","","",""
"","ITI","","html-keyboard-response","96","463472","0.0-1.0-126.0","0","0","27742","","null","","","null","13","","","","","","","","","","","","","","","NaN",""
"","S1","","html-keyboard-response","97","463734","0.0-1.0-128.0","0","0","27742","","null","","","null","14","","","","","","","","","","","","","","","",""
"","ISI","","html-keyboard-response","98","464236","0.0-1.0-129.0","0","0","27742","","325","","","68","14","d","","","","","","","","","","","","","","",""
"","S2","","html-keyboard-response","99","464310","0.0-1.0-130.0","0","0","27742","","73","","","68","14","","d","1","14","training","adjacent","BA","2","1","M.jpg","O.jpg","1","0","0","",""
"","feedback","","html-keyboard-response","100","465312","0.0-1.0-132.0-0.0","0","0","27742","","null","","","null","14","","","","","","","","","","","","","","","",""
"","time_out","","html-keyboard-response","101","467313","0.0-1.0-134.0-0.0","0","0","27742","","null","","","null","14","","","","","","","","","","","","","","","",""
"","ITI","","html-keyboard-response","102","468332","0.0-1.0-135.0","0","0","27742","","null","","","null","14","","","","","","","","","","","","","","","NaN",""
"","S1","","html-keyboard-response","103","468585","0.0-1.0-137.0","0","0","27742","","null","","","null","15","","","","","","","","","","","","","","","",""
"","ISI","","html-keyboard-response","104","469107","0.0-1.0-138.0","0","0","27742","","369","","","68","15","d","","","","","","","","","","","","","","",""
"","S2","","html-keyboard-response","105","469197","0.0-1.0-139.0","0","0","27742","","87","","","68","15","","d","1","15","training","adjacent","BA","2","1","M.jpg","O.jpg","1","0","0","",""
"","feedback","","html-keyboard-response","106","470199","0.0-1.0-141.0-0.0","0","0","27742","","null","","","null","15","","","","","","","","","","","","","","","",""
"","time_out","","html-keyboard-response","107","472201","0.0-1.0-143.0-0.0","0","0","27742","","null","","","null","15","","","","","","","","","","","","","","","",""
"","ITI","","html-keyboard-response","108","473203","0.0-1.0-144.0","0","0","27742","","null","","","null","15","","","","","","","","","","","","","","","NaN",""
"","S1","","html-keyboard-response","109","473455","0.0-1.0-146.0","0","0","27742","","null","","","null","16","","","","","","","","","","","","","","","",""
"","ISI","","html-keyboard-response","110","473956","0.0-1.0-147.0","0","0","27742","","284","","","68","16","d","","","","","","","","","","","","","","",""
"","S2","","html-keyboard-response","111","473976","0.0-1.0-148.0","0","0","27742","","17","","","68","16","","d","1","16","training","adjacent","BA","2","1","M.jpg","O.jpg","1","0","0","",""
"","feedback","","html-keyboard-response","112","474979","0.0-1.0-150.0-0.0","0","0","27742","","null","","","null","16","","","","","","","","","","","","","","","",""
"","time_out","","html-keyboard-response","113","476981","0.0-1.0-152.0-0.0","0","0","27742","","null","","","null","16","","","","","","","","","","","","","","","",""
"","ITI","","html-keyboard-response","114","477983","0.0-1.0-153.0","0","0","27742","","null","","","null","16","","","","","","","","","","","","","","","NaN",""
"","S1","","html-keyboard-response","115","478243","0.0-1.0-155.0","0","0","27742","","null","","","null","17","","","","","","","","","","","","","","","",""
"","ISI","","html-keyboard-response","116","478745","0.0-1.0-156.0","0","0","27742","","262","","","75","17","k","","","","","","","","","","","","","","",""
"","S2","","html-keyboard-response","117","478998","0.0-1.0-157.0","0","0","27742","","null","","","null","17","","NaN","","","","","","","","","","","","","",""
"","response","","html-keyboard-response","118","479804","0.0-1.0-158.0-0.0","0","0","27742","","805","","","68","17","","","1","17","training","adjacent","EF","5","6","Q.jpg","N.jpg","1","1","1","",""
"","feedback","","html-keyboard-response","119","480807","0.0-1.0-159.0-0.0","0","0","27742","","null","","","null","17","","","","","","","","","","","","","","","",""
"","ITI","","html-keyboard-response","120","481809","0.0-1.0-162.0","0","0","27742","","null","","","null","17","","","","","","","","","","","","","","","NaN",""
"","S1","","html-keyboard-response","121","482060","0.0-1.0-164.0","0","0","27742","","null","","","null","18","","","","","","","","","","","","","","","",""
"","ISI","","html-keyboard-response","122","482561","0.0-1.0-165.0","0","0","27742","","478","","","68","18","d","","","","","","","","","","","","","","",""
"","S2","","html-keyboard-response","123","482756","0.0-1.0-166.0","0","0","27742","","194","","","68","18","","d","1","18","training","adjacent","EF","5","6","Q.jpg","N.jpg","1","1","1","",""
"","feedback","","html-keyboard-response","124","483758","0.0-1.0-168.0-0.0","0","0","27742","","null","","","null","18","","","","","","","","","","","","","","","",""
"","ITI","","html-keyboard-response","125","484759","0.0-1.0-171.0","0","0","27742","","null","","","null","18","","","","","","","","","","","","","","","NaN",""
"","S1","","html-keyboard-response","126","485012","0.0-1.0-173.0","0","0","27742","","null","","","null","19","","","","","","","","","","","","","","","",""
"","ISI","","html-keyboard-response","127","485513","0.0-1.0-174.0","0","0","27742","","316","","","68","19","d","","","","","","","","","","","","","","",""
"","S2","","html-keyboard-response","128","485539","0.0-1.0-175.0","0","0","27742","","25","","","68","19","","d","1","19","training","adjacent","ED","5","4","Q.jpg","R.jpg","1","0","0","",""
"","feedback","","html-keyboard-response","129","486542","0.0-1.0-177.0-0.0","0","0","27742","","null","","","null","19","","","","","","","","","","","","","","","",""
"","time_out","","html-keyboard-response","130","488545","0.0-1.0-179.0-0.0","0","0","27742","","null","","","null","19","","","","","","","","","","","","","","","",""
"","ITI","","html-keyboard-response","131","489547","0.0-1.0-180.0","0","0","27742","","null","","","null","19","","","","","","","","","","","","","","","NaN",""
"","S1","","html-keyboard-response","132","489798","0.0-1.0-182.0","0","0","27742","","null","","","null","20","","","","","","","","","","","","","","","",""
"","ISI","","html-keyboard-response","133","490300","0.0-1.0-183.0","0","0","27742","","382","","","68","20","d","","","","","","","","","","","","","","",""
"","S2","","html-keyboard-response","134","490401","0.0-1.0-184.0","0","0","27742","","99","","","68","20","","d","1","20","training","adjacent","ED","5","4","Q.jpg","R.jpg","1","0","0","",""
"","feedback","","html-keyboard-response","135","491404","0.0-1.0-186.0-0.0","0","0","27742","","null","","","null","20","","","","","","","","","","","","","","","",""
"","time_out","","html-keyboard-response","136","493409","0.0-1.0-188.0-0.0","0","0","27742","","null","","","null","20","","","","","","","","","","","","","","","",""
"","ITI","","html-keyboard-response","137","494411","0.0-1.0-189.0","0","0","27742","","null","","","null","20","","","","","","","","","","","","","","","NaN",""
"","S1","","html-keyboard-response","138","494663","0.0-1.0-191.0","0","0","27742","","null","","","null","21","","","","","","","","","","","","","","","",""
"","ISI","","html-keyboard-response","139","495165","0.0-1.0-192.0","0","0","27742","","303","","","68","21","d","","","","","","","","","","","","","","",""
"","S2","","html-keyboard-response","140","495383","0.0-1.0-193.0","0","0","27742","","217","","","75","21","","k","1","21","training","adjacent","CB","3","2","L.jpg","M.jpg","0","0","1","",""
"","feedback","","html-keyboard-response","141","496384","0.0-1.0-195.0-0.0","0","0","27742","","null","","","null","21","","","","","","","","","","","","","","","",""
"","ITI","","html-keyboard-response","142","497384","0.0-1.0-198.0","0","0","27742","","null","","","null","21","","","","","","","","","","","","","","","NaN",""
"","S1","","html-keyboard-response","143","497637","0.0-1.0-200.0","0","0","27742","","null","","","null","22","","","","","","","","","","","","","","","",""
"","ISI","","html-keyboard-response","144","498140","0.0-1.0-201.0","0","0","27742","","124","","","68","22","d","","","","","","","","","","","","","","",""
"","S2","","html-keyboard-response","145","498315","0.0-1.0-202.0","0","0","27742","","173","","","68","22","","d","1","22","training","adjacent","DC","4","3","R.jpg","L.jpg","1","0","0","",""
"","feedback","","html-keyboard-response","146","499318","0.0-1.0-204.0-0.0","0","0","27742","","null","","","null","22","","","","","","","","","","","","","","","",""
"","time_out","","html-keyboard-response","147","501320","0.0-1.0-206.0-0.0","0","0","27742","","null","","","null","22","","","","","","","","","","","","","","","",""
"","ITI","","html-keyboard-response","148","502323","0.0-1.0-207.0","0","0","27742","","null","","","null","22","","","","","","","","","","","","","","","NaN",""
"","S1","","html-keyboard-response","149","502574","0.0-1.0-209.0","0","0","27742","","null","","","null","23","","","","","","","","","","","","","","","",""
"","ISI","","html-keyboard-response","150","503076","0.0-1.0-210.0","0","0","27742","","229","","","68","23","d","","","","","","","","","","","","","","",""
"","S2","","html-keyboard-response","151","503236","0.0-1.0-211.0","0","0","27742","","158","","","68","23","","d","1","23","training","adjacent","CD","3","4","L.jpg","R.jpg","1","1","1","",""
"","feedback","","html-keyboard-response","152","504237","0.0-1.0-213.0-0.0","0","0","27742","","null","","","null","23","","","","","","","","","","","","","","","",""
"","ITI","","html-keyboard-response","153","505240","0.0-1.0-216.0","0","0","27742","","null","","","null","23","","","","","","","","","","","","","","","NaN",""
"","S1","","html-keyboard-response","154","505492","0.0-1.0-218.0","0","0","27742","","null","","","null","24","","","","","","","","","","","","","","","",""
"","ISI","","html-keyboard-response","155","505995","0.0-1.0-219.0","0","0","27742","","299","","","68","24","d","","","","","","","","","","","","","","",""
"","S2","","html-keyboard-response","156","506003","0.0-1.0-220.0","0","0","27742","","7","","","68","24","","d","1","24","training","adjacent","BC","2","3","M.jpg","L.jpg","1","1","1","",""
"","feedback","","html-keyboard-response","157","507005","0.0-1.0-222.0-0.0","0","0","27742","","null","","","null","24","","","","","","","","","","","","","","","",""
"","ITI","","html-keyboard-response","158","508007","0.0-1.0-225.0","0","0","27742","","null","","","null","24","","","","","","","","","","","","","","","NaN",""
"","S1","","html-keyboard-response","159","508257","0.0-1.0-227.0","0","0","27742","","null","","","null","25","","","","","","","","","","","","","","","",""
"","ISI","","html-keyboard-response","160","508759","0.0-1.0-228.0","0","0","27742","","32","","","68","25","d","","","","","","","","","","","","","","",""
"","S2","","html-keyboard-response","161","508918","0.0-1.0-229.0","0","0","27742","","157","","","68","25","","d","1","25","training","adjacent","GF","7","6","P.jpg","N.jpg","1","0","0","",""
"","feedback","","html-keyboard-response","162","509922","0.0-1.0-231.0-0.0","0","0","27742","","null","","","null","25","","","","","","","","","","","","","","","",""
"","time_out","","html-keyboard-response","163","511924","0.0-1.0-233.0-0.0","0","0","27742","","null","","","null","25","","","","","","","","","","","","","","","",""
"","ITI","","html-keyboard-response","164","512928","0.0-1.0-234.0","0","0","27742","","590","","","68","25","","","","","","","","","","","","","","","d",""
"","S1","","html-keyboard-response","165","513192","0.0-1.0-236.0","0","0","27742","","null","","","null","26","","","","","","","","","","","","","","","",""
"","ISI","","html-keyboard-response","166","513693","0.0-1.0-237.0","0","0","27742","","306","","","68","26","d","","","","","","","","","","","","","","",""
"","S2","","html-keyboard-response","167","513945","0.0-1.0-238.0","0","0","27742","","null","","","null","26","","NaN","","","","","","","","","","","","","",""
"","response","","html-keyboard-response","168","514577","0.0-1.0-239.0-0.0","0","0","27742","","631","","","68","26","","","1","26","training","adjacent","CB","3","2","L.jpg","M.jpg","1","0","0","",""
"","feedback","","html-keyboard-response","169","515578","0.0-1.0-240.0-0.0","0","0","27742","","null","","","null","26","","","","","","","","","","","","","","","",""
"","time_out","","html-keyboard-response","170","517580","0.0-1.0-242.0-0.0","0","0","27742","","null","","","null","26","","","","","","","","","","","","","","","",""
"","ITI","","html-keyboard-response","171","518582","0.0-1.0-243.0","0","0","27742","","67","","","68","26","","","","","","","","","","","","","","","d",""
"","S1","","html-keyboard-response","172","518835","0.0-1.0-245.0","0","0","27742","","null","","","null","27","","","","","","","","","","","","","","","",""
"","ISI","","html-keyboard-response","173","519337","0.0-1.0-246.0","0","0","27742","","381","","","68","27","d","","","","","","","","","","","","","","",""
"","S2","","html-keyboard-response","174","519400","0.0-1.0-247.0","0","0","27742","","62","","","68","27","","d","1","27","training","adjacent","FG","6","7","N.jpg","P.jpg","1","1","1","",""
"","feedback","","html-keyboard-response","175","520402","0.0-1.0-249.0-0.0","0","0","27742","","null","","","null","27","","","","","","","","","","","","","","","",""
"","ITI","","html-keyboard-response","176","521403","0.0-1.0-252.0","0","0","27742","","null","","","null","27","","","","","","","","","","","","","","","NaN",""
"","S1","","html-keyboard-response","177","521655","0.0-1.0-254.0","0","0","27742","","null","","","null","28","","","","","","","","","","","","","","","",""
"","ISI","","html-keyboard-response","178","522157","0.0-1.0-255.0","0","0","27742","","284","","","75","28","k","","","","","","","","","","","","","","",""
"","S2","","html-keyboard-response","179","522469","0.0-1.0-256.0","0","0","27742","","null","","","null","28","","NaN","","","","","","","","","","","","","",""
"","response","","html-keyboard-response","180","523099","0.0-1.0-257.0-0.0","0","0","27742","","626","","","75","28","","","1","28","training","adjacent","GF","7","6","P.jpg","N.jpg","0","0","1","",""
"","feedback","","html-keyboard-response","181","524101","0.0-1.0-258.0-0.0","0","0","27742","","null","","","null","28","","","","","","","","","","","","","","","",""
"","ITI","","html-keyboard-response","182","525102","0.0-1.0-261.0","0","0","27742","","null","","","null","28","","","","","","","","","","","","","","","NaN",""
"","S1","","html-keyboard-response","183","525354","0.0-1.0-263.0","0","0","27742","","null","","","null","29","","","","","","","","","","","","","","","",""
"","ISI","","html-keyboard-response","184","525856","0.0-1.0-264.0","0","0","27742","","null","","","null","29","NaN","","","","","","","","","","","","","","",""
"","S2","","html-keyboard-response","185","525992","0.0-1.0-265.0","0","0","27742","","134","","","68","29","","d","1","29","training","adjacent","CB","3","2","L.jpg","M.jpg","1","0","0","",""
"","feedback","","html-keyboard-response","186","526993","0.0-1.0-267.0-0.0","0","0","27742","","null","","","null","29","","","","","","","","","","","","","","","",""
"","time_out","","html-keyboard-response","187","528996","0.0-1.0-269.0-0.0","0","0","27742","","null","","","null","29","","","","","","","","","","","","","","","",""
"","ITI","","html-keyboard-response","188","529996","0.0-1.0-270.0","0","0","27742","","null","","","null","29","","","","","","","","","","","","","","","NaN",""
"","S1","","html-keyboard-response","189","530256","0.0-1.0-272.0","0","0","27742","","null","","","null","30","","","","","","","","","","","","","","","",""
"","ISI","","html-keyboard-response","190","530759","0.0-1.0-273.0","0","0","27742","","469","","","75","30","k","","","","","","","","","","","","","","",""
"","S2","","html-keyboard-response","191","530788","0.0-1.0-274.0","0","0","27742","","28","","","68","30","","d","1","30","training","adjacent","EF","5","6","Q.jpg","N.jpg","1","1","1","",""
"","feedback","","html-keyboard-response","192","531790","0.0-1.0-276.0-0.0","0","0","27742","","null","","","null","30","","","","","","","","","","","","","","","",""
"","ITI","","html-keyboard-response","193","532793","0.0-1.0-279.0","0","0","27742","","null","","","null","30","","","","","","","","","","","","","","","NaN",""
"","S1","","html-keyboard-response","194","533046","0.0-1.0-281.0","0","0","27742","","null","","","null","31","","","","","","","","","","","","","","","",""
"","ISI","","html-keyboard-response","195","533548","0.0-1.0-282.0","0","0","27742","","500","","","68","31","d","","","","","","","","","","","","","","",""
"","S2","","html-keyboard-response","196","533783","0.0-1.0-283.0","0","0","27742","","233","","","68","31","","d","1","31","training","adjacent","FG","6","7","N.jpg","P.jpg","1","1","1","",""
"","feedback","","html-keyboard-response","197","534785","0.0-1.0-285.0-0.0","0","0","27742","","null","","","null","31","","","","","","","","","","","","","","","",""
"","ITI","","html-keyboard-response","198","535798","0.0-1.0-288.0","0","0","27742","","null","","","null","31","","","","","","","","","","","","","","","NaN",""
"","S1","","html-keyboard-response","199","536049","0.0-1.0-290.0","0","0","27742","","null","","","null","32","","","","","","","","","","","","","","","",""
"","ISI","","html-keyboard-response","200","536550","0.0-1.0-291.0","0","0","27742","","null","","","null","32","NaN","","","","","","","","","","","","","","",""
"","S2","","html-keyboard-response","201","536803","0.0-1.0-292.0","0","0","27742","","null","","","null","32","","NaN","","","","","","","","","","","","","",""
"","response","","html-keyboard-response","202","537398","0.0-1.0-293.0-0.0","0","0","27742","","594","","","68","32","","","1","32","training","adjacent","DC","4","3","R.jpg","L.jpg","1","0","0","",""
"","feedback","","html-keyboard-response","203","538401","0.0-1.0-294.0-0.0","0","0","27742","","null","","","null","32","","","","","","","","","","","","","","","",""
"","time_out","","html-keyboard-response","204","540408","0.0-1.0-296.0-0.0","0","0","27742","","null","","","null","32","","","","","","","","","","","","","","","",""
"","ITI","","html-keyboard-response","205","541411","0.0-1.0-297.0","0","0","27742","","90","","","75","32","","","","","","","","","","","","","","","k",""
"","S1","","html-keyboard-response","206","541664","0.0-1.0-299.0","0","0","27742","","null","","","null","33","","","","","","","","","","","","","","","",""
"","ISI","","html-keyboard-response","207","542173","0.0-1.0-300.0","0","0","27742","","null","","","null","33","NaN","","","","","","","","","","","","","","",""
"","S2","","html-keyboard-response","208","542294","0.0-1.0-301.0","0","0","27742","","117","","","68","33","","d","1","33","training","adjacent","CD","3","4","L.jpg","R.jpg","1","1","1","",""
"","feedback","","html-keyboard-response","209","543296","0.0-1.0-303.0-0.0","0","0","27742","","null","","","null","33","","","","","","","","","","","","","","","",""
"","ITI","","html-keyboard-response","210","544304","0.0-1.0-306.0","0","0","27742","","null","","","null","33","","","","","","","","","","","","","","","NaN",""
"","S1","","html-keyboard-response","211","544557","0.0-1.0-308.0","0","0","27742","","null","","","null","34","","","","","","","","","","","","","","","",""
"","ISI","","html-keyboard-response","212","545060","0.0-1.0-309.0","0","0","27742","","485","","","75","34","k","","","","","","","","","","","","","","",""
"","S2","","html-keyboard-response","213","545119","0.0-1.0-310.0","0","0","27742","","58","","","68","34","","d","1","34","training","adjacent","FE","6","5","N.jpg","Q.jpg","1","0","0","",""
"","feedback","","html-keyboard-response","214","546122","0.0-1.0-312.0-0.0","0","0","27742","","null","","","null","34","","","","","","","","","","","","","","","",""
"","time_out","","html-keyboard-response","215","548124","0.0-1.0-314.0-0.0","0","0","27742","","null","","","null","34","","","","","","","","","","","","","","","",""
"","ITI","","html-keyboard-response","216","549125","0.0-1.0-315.0","0","0","27742","","591","","","68","34","","","","","","","","","","","","","","","d",""
"","S1","","html-keyboard-response","217","549377","0.0-1.0-317.0","0","0","27742","","null","","","null","35","","","","","","","","","","","","","","","",""
"","ISI","","html-keyboard-response","218","549879","0.0-1.0-318.0","0","0","27742","","354","","","68","35","d","","","","","","","","","","","","","","",""
"","S2","","html-keyboard-response","219","549961","0.0-1.0-319.0","0","0","27742","","80","","","68","35","","d","1","35","training","adjacent","CD","3","4","L.jpg","R.jpg","1","1","1","",""
"","feedback","","html-keyboard-response","220","550963","0.0-1.0-321.0-0.0","0","0","27742","","null","","","null","35","","","","","","","","","","","","","","","",""
"","ITI","","html-keyboard-response","221","551966","0.0-1.0-324.0","0","0","27742","","279","","","75","35","","","","","","","","","","","","","","","k",""
"","S1","","html-keyboard-response","222","552217","0.0-1.0-326.0","0","0","27742","","null","","","null","36","","","","","","","","","","","","","","","",""
"","ISI","","html-keyboard-response","223","552719","0.0-1.0-327.0","0","0","27742","","470","","","75","36","k","","","","","","","","","","","","","","",""
"","S2","","html-keyboard-response","224","552875","0.0-1.0-328.0","0","0","27742","","154","","","75","36","","k","1","36","training","adjacent","CD","3","4","L.jpg","R.jpg","0","1","0","",""
"","feedback","","html-keyboard-response","225","553876","0.0-1.0-330.0-0.0","0","0","27742","","null","","","null","36","","","","","","","","","","","","","","","",""
"","time_out","","html-keyboard-response","226","555877","0.0-1.0-332.0-0.0","0","0","27742","","null","","","null","36","","","","","","","","","","","","","","","",""
"","ITI","","html-keyboard-response","227","556879","0.0-1.0-333.0","0","0","27742","","null","","","null","36","","","","","","","","","","","","","","","NaN",""
"","S1","","html-keyboard-response","228","557131","0.0-1.0-335.0","0","0","27742","","null","","","null","37","","","","","","","","","","","","","","","",""
"","ISI","","html-keyboard-response","229","557634","0.0-1.0-336.0","0","0","27742","","372","","","68","37","d","","","","","","","","","","","","","","",""
"","S2","","html-keyboard-response","230","557731","0.0-1.0-337.0","0","0","27742","","96","","","68","37","","d","1","37","training","adjacent","BA","2","1","M.jpg","O.jpg","1","0","0","",""
"","feedback","","html-keyboard-response","231","558734","0.0-1.0-339.0-0.0","0","0","27742","","null","","","null","37","","","","","","","","","","","","","","","",""
"","time_out","","html-keyboard-response","232","560747","0.0-1.0-341.0-0.0","0","0","27742","","null","","","null","37","","","","","","","","","","","","","","","",""
"","ITI","","html-keyboard-response","233","561749","0.0-1.0-342.0","0","0","27742","","null","","","null","37","","","","","","","","","","","","","","","NaN",""
"","S1","","html-keyboard-response","234","562001","0.0-1.0-344.0","0","0","27742","","null","","","null","38","","","","","","","","","","","","","","","",""
"","ISI","","html-keyboard-response","235","562502","0.0-1.0-345.0","0","0","27742","","null","","","null","38","NaN","","","","","","","","","","","","","","",""
"","S2","","html-keyboard-response","236","562596","0.0-1.0-346.0","0","0","27742","","91","","","68","38","","d","1","38","training","adjacent","DE","4","5","R.jpg","Q.jpg","1","1","1","",""
"","feedback","","html-keyboard-response","237","563598","0.0-1.0-348.0-0.0","0","0","27742","","null","","","null","38","","","","","","","","","","","","","","","",""
"","ITI","","html-keyboard-response","238","564598","0.0-1.0-351.0","0","0","27742","","null","","","null","38","","","","","","","","","","","","","","","NaN",""
"","S1","","html-keyboard-response","239","564851","0.0-1.0-353.0","0","0","27742","","null","","","null","39","","","","","","","","","","","","","","","",""
"","ISI","","html-keyboard-response","240","565353","0.0-1.0-354.0","0","0","27742","","null","","","null","39","NaN","","","","","","","","","","","","","","",""
"","S2","","html-keyboard-response","241","565361","0.0-1.0-355.0","0","0","27742","","6","","","68","39","","d","1","39","training","adjacent","ED","5","4","Q.jpg","R.jpg","1","0","0","",""
"","feedback","","html-keyboard-response","242","566363","0.0-1.0-357.0-0.0","0","0","27742","","null","","","null","39","","","","","","","","","","","","","","","",""
"","time_out","","html-keyboard-response","243","568365","0.0-1.0-359.0-0.0","0","0","27742","","null","","","null","39","","","","","","","","","","","","","","","",""
"","ITI","","html-keyboard-response","244","569367","0.0-1.0-360.0","0","0","27742","","null","","","null","39","","","","","","","","","","","","","","","NaN",""
"","S1","","html-keyboard-response","245","569619","0.0-1.0-362.0","0","0","27742","","null","","","null","40","","","","","","","","","","","","","","","",""
"","ISI","","html-keyboard-response","246","570120","0.0-1.0-363.0","0","0","27742","","388","","","75","40","k","","","","","","","","","","","","","","",""
"","S2","","html-keyboard-response","247","570173","0.0-1.0-364.0","0","0","27742","","52","","","75","40","","k","1","40","training","adjacent","FG","6","7","N.jpg","P.jpg","0","1","0","",""
"","feedback","","html-keyboard-response","248","571175","0.0-1.0-366.0-0.0","0","0","27742","","null","","","null","40","","","","","","","","","","","","","","","",""
"","time_out","","html-keyboard-response","249","573177","0.0-1.0-368.0-0.0","0","0","27742","","null","","","null","40","","","","","","","","","","","","","","","",""
"","ITI","","html-keyboard-response","250","574180","0.0-1.0-369.0","0","0","27742","","null","","","null","40","","","","","","","","","","","","","","","NaN",""
"","S1","","html-keyboard-response","251","574432","0.0-1.0-371.0","0","0","27742","","null","","","null","41","","","","","","","","","","","","","","","",""
"","ISI","","html-keyboard-response","252","574933","0.0-1.0-372.0","0","0","27742","","425","","","68","41","d","","","","","","","","","","","","","","",""
"","S2","","html-keyboard-response","253","575071","0.0-1.0-373.0","0","0","27742","","135","","","68","41","","d","1","41","training","adjacent","DC","4","3","R.jpg","L.jpg","1","0","0","",""
"","feedback","","html-keyboard-response","254","576072","0.0-1.0-375.0-0.0","0","0","27742","","null","","","null","41","","","","","","","","","","","","","","","",""
"","time_out","","html-keyboard-response","255","578074","0.0-1.0-377.0-0.0","0","0","27742","","null","","","null","41","","","","","","","","","","","","","","","",""
"","ITI","","html-keyboard-response","256","579077","0.0-1.0-378.0","0","0","27742","","null","","","null","41","","","","","","","","","","","","","","","NaN",""
"","S1","","html-keyboard-response","257","579329","0.0-1.0-380.0","0","0","27742","","null","","","null","42","","","","","","","","","","","","","","","",""
"","ISI","","html-keyboard-response","258","579830","0.0-1.0-381.0","0","0","27742","","305","","","68","42","d","","","","","","","","","","","","","","",""
"","S2","","html-keyboard-response","259","579839","0.0-1.0-382.0","0","0","27742","","7","","","68","42","","d","1","42","training","adjacent","BC","2","3","M.jpg","L.jpg","1","1","1","",""
"","feedback","","html-keyboard-response","260","580841","0.0-1.0-384.0-0.0","0","0","27742","","null","","","null","42","","","","","","","","","","","","","","","",""
"","ITI","","html-keyboard-response","261","581842","0.0-1.0-387.0","0","0","27742","","918","","","75","42","","","","","","","","","","","","","","","k",""
"","S1","","html-keyboard-response","262","582094","0.0-1.0-389.0","0","0","27742","","null","","","null","43","","","","","","","","","","","","","","","",""
"","ISI","","html-keyboard-response","263","582595","0.0-1.0-390.0","0","0","27742","","null","","","null","43","NaN","","","","","","","","","","","","","","",""
"","S2","","html-keyboard-response","264","582848","0.0-1.0-391.0","0","0","27742","","null","","","null","43","","NaN","","","","","","","","","","","","","",""
"","response","","html-keyboard-response","265","582999","0.0-1.0-392.0-0.0","0","0","27742","","149","","","75","43","","","1","43","training","adjacent","ED","5","4","Q.jpg","R.jpg","0","0","1","",""
"","feedback","","html-keyboard-response","266","584002","0.0-1.0-393.0-0.0","0","0","27742","","null","","","null","43","","","","","","","","","","","","","","","",""
"","ITI","","html-keyboard-response","267","585004","0.0-1.0-396.0","0","0","27742","","null","","","null","43","","","","","","","","","","","","","","","NaN",""
"","S1","","html-keyboard-response","268","585256","0.0-1.0-398.0","0","0","27742","","null","","","null","44","","","","","","","","","","","","","","","",""
"","ISI","","html-keyboard-response","269","585757","0.0-1.0-399.0","0","0","27742","","452","","","75","44","k","","","","","","","","","","","","","","",""
"","S2","","html-keyboard-response","270","585887","0.0-1.0-400.0","0","0","27742","","128","","","75","44","","k","1","44","training","adjacent","BC","2","3","M.jpg","L.jpg","0","1","0","",""
"","feedback","","html-keyboard-response","271","586890","0.0-1.0-402.0-0.0","0","0","27742","","null","","","null","44","","","","","","","","","","","","","","","",""
"","time_out","","html-keyboard-response","272","588958","0.0-1.0-404.0-0.0","0","0","27742","","null","","","null","44","","","","","","","","","","","","","","","",""
"","ITI","","html-keyboard-response","273","589960","0.0-1.0-405.0","0","0","27742","","78","","","75","44","","","","","","","","","","","","","","","k",""
"","S1","","html-keyboard-response","274","590213","0.0-1.0-407.0","0","0","27742","","null","","","null","45","","","","","","","","","","","","","","","",""
"","ISI","","html-keyboard-response","275","590714","0.0-1.0-408.0","0","0","27742","","56","","","68","45","d","","","","","","","","","","","","","","",""
"","S2","","html-keyboard-response","276","590851","0.0-1.0-409.0","0","0","27742","","135","","","68","45","","d","1","45","training","adjacent","CB","3","2","L.jpg","M.jpg","1","0","0","",""
"","feedback","","html-keyboard-response","277","591852","0.0-1.0-411.0-0.0","0","0","27742","","null","","","null","45","","","","","","","","","","","","","","","",""
"","time_out","","html-keyboard-response","278","593855","0.0-1.0-413.0-0.0","0","0","27742","","null","","","null","45","","","","","","","","","","","","","","","",""
"","ITI","","html-keyboard-response","279","594857","0.0-1.0-414.0","0","0","27742","","27","","","68","45","","","","","","","","","","","","","","","d",""
"","S1","","html-keyboard-response","280","595108","0.0-1.0-416.0","0","0","27742","","null","","","null","46","","","","","","","","","","","","","","","",""
"","ISI","","html-keyboard-response","281","595610","0.0-1.0-417.0","0","0","27742","","255","","","68","46","d","","","","","","","","","","","","","","",""
"","S2","","html-keyboard-response","282","595794","0.0-1.0-418.0","0","0","27742","","183","","","68","46","","d","1","46","training","adjacent","DE","4","5","R.jpg","Q.jpg","1","1","1","",""
"","feedback","","html-keyboard-response","283","596795","0.0-1.0-420.0-0.0","0","0","27742","","null","","","null","46","","","","","","","","","","","","","","","",""
"","ITI","","html-keyboard-response","284","597798","0.0-1.0-423.0","0","0","27742","","365","","","68","46","","","","","","","","","","","","","","","d",""
"","S1","","html-keyboard-response","285","598050","0.0-1.0-425.0","0","0","27742","","null","","","null","47","","","","","","","","","","","","","","","",""
"","ISI","","html-keyboard-response","286","598553","0.0-1.0-426.0","0","0","27742","","29","","","68","47","d","","","","","","","","","","","","","","",""
"","S2","","html-keyboard-response","287","598589","0.0-1.0-427.0","0","0","27742","","35","","","68","47","","d","1","47","training","adjacent","AB","1","2","O.jpg","M.jpg","1","1","1","",""
"","feedback","","html-keyboard-response","288","599591","0.0-1.0-429.0-0.0","0","0","27742","","null","","","null","47","","","","","","","","","","","","","","","",""
"","ITI","","html-keyboard-response","289","600593","0.0-1.0-432.0","0","0","27742","","132","","","75","47","","","","","","","","","","","","","","","k",""
"","block_over","","html-keyboard-response","290","613691","0.0-1.0-433.0-0.0","0","0","27742","","13096","","","32","47","","","","","","","","","","","","","","","",""
"","S1","","html-keyboard-response","291","613944","0.0-1.0-434.0","0","0","27742","","null","","","null","48","","","","","","","","","","","","","","","",""
"","ISI","","html-keyboard-response","292","614446","0.0-1.0-435.0","0","0","27742","","null","","","null","48","NaN","","","","","","","","","","","","","","",""
"","S2","","html-keyboard-response","293","614696","0.0-1.0-436.0","0","0","27742","","null","","","null","48","","NaN","","","","","","","","","","","","","",""
"","response","","html-keyboard-response","294","615308","0.0-1.0-437.0-0.0","0","0","27742","","608","","","68","48","","","2","48","training","adjacent","EF","5","6","Q.jpg","N.jpg","1","1","1","",""
"","feedback","","html-keyboard-response","295","616310","0.0-1.0-438.0-0.0","0","0","27742","","null","","","null","48","","","","","","","","","","","","","","","",""
"","ITI","","html-keyboard-response","296","617311","0.0-1.0-441.0","0","0","27742","","null","","","null","48","","","","","","","","","","","","","","","NaN",""
"","S1","","html-keyboard-response","297","617563","0.0-1.0-443.0","0","0","27742","","null","","","null","49","","","","","","","","","","","","","","","",""
"","ISI","","html-keyboard-response","298","618065","0.0-1.0-444.0","0","0","27742","","14","","","68","49","d","","","","","","","","","","","","","","",""
"","S2","","html-keyboard-response","299","618132","0.0-1.0-445.0","0","0","27742","","64","","","68","49","","d","2","49","training","adjacent","CD","3","4","L.jpg","R.jpg","1","1","1","",""
"","feedback","","html-keyboard-response","300","619134","0.0-1.0-447.0-0.0","0","0","27742","","null","","","null","49","","","","","","","","","","","","","","","",""
"","ITI","","html-keyboard-response","301","620137","0.0-1.0-450.0","0","0","27742","","null","","","null","49","","","","","","","","","","","","","","","NaN",""
"","S1","","html-keyboard-response","302","620482","0.0-1.0-452.0","0","0","27742","","null","","","null","50","","","","","","","","","","","","","","","",""
"","ISI","","html-keyboard-response","303","620984","0.0-1.0-453.0","0","0","27742","","257","","","68","50","d","","","","","","","","","","","","","","",""
"","S2","","html-keyboard-response","304","621082","0.0-1.0-454.0","0","0","27742","","96","","","68","50","","d","2","50","training","adjacent","CB","3","2","L.jpg","M.jpg","1","0","0","",""
"","feedback","","html-keyboard-response","305","622084","0.0-1.0-456.0-0.0","0","0","27742","","null","","","null","50","","","","","","","","","","","","","","","",""
"","time_out","","html-keyboard-response","306","624110","0.0-1.0-458.0-0.0","0","0","27742","","null","","","null","50","","","","","","","","","","","","","","","",""
"","ITI","","html-keyboard-response","307","625113","0.0-1.0-459.0","0","0","27742","","46","","","68","50","","","","","","","","","","","","","","","d",""
"","S1","","html-keyboard-response","308","625365","0.0-1.0-461.0","0","0","27742","","null","","","null","51","","","","","","","","","","","","","","","",""
"","ISI","","html-keyboard-response","309","625867","0.0-1.0-462.0","0","0","27742","","181","","","68","51","d","","","","","","","","","","","","","","",""
"","S2","","html-keyboard-response","310","625903","0.0-1.0-463.0","0","0","27742","","34","","","68","51","","d","2","51","training","adjacent","EF","5","6","Q.jpg","N.jpg","1","1","1","",""
"","feedback","","html-keyboard-response","311","626909","0.0-1.0-465.0-0.0","0","0","27742","","null","","","null","51","","","","","","","","","","","","","","","",""
"","ITI","","html-keyboard-response","312","627911","0.0-1.0-468.0","0","0","27742","","134","","","68","51","","","","","","","","","","","","","","","d",""
"","S1","","html-keyboard-response","313","628256","0.0-1.0-470.0","0","0","27742","","null","","","null","52","","","","","","","","","","","","","","","",""
"","ISI","","html-keyboard-response","314","628758","0.0-1.0-471.0","0","0","27742","","12","","","68","52","d","","","","","","","","","","","","","","",""
"","S2","","html-keyboard-response","315","628886","0.0-1.0-472.0","0","0","27742","","126","","","68","52","","d","2","52","training","adjacent","CB","3","2","L.jpg","M.jpg","1","0","0","",""
"","feedback","","html-keyboard-response","316","629915","0.0-1.0-474.0-0.0","0","0","27742","","null","","","null","52","","","","","","","","","","","","","","","",""
"","time_out","","html-keyboard-response","317","631915","0.0-1.0-476.0-0.0","0","0","27742","","null","","","null","52","","","","","","","","","","","","","","","",""
"","ITI","","html-keyboard-response","318","632918","0.0-1.0-477.0","0","0","27742","","447","","","68","52","","","","","","","","","","","","","","","d",""
"","S1","","html-keyboard-response","319","633171","0.0-1.0-479.0","0","0","27742","","null","","","null","53","","","","","","","","","","","","","","","",""
"","ISI","","html-keyboard-response","320","633672","0.0-1.0-480.0","0","0","27742","","94","","","68","53","d","","","","","","","","","","","","","","",""
"","S2","","html-keyboard-response","321","633862","0.0-1.0-481.0","0","0","27742","","188","","","68","53","","d","2","53","training","adjacent","DE","4","5","R.jpg","Q.jpg","1","1","1","",""
"","feedback","","html-keyboard-response","322","634942","0.0-1.0-483.0-0.0","0","0","27742","","null","","","null","53","","","","","","","","","","","","","","","",""
"","ITI","","html-keyboard-response","323","635944","0.0-1.0-486.0","0","0","27742","","137","","","68","53","","","","","","","","","","","","","","","d",""
"","S1","","html-keyboard-response","324","636197","0.0-1.0-488.0","0","0","27742","","null","","","null","54","","","","","","","","","","","","","","","",""
"","ISI","","html-keyboard-response","325","636698","0.0-1.0-489.0","0","0","27742","","19","","","68","54","d","","","","","","","","","","","","","","",""
"","S2","","html-keyboard-response","326","636785","0.0-1.0-490.0","0","0","27742","","84","","","68","54","","d","2","54","training","adjacent","BC","2","3","M.jpg","L.jpg","1","1","1","",""
"","feedback","","html-keyboard-response","327","637787","0.0-1.0-492.0-0.0","0","0","27742","","null","","","null","54","","","","","","","","","","","","","","","",""
"","ITI","","html-keyboard-response","328","638789","0.0-1.0-495.0","0","0","27742","","139","","","68","54","","","","","","","","","","","","","","","d",""
"","S1","","html-keyboard-response","329","639042","0.0-1.0-497.0","0","0","27742","","null","","","null","55","","","","","","","","","","","","","","","",""
"","ISI","","html-keyboard-response","330","639543","0.0-1.0-498.0","0","0","27742","","120","","","68","55","d","","","","","","","","","","","","","","",""
"","S2","","html-keyboard-response","331","639577","0.0-1.0-499.0","0","0","27742","","32","","","68","55","","d","2","55","training","adjacent","FG","6","7","N.jpg","P.jpg","1","1","1","",""
"","feedback","","html-keyboard-response","332","640579","0.0-1.0-501.0-0.0","0","0","27742","","null","","","null","55","","","","","","","","","","","","","","","",""
"","ITI","","html-keyboard-response","333","641582","0.0-1.0-504.0","0","0","27742","","119","","","68","55","","","","","","","","","","","","","","","d",""
"","S1","","html-keyboard-response","334","641835","0.0-1.0-506.0","0","0","27742","","null","","","null","56","","","","","","","","","","","","","","","",""
"","ISI","","html-keyboard-response","335","642336","0.0-1.0-507.0","0","0","27742","","63","","","68","56","d","","","","","","","","","","","","","","",""
"","S2","","html-keyboard-response","336","642478","0.0-1.0-508.0","0","0","27742","","140","","","68","56","","d","2","56","training","adjacent","DE","4","5","R.jpg","Q.jpg","1","1","1","",""
"","feedback","","html-keyboard-response","337","643479","0.0-1.0-510.0-0.0","0","0","27742","","null","","","null","56","","","","","","","","","","","","","","","",""
"","ITI","","html-keyboard-response","338","644481","0.0-1.0-513.0","0","0","27742","","125","","","68","56","","","","","","","","","","","","","","","d",""
"","S1","","html-keyboard-response","339","644734","0.0-1.0-515.0","0","0","27742","","null","","","null","57","","","","","","","","","","","","","","","",""
"","ISI","","html-keyboard-response","340","645234","0.0-1.0-516.0","0","0","27742","","171","","","68","57","d","","","","","","","","","","","","","","",""
"","S2","","html-keyboard-response","341","645343","0.0-1.0-517.0","0","0","27742","","107","","","68","57","","d","2","57","training","adjacent","DC","4","3","R.jpg","L.jpg","1","0","0","",""
"","feedback","","html-keyboard-response","342","646345","0.0-1.0-519.0-0.0","0","0","27742","","null","","","null","57","","","","","","","","","","","","","","","",""
"","time_out","","html-keyboard-response","343","648346","0.0-1.0-521.0-0.0","0","0","27742","","null","","","null","57","","","","","","","","","","","","","","","",""
"","ITI","","html-keyboard-response","344","649346","0.0-1.0-522.0","0","0","27742","","172","","","68","57","","","","","","","","","","","","","","","d",""
"","S1","","html-keyboard-response","345","649610","0.0-1.0-524.0","0","0","27742","","null","","","null","58","","","","","","","","","","","","","","","",""
"","ISI","","html-keyboard-response","346","650112","0.0-1.0-525.0","0","0","27742","","196","","","68","58","d","","","","","","","","","","","","","","",""
"","S2","","html-keyboard-response","347","650202","0.0-1.0-526.0","0","0","27742","","89","","","68","58","","d","2","58","training","adjacent","FE","6","5","N.jpg","Q.jpg","1","0","0","",""
"","feedback","","html-keyboard-response","348","651205","0.0-1.0-528.0-0.0","0","0","27742","","null","","","null","58","","","","","","","","","","","","","","","",""
"","time_out","","html-keyboard-response","349","653206","0.0-1.0-530.0-0.0","0","0","27742","","null","","","null","58","","","","","","","","","","","","","","","",""
"","ITI","","html-keyboard-response","350","654207","0.0-1.0-531.0","0","0","27742","","19","","","68","58","","","","","","","","","","","","","","","d",""
"","S1","","html-keyboard-response","351","654459","0.0-1.0-533.0","0","0","27742","","null","","","null","59","","","","","","","","","","","","","","","",""
"","ISI","","html-keyboard-response","352","654962","0.0-1.0-534.0","0","0","27742","","98","","","68","59","d","","","","","","","","","","","","","","",""
"","S2","","html-keyboard-response","353","655151","0.0-1.0-535.0","0","0","27742","","188","","","68","59","","d","2","59","training","adjacent","BA","2","1","M.jpg","O.jpg","1","0","0","",""
"","feedback","","html-keyboard-response","354","656157","0.0-1.0-537.0-0.0","0","0","27742","","null","","","null","59","","","","","","","","","","","","","","","",""
"","time_out","","html-keyboard-response","355","658158","0.0-1.0-539.0-0.0","0","0","27742","","null","","","null","59","","","","","","","","","","","","","","","",""
"","ITI","","html-keyboard-response","356","659163","0.0-1.0-540.0","0","0","27742","","189","","","68","59","","","","","","","","","","","","","","","d",""
"","S1","","html-keyboard-response","357","659415","0.0-1.0-542.0","0","0","27742","","null","","","null","60","","","","","","","","","","","","","","","",""
"","ISI","","html-keyboard-response","358","659917","0.0-1.0-543.0","0","0","27742","","13","","","68","60","d","","","","","","","","","","","","","","",""
"","S2","","html-keyboard-response","359","660018","0.0-1.0-544.0","0","0","27742","","99","","","68","60","","d","2","60","training","adjacent","BC","2","3","M.jpg","L.jpg","1","1","1","",""
"","feedback","","html-keyboard-response","360","661019","0.0-1.0-546.0-0.0","0","0","27742","","null","","","null","60","","","","","","","","","","","","","","","",""
"","ITI","","html-keyboard-response","361","662021","0.0-1.0-549.0","0","0","27742","","68","","","68","60","","","","","","","","","","","","","","","d",""
"","S1","","html-keyboard-response","362","662272","0.0-1.0-551.0","0","0","27742","","null","","","null","61","","","","","","","","","","","","","","","",""
"","ISI","","html-keyboard-response","363","662774","0.0-1.0-552.0","0","0","27742","","66","","","68","61","d","","","","","","","","","","","","","","",""
"","S2","","html-keyboard-response","364","662933","0.0-1.0-553.0","0","0","27742","","158","","","68","61","","d","2","61","training","adjacent","DC","4","3","R.jpg","L.jpg","1","0","0","",""
"","feedback","","html-keyboard-response","365","663935","0.0-1.0-555.0-0.0","0","0","27742","","null","","","null","61","","","","","","","","","","","","","","","",""
"","time_out","","html-keyboard-response","366","665940","0.0-1.0-557.0-0.0","0","0","27742","","null","","","null","61","","","","","","","","","","","","","","","",""
"","ITI","","html-keyboard-response","367","666941","0.0-1.0-558.0","0","0","27742","","167","","","68","61","","","","","","","","","","","","","","","d",""
"","S1","","html-keyboard-response","368","667196","0.0-1.0-560.0","0","0","27742","","null","","","null","62","","","","","","","","","","","","","","","",""
"","ISI","","html-keyboard-response","369","667697","0.0-1.0-561.0","0","0","27742","","2","","","68","62","d","","","","","","","","","","","","","","",""
"","S2","","html-keyboard-response","370","667846","0.0-1.0-562.0","0","0","27742","","148","","","68","62","","d","2","62","training","adjacent","DC","4","3","R.jpg","L.jpg","1","0","0","",""
"","feedback","","html-keyboard-response","371","668848","0.0-1.0-564.0-0.0","0","0","27742","","null","","","null","62","","","","","","","","","","","","","","","",""
"","time_out","","html-keyboard-response","372","670850","0.0-1.0-566.0-0.0","0","0","27742","","null","","","null","62","","","","","","","","","","","","","","","",""
"","ITI","","html-keyboard-response","373","671851","0.0-1.0-567.0","0","0","27742","","111","","","68","62","","","","","","","","","","","","","","","d",""
"","S1","","html-keyboard-response","374","672105","0.0-1.0-569.0","0","0","27742","","null","","","null","63","","","","","","","","","","","","","","","",""
"","ISI","","html-keyboard-response","375","672606","0.0-1.0-570.0","0","0","27742","","220","","","68","63","d","","","","","","","","","","","","","","",""
"","S2","","html-keyboard-response","376","672788","0.0-1.0-571.0","0","0","27742","","180","","","68","63","","d","2","63","training","adjacent","FG","6","7","N.jpg","P.jpg","1","1","1","",""
"","feedback","","html-keyboard-response","377","673789","0.0-1.0-573.0-0.0","0","0","27742","","null","","","null","63","","","","","","","","","","","","","","","",""
"","ITI","","html-keyboard-response","378","674791","0.0-1.0-576.0","0","0","27742","","18","","","68","63","","","","","","","","","","","","","","","d",""
"","S1","","html-keyboard-response","379","675043","0.0-1.0-578.0","0","0","27742","","null","","","null","64","","","","","","","","","","","","","","","",""
"","ISI","","html-keyboard-response","380","675547","0.0-1.0-579.0","0","0","27742","","108","","","68","64","d","","","","","","","","","","","","","","",""
"","S2","","html-keyboard-response","381","675579","0.0-1.0-580.0","0","0","27742","","31","","","68","64","","d","2","64","training","adjacent","ED","5","4","Q.jpg","R.jpg","1","0","0","",""
"","feedback","","html-keyboard-response","382","676581","0.0-1.0-582.0-0.0","0","0","27742","","null","","","null","64","","","","","","","","","","","","","","","",""
"","time_out","","html-keyboard-response","383","678583","0.0-1.0-584.0-0.0","0","0","27742","","null","","","null","64","","","","","","","","","","","","","","","",""
"","ITI","","html-keyboard-response","384","679584","0.0-1.0-585.0","0","0","27742","","51","","","68","64","","","","","","","","","","","","","","","d",""
"","S1","","html-keyboard-response","385","679835","0.0-1.0-587.0","0","0","27742","","null","","","null","65","","","","","","","","","","","","","","","",""
"","ISI","","html-keyboard-response","386","680336","0.0-1.0-588.0","0","0","27742","","112","","","68","65","d","","","","","","","","","","","","","","",""
"","S2","","html-keyboard-response","387","680556","0.0-1.0-589.0","0","0","27742","","219","","","68","65","","d","2","65","training","adjacent","FE","6","5","N.jpg","Q.jpg","1","0","0","",""
"","feedback","","html-keyboard-response","388","681563","0.0-1.0-591.0-0.0","0","0","27742","","null","","","null","65","","","","","","","","","","","","","","","",""
"","time_out","","html-keyboard-response","389","683656","0.0-1.0-593.0-0.0","0","0","27742","","null","","","null","65","","","","","","","","","","","","","","","",""
"","ITI","","html-keyboard-response","390","684657","0.0-1.0-594.0","0","0","27742","","133","","","68","65","","","","","","","","","","","","","","","d",""
"","S1","","html-keyboard-response","391","684909","0.0-1.0-596.0","0","0","27742","","null","","","null","66","","","","","","","","","","","","","","","",""
"","ISI","","html-keyboard-response","392","685411","0.0-1.0-597.0","0","0","27742","","200","","","68","66","d","","","","","","","","","","","","","","",""
"","S2","","html-keyboard-response","393","685591","0.0-1.0-598.0","0","0","27742","","166","","","68","66","","d","2","66","training","adjacent","GF","7","6","P.jpg","N.jpg","1","0","0","",""
"","feedback","","html-keyboard-response","394","686596","0.0-1.0-600.0-0.0","0","0","27742","","null","","","null","66","","","","","","","","","","","","","","","",""
"","time_out","","html-keyboard-response","395","688598","0.0-1.0-602.0-0.0","0","0","27742","","null","","","null","66","","","","","","","","","","","","","","","",""
"","ITI","","html-keyboard-response","396","689610","0.0-1.0-603.0","0","0","27742","","14","","","68","66","","","","","","","","","","","","","","","d",""
"","S1","","html-keyboard-response","397","689863","0.0-1.0-605.0","0","0","27742","","null","","","null","67","","","","","","","","","","","","","","","",""
"","ISI","","html-keyboard-response","398","690365","0.0-1.0-606.0","0","0","27742","","null","","","null","67","NaN","","","","","","","","","","","","","","",""
"","S2","","html-keyboard-response","399","690617","0.0-1.0-607.0","0","0","27742","","null","","","null","67","","NaN","","","","","","","","","","","","","",""
"","response","","html-keyboard-response","400","690688","0.0-1.0-608.0-0.0","0","0","27742","","70","","","68","67","","","2","67","training","adjacent","ED","5","4","Q.jpg","R.jpg","1","0","0","",""
"","feedback","","html-keyboard-response","401","691692","0.0-1.0-609.0-0.0","0","0","27742","","null","","","null","67","","","","","","","","","","","","","","","",""
"","time_out","","html-keyboard-response","402","693693","0.0-1.0-611.0-0.0","0","0","27742","","null","","","null","67","","","","","","","","","","","","","","","",""
"","ITI","","html-keyboard-response","403","694695","0.0-1.0-612.0","0","0","27742","","55","","","75","67","","","","","","","","","","","","","","","k",""
"","S1","","html-keyboard-response","404","694947","0.0-1.0-614.0","0","0","27742","","null","","","null","68","","","","","","","","","","","","","","","",""
"","ISI","","html-keyboard-response","405","695455","0.0-1.0-615.0","0","0","27742","","116","","","75","68","k","","","","","","","","","","","","","","",""
"","S2","","html-keyboard-response","406","695637","0.0-1.0-616.0","0","0","27742","","180","","","75","68","","k","2","68","training","adjacent","ED","5","4","Q.jpg","R.jpg","0","0","1","",""
"","feedback","","html-keyboard-response","407","696639","0.0-1.0-618.0-0.0","0","0","27742","","null","","","null","68","","","","","","","","","","","","","","","",""
"","ITI","","html-keyboard-response","408","697640","0.0-1.0-621.0","0","0","27742","","186","","","75","68","","","","","","","","","","","","","","","k",""
"","S1","","html-keyboard-response","409","697892","0.0-1.0-623.0","0","0","27742","","null","","","null","69","","","","","","","","","","","","","","","",""
"","ISI","","html-keyboard-response","410","698393","0.0-1.0-624.0","0","0","27742","","25","","","75","69","k","","","","","","","","","","","","","","",""
"","S2","","html-keyboard-response","411","698555","0.0-1.0-625.0","0","0","27742","","161","","","75","69","","k","2","69","training","adjacent","AB","1","2","O.jpg","M.jpg","0","1","0","",""
"","feedback","","html-keyboard-response","412","699557","0.0-1.0-627.0-0.0","0","0","27742","","null","","","null","69","","","","","","","","","","","","","","","",""
"","time_out","","html-keyboard-response","413","701559","0.0-1.0-629.0-0.0","0","0","27742","","null","","","null","69","","","","","","","","","","","","","","","",""
"","ITI","","html-keyboard-response","414","702611","0.0-1.0-630.0","0","0","27742","","72","","","68","69","","","","","","","","","","","","","","","d",""
"","S1","","html-keyboard-response","415","702863","0.0-1.0-632.0","0","0","27742","","null","","","null","70","","","","","","","","","","","","","","","",""
"","ISI","","html-keyboard-response","416","703364","0.0-1.0-633.0","0","0","27742","","93","","","68","70","d","","","","","","","","","","","","","","",""
"","S2","","html-keyboard-response","417","703555","0.0-1.0-634.0","0","0","27742","","189","","","68","70","","d","2","70","training","adjacent","EF","5","6","Q.jpg","N.jpg","1","1","1","",""
"","feedback","","html-keyboard-response","418","704556","0.0-1.0-636.0-0.0","0","0","27742","","null","","","null","70","","","","","","","","","","","","","","","",""
"","ITI","","html-keyboard-response","419","705558","0.0-1.0-639.0","0","0","27742","","179","","","75","70","","","","","","","","","","","","","","","k",""
"","S1","","html-keyboard-response","420","705811","0.0-1.0-641.0","0","0","27742","","null","","","null","71","","","","","","","","","","","","","","","",""
"","ISI","","html-keyboard-response","421","706313","0.0-1.0-642.0","0","0","27742","","87","","","75","71","k","","","","","","","","","","","","","","",""
"","S2","","html-keyboard-response","422","706469","0.0-1.0-643.0","0","0","27742","","155","","","75","71","","k","2","71","training","adjacent","GF","7","6","P.jpg","N.jpg","0","0","1","",""
"","feedback","","html-keyboard-response","423","707473","0.0-1.0-645.0-0.0","0","0","27742","","null","","","null","71","","","","","","","","","","","","","","","",""
"","ITI","","html-keyboard-response","424","708474","0.0-1.0-648.0","0","0","27742","","6","","","75","71","","","","","","","","","","","","","","","k",""
"","S1","","html-keyboard-response","425","708727","0.0-1.0-650.0","0","0","27742","","null","","","null","72","","","","","","","","","","","","","","","",""
"","ISI","","html-keyboard-response","426","709229","0.0-1.0-651.0","0","0","27742","","219","","","75","72","k","","","","","","","","","","","","","","",""
"","S2","","html-keyboard-response","427","709384","0.0-1.0-652.0","0","0","27742","","153","","","75","72","","k","2","72","training","adjacent","GF","7","6","P.jpg","N.jpg","0","0","1","",""
"","feedback","","html-keyboard-response","428","710398","0.0-1.0-654.0-0.0","0","0","27742","","null","","","null","72","","","","","","","","","","","","","","","",""
"","ITI","","html-keyboard-response","429","711400","0.0-1.0-657.0","0","0","27742","","84","","","75","72","","","","","","","","","","","","","","","k",""
"","S1","","html-keyboard-response","430","711653","0.0-1.0-659.0","0","0","27742","","null","","","null","73","","","","","","","","","","","","","","","",""
"","ISI","","html-keyboard-response","431","712154","0.0-1.0-660.0","0","0","27742","","153","","","75","73","k","","","","","","","","","","","","","","",""
"","S2","","html-keyboard-response","432","712240","0.0-1.0-661.0","0","0","27742","","79","","","75","73","","k","2","73","training","adjacent","CB","3","2","L.jpg","M.jpg","0","0","1","",""
"","feedback","","html-keyboard-response","433","713242","0.0-1.0-663.0-0.0","0","0","27742","","null","","","null","73","","","","","","","","","","","","","","","",""
"","ITI","","html-keyboard-response","434","714245","0.0-1.0-666.0","0","0","27742","","153","","","75","73","","","","","","","","","","","","","","","k",""
"","S1","","html-keyboard-response","435","714497","0.0-1.0-668.0","0","0","27742","","null","","","null","74","","","","","","","","","","","","","","","",""
"","ISI","","html-keyboard-response","436","715000","0.0-1.0-669.0","0","0","27742","","238","","","75","74","k","","","","","","","","","","","","","","",""
"","S2","","html-keyboard-response","437","715103","0.0-1.0-670.0","0","0","27742","","102","","","75","74","","k","2","74","training","adjacent","CD","3","4","L.jpg","R.jpg","0","1","0","",""
"","feedback","","html-keyboard-response","438","716106","0.0-1.0-672.0-0.0","0","0","27742","","null","","","null","74","","","","","","","","","","","","","","","",""
"","time_out","","html-keyboard-response","439","718106","0.0-1.0-674.0-0.0","0","0","27742","","null","","","null","74","","","","","","","","","","","","","","","",""
"","ITI","","html-keyboard-response","440","719108","0.0-1.0-675.0","0","0","27742","","41","","","75","74","","","","","","","","","","","","","","","k",""
"","S1","","html-keyboard-response","441","719360","0.0-1.0-677.0","0","0","27742","","null","","","null","75","","","","","","","","","","","","","","","",""
"","ISI","","html-keyboard-response","442","719861","0.0-1.0-678.0","0","0","27742","","228","","","75","75","k","","","","","","","","","","","","","","",""
"","S2","","html-keyboard-response","443","720035","0.0-1.0-679.0","0","0","27742","","172","","","75","75","","k","2","75","training","adjacent","BC","2","3","M.jpg","L.jpg","0","1","0","",""
"","feedback","","html-keyboard-response","444","721039","0.0-1.0-681.0-0.0","0","0","27742","","null","","","null","75","","","","","","","","","","","","","","","",""
"","time_out","","html-keyboard-response","445","723040","0.0-1.0-683.0-0.0","0","0","27742","","null","","","null","75","","","","","","","","","","","","","","","",""
"","ITI","","html-keyboard-response","446","724041","0.0-1.0-684.0","0","0","27742","","13","","","68","75","","","","","","","","","","","","","","","d",""
"","S1","","html-keyboard-response","447","724293","0.0-1.0-686.0","0","0","27742","","null","","","null","76","","","","","","","","","","","","","","","",""
"","ISI","","html-keyboard-response","448","724796","0.0-1.0-687.0","0","0","27742","","138","","","68","76","d","","","","","","","","","","","","","","",""
"","S2","","html-keyboard-response","449","724828","0.0-1.0-688.0","0","0","27742","","31","","","68","76","","d","2","76","training","adjacent","DE","4","5","R.jpg","Q.jpg","1","1","1","",""
"","feedback","","html-keyboard-response","450","725830","0.0-1.0-690.0-0.0","0","0","27742","","null","","","null","76","","","","","","","","","","","","","","","",""
"","ITI","","html-keyboard-response","451","726837","0.0-1.0-693.0","0","0","27742","","168","","","75","76","","","","","","","","","","","","","","","k",""
"","S1","","html-keyboard-response","452","727092","0.0-1.0-695.0","0","0","27742","","null","","","null","77","","","","","","","","","","","","","","","",""
"","ISI","","html-keyboard-response","453","727593","0.0-1.0-696.0","0","0","27742","","165","","","75","77","k","","","","","","","","","","","","","","",""
"","S2","","html-keyboard-response","454","727710","0.0-1.0-697.0","0","0","27742","","116","","","75","77","","k","2","77","training","adjacent","EF","5","6","Q.jpg","N.jpg","0","1","0","",""
"","feedback","","html-keyboard-response","455","728712","0.0-1.0-699.0-0.0","0","0","27742","","null","","","null","77","","","","","","","","","","","","","","","",""
"","time_out","","html-keyboard-response","456","730715","0.0-1.0-701.0-0.0","0","0","27742","","null","","","null","77","","","","","","","","","","","","","","","",""
"","ITI","","html-keyboard-response","457","731718","0.0-1.0-702.0","0","0","27742","","9","","","68","77","","","","","","","","","","","","","","","d",""
"","S1","","html-keyboard-response","458","731969","0.0-1.0-704.0","0","0","27742","","null","","","null","78","","","","","","","","","","","","","","","",""
"","ISI","","html-keyboard-response","459","732472","0.0-1.0-705.0","0","0","27742","","54","","","75","78","k","","","","","","","","","","","","","","",""
"","S2","","html-keyboard-response","460","732478","0.0-1.0-706.0","0","0","27742","","4","","","68","78","","d","2","78","training","adjacent","FG","6","7","N.jpg","P.jpg","1","1","1","",""
"","feedback","","html-keyboard-response","461","733480","0.0-1.0-708.0-0.0","0","0","27742","","null","","","null","78","","","","","","","","","","","","","","","",""
"","ITI","","html-keyboard-response","462","734482","0.0-1.0-711.0","0","0","27742","","41","","","75","78","","","","","","","","","","","","","","","k",""
"","S1","","html-keyboard-response","463","734735","0.0-1.0-713.0","0","0","27742","","null","","","null","79","","","","","","","","","","","","","","","",""
"","ISI","","html-keyboard-response","464","735236","0.0-1.0-714.0","0","0","27742","","137","","","75","79","k","","","","","","","","","","","","","","",""
"","S2","","html-keyboard-response","465","735375","0.0-1.0-715.0","0","0","27742","","138","","","75","79","","k","2","79","training","adjacent","FE","6","5","N.jpg","Q.jpg","0","0","1","",""
"","feedback","","html-keyboard-response","466","736378","0.0-1.0-717.0-0.0","0","0","27742","","null","","","null","79","","","","","","","","","","","","","","","",""
"","ITI","","html-keyboard-response","467","737380","0.0-1.0-720.0","0","0","27742","","52","","","75","79","","","","","","","","","","","","","","","k",""
"","S1","","html-keyboard-response","468","737631","0.0-1.0-722.0","0","0","27742","","null","","","null","80","","","","","","","","","","","","","","","",""
"","ISI","","html-keyboard-response","469","738131","0.0-1.0-723.0","0","0","27742","","200","","","68","80","d","","","","","","","","","","","","","","",""
"","S2","","html-keyboard-response","470","738251","0.0-1.0-724.0","0","0","27742","","119","","","68","80","","d","2","80","training","adjacent","DE","4","5","R.jpg","Q.jpg","1","1","1","",""
"","feedback","","html-keyboard-response","471","739263","0.0-1.0-726.0-0.0","0","0","27742","","null","","","null","80","","","","","","","","","","","","","","","",""
"","ITI","","html-keyboard-response","472","740269","0.0-1.0-729.0","0","0","27742","","14","","","75","80","","","","","","","","","","","","","","","k",""
"","S1","","html-keyboard-response","473","740521","0.0-1.0-731.0","0","0","27742","","null","","","null","81","","","","","","","","","","","","","","","",""
"","ISI","","html-keyboard-response","474","741022","0.0-1.0-732.0","0","0","27742","","44","","","75","81","k","","","","","","","","","","","","","","",""
"","S2","","html-keyboard-response","475","741068","0.0-1.0-733.0","0","0","27742","","44","","","75","81","","k","2","81","training","adjacent","BC","2","3","M.jpg","L.jpg","0","1","0","",""
"","feedback","","html-keyboard-response","476","742071","0.0-1.0-735.0-0.0","0","0","27742","","null","","","null","81","","","","","","","","","","","","","","","",""
"","time_out","","html-keyboard-response","477","744072","0.0-1.0-737.0-0.0","0","0","27742","","null","","","null","81","","","","","","","","","","","","","","","",""
"","ITI","","html-keyboard-response","478","745073","0.0-1.0-738.0","0","0","27742","","58","","","68","81","","","","","","","","","","","","","","","d",""
"","S1","","html-keyboard-response","479","745326","0.0-1.0-740.0","0","0","27742","","null","","","null","82","","","","","","","","","","","","","","","",""
"","ISI","","html-keyboard-response","480","745828","0.0-1.0-741.0","0","0","27742","","37","","","68","82","d","","","","","","","","","","","","","","",""
"","S2","","html-keyboard-response","481","745835","0.0-1.0-742.0","0","0","27742","","5","","","68","82","","d","2","82","training","adjacent","AB","1","2","O.jpg","M.jpg","1","1","1","",""
"","feedback","","html-keyboard-response","482","746837","0.0-1.0-744.0-0.0","0","0","27742","","null","","","null","82","","","","","","","","","","","","","","","",""
"","ITI","","html-keyboard-response","483","747839","0.0-1.0-747.0","0","0","27742","","194","","","75","82","","","","","","","","","","","","","","","k",""
"","S1","","html-keyboard-response","484","748094","0.0-1.0-749.0","0","0","27742","","null","","","null","83","","","","","","","","","","","","","","","",""
"","ISI","","html-keyboard-response","485","748610","0.0-1.0-750.0","0","0","27742","","10","","","75","83","k","","","","","","","","","","","","","","",""
"","S2","","html-keyboard-response","486","748862","0.0-1.0-751.0","0","0","27742","","null","","","null","83","","NaN","","","","","","","","","","","","","",""
"","response","","html-keyboard-response","487","750613","0.0-1.0-752.0-0.0","0","0","27742","","null","","","null","83","","","2","83","training","adjacent","FG","6","7","N.jpg","P.jpg","NaN","1","0","",""
"","too_slow_prompt","","html-keyboard-response","488","751614","0.0-1.0-754.0-0.0","1","0","27742","","null","","","null","","","","","","","","","","","","","","","","",""
"","time_out","","html-keyboard-response","489","753615","0.0-1.0-755.0-0.0","0","0","27742","","null","","","null","83","","","","","","","","","","","","","","","",""
"","ITI","","html-keyboard-response","490","754695","0.0-1.0-756.0","0","0","27742","","225","","","68","83","","","","","","","","","","","","","","","d",""
"","S1","","html-keyboard-response","491","754955","0.0-1.0-758.0","0","0","27742","","null","","","null","84","","","","","","","","","","","","","","","",""
"","ISI","","html-keyboard-response","492","755457","0.0-1.0-759.0","0","0","27742","","64","","","68","84","d","","","","","","","","","","","","","","",""
"","S2","","html-keyboard-response","493","755695","0.0-1.0-760.0","0","0","27742","","237","","","68","84","","d","2","84","training","adjacent","AB","1","2","O.jpg","M.jpg","1","1","1","",""
"","feedback","","html-keyboard-response","494","756698","0.0-1.0-762.0-0.0","0","0","27742","","null","","","null","84","","","","","","","","","","","","","","","",""
"","ITI","","html-keyboard-response","495","757699","0.0-1.0-765.0","0","0","27742","","255","","","68","84","","","","","","","","","","","","","","","d",""
"","S1","","html-keyboard-response","496","757950","0.0-1.0-767.0","0","0","27742","","null","","","null","85","","","","","","","","","","","","","","","",""
"","ISI","","html-keyboard-response","497","758452","0.0-1.0-768.0","0","0","27742","","226","","","68","85","d","","","","","","","","","","","","","","",""
"","S2","","html-keyboard-response","498","758642","0.0-1.0-769.0","0","0","27742","","188","","","68","85","","d","2","85","training","adjacent","AB","1","2","O.jpg","M.jpg","1","1","1","",""
"","feedback","","html-keyboard-response","499","759643","0.0-1.0-771.0-0.0","0","0","27742","","null","","","null","85","","","","","","","","","","","","","","","",""
"","ITI","","html-keyboard-response","500","760646","0.0-1.0-774.0","0","0","27742","","229","","","68","85","","","","","","","","","","","","","","","d",""
"","S1","","html-keyboard-response","501","760898","0.0-1.0-776.0","0","0","27742","","null","","","null","86","","","","","","","","","","","","","","","",""
"","ISI","","html-keyboard-response","502","761399","0.0-1.0-777.0","0","0","27742","","196","","","68","86","d","","","","","","","","","","","","","","",""
"","S2","","html-keyboard-response","503","761621","0.0-1.0-778.0","0","0","27742","","220","","","68","86","","d","2","86","training","adjacent","FE","6","5","N.jpg","Q.jpg","1","0","0","",""
"","feedback","","html-keyboard-response","504","762624","0.0-1.0-780.0-0.0","0","0","27742","","null","","","null","86","","","","","","","","","","","","","","","",""
"","time_out","","html-keyboard-response","505","764625","0.0-1.0-782.0-0.0","0","0","27742","","null","","","null","86","","","","","","","","","","","","","","","",""
"","ITI","","html-keyboard-response","506","765628","0.0-1.0-783.0","0","0","27742","","190","","","68","86","","","","","","","","","","","","","","","d",""
"","S1","","html-keyboard-response","507","765882","0.0-1.0-785.0","0","0","27742","","null","","","null","87","","","","","","","","","","","","","","","",""
"","ISI","","html-keyboard-response","508","766396","0.0-1.0-786.0","0","0","27742","","47","","","68","87","d","","","","","","","","","","","","","","",""
"","S2","","html-keyboard-response","509","766401","0.0-1.0-787.0","0","0","27742","","4","","","68","87","","d","2","87","training","adjacent","BA","2","1","M.jpg","O.jpg","1","0","0","",""
"","feedback","","html-keyboard-response","510","767402","0.0-1.0-789.0-0.0","0","0","27742","","null","","","null","87","","","","","","","","","","","","","","","",""
"","time_out","","html-keyboard-response","511","769405","0.0-1.0-791.0-0.0","0","0","27742","","null","","","null","87","","","","","","","","","","","","","","","",""
"","ITI","","html-keyboard-response","512","770408","0.0-1.0-792.0","0","0","27742","","65","","","68","87","","","","","","","","","","","","","","","d",""
"","S1","","html-keyboard-response","513","770665","0.0-1.0-794.0","0","0","27742","","null","","","null","88","","","","","","","","","","","","","","","",""
"","ISI","","html-keyboard-response","514","771169","0.0-1.0-795.0","0","0","27742","","0","","","75","88","k","","","","","","","","","","","","","","",""
"","S2","","html-keyboard-response","515","771288","0.0-1.0-796.0","0","0","27742","","117","","","68","88","","d","2","88","training","adjacent","CD","3","4","L.jpg","R.jpg","1","1","1","",""
"","feedback","","html-keyboard-response","516","772290","0.0-1.0-798.0-0.0","0","0","27742","","null","","","null","88","","","","","","","","","","","","","","","",""
"","ITI","","html-keyboard-response","517","773292","0.0-1.0-801.0","0","0","27742","","153","","","75","88","","","","","","","","","","","","","","","k",""
"","S1","","html-keyboard-response","518","773543","0.0-1.0-803.0","0","0","27742","","null","","","null","89","","","","","","","","","","","","","","","",""
"","ISI","","html-keyboard-response","519","774044","0.0-1.0-804.0","0","0","27742","","148","","","68","89","d","","","","","","","","","","","","","","",""
"","S2","","html-keyboard-response","520","774129","0.0-1.0-805.0","0","0","27742","","83","","","68","89","","d","2","89","training","adjacent","CB","3","2","L.jpg","M.jpg","1","0","0","",""
"","feedback","","html-keyboard-response","521","775131","0.0-1.0-807.0-0.0","0","0","27742","","null","","","null","89","","","","","","","","","","","","","","","",""
"","time_out","","html-keyboard-response","522","777132","0.0-1.0-809.0-0.0","0","0","27742","","null","","","null","89","","","","","","","","","","","","","","","",""
"","ITI","","html-keyboard-response","523","778133","0.0-1.0-810.0","0","0","27742","","75","","","75","89","","","","","","","","","","","","","","","k",""
"","S1","","html-keyboard-response","524","778387","0.0-1.0-812.0","0","0","27742","","null","","","null","90","","","","","","","","","","","","","","","",""
"","ISI","","html-keyboard-response","525","778888","0.0-1.0-813.0","0","0","27742","","219","","","75","90","k","","","","","","","","","","","","","","",""
"","S2","","html-keyboard-response","526","779077","0.0-1.0-814.0","0","0","27742","","185","","","75","90","","k","2","90","training","adjacent","BA","2","1","M.jpg","O.jpg","0","0","1","",""
"","feedback","","html-keyboard-response","527","780082","0.0-1.0-816.0-0.0","0","0","27742","","null","","","null","90","","","","","","","","","","","","","","","",""
"","ITI","","html-keyboard-response","528","781084","0.0-1.0-819.0","0","0","27742","","202","","","75","90","","","","","","","","","","","","","","","k",""
"","S1","","html-keyboard-response","529","781335","0.0-1.0-821.0","0","0","27742","","null","","","null","91","","","","","","","","","","","","","","","",""
"","ISI","","html-keyboard-response","530","781865","0.0-1.0-822.0","0","0","27742","","12","","","75","91","k","","","","","","","","","","","","","","",""
"","S2","","html-keyboard-response","531","781871","0.0-1.0-823.0","0","0","27742","","5","","","75","91","","k","2","91","training","adjacent","GF","7","6","P.jpg","N.jpg","0","0","1","",""
"","feedback","","html-keyboard-response","532","782879","0.0-1.0-825.0-0.0","0","0","27742","","null","","","null","91","","","","","","","","","","","","","","","",""
"","ITI","","html-keyboard-response","533","783883","0.0-1.0-828.0","0","0","27742","","177","","","75","91","","","","","","","","","","","","","","","k",""
"","S1","","html-keyboard-response","534","784135","0.0-1.0-830.0","0","0","27742","","null","","","null","92","","","","","","","","","","","","","","","",""
"","ISI","","html-keyboard-response","535","784637","0.0-1.0-831.0","0","0","27742","","159","","","75","92","k","","","","","","","","","","","","","","",""
"","S2","","html-keyboard-response","536","784758","0.0-1.0-832.0","0","0","27742","","119","","","75","92","","k","2","92","training","adjacent","ED","5","4","Q.jpg","R.jpg","0","0","1","",""
"","feedback","","html-keyboard-response","537","785778","0.0-1.0-834.0-0.0","0","0","27742","","null","","","null","92","","","","","","","","","","","","","","","",""
"","ITI","","html-keyboard-response","538","786781","0.0-1.0-837.0","0","0","27742","","31","","","75","92","","","","","","","","","","","","","","","k",""
"","S1","","html-keyboard-response","539","787033","0.0-1.0-839.0","0","0","27742","","null","","","null","93","","","","","","","","","","","","","","","",""
"","ISI","","html-keyboard-response","540","787602","0.0-1.0-840.0","0","0","27742","","79","","","75","93","k","","","","","","","","","","","","","","",""
"","S2","","html-keyboard-response","541","787633","0.0-1.0-841.0","0","0","27742","","29","","","75","93","","k","2","93","training","adjacent","DC","4","3","R.jpg","L.jpg","0","0","1","",""
"","feedback","","html-keyboard-response","542","788636","0.0-1.0-843.0-0.0","0","0","27742","","null","","","null","93","","","","","","","","","","","","","","","",""
"","ITI","","html-keyboard-response","543","789639","0.0-1.0-846.0","0","0","27742","","75","","","75","93","","","","","","","","","","","","","","","k",""
"","S1","","html-keyboard-response","544","789890","0.0-1.0-848.0","0","0","27742","","null","","","null","94","","","","","","","","","","","","","","","",""
"","ISI","","html-keyboard-response","545","790393","0.0-1.0-849.0","0","0","27742","","235","","","75","94","k","","","","","","","","","","","","","","",""
"","S2","","html-keyboard-response","546","790413","0.0-1.0-850.0","0","0","27742","","18","","","75","94","","k","2","94","training","adjacent","CD","3","4","L.jpg","R.jpg","0","1","0","",""
"","feedback","","html-keyboard-response","547","791416","0.0-1.0-852.0-0.0","0","0","27742","","null","","","null","94","","","","","","","","","","","","","","","",""
"","time_out","","html-keyboard-response","548","793417","0.0-1.0-854.0-0.0","0","0","27742","","null","","","null","94","","","","","","","","","","","","","","","",""
"","ITI","","html-keyboard-response","549","794419","0.0-1.0-855.0","0","0","27742","","67","","","75","94","","","","","","","","","","","","","","","k",""
"","S1","","html-keyboard-response","550","794670","0.0-1.0-857.0","0","0","27742","","null","","","null","95","","","","","","","","","","","","","","","",""
"","ISI","","html-keyboard-response","551","795171","0.0-1.0-858.0","0","0","27742","","4","","","75","95","k","","","","","","","","","","","","","","",""
"","S2","","html-keyboard-response","552","795405","0.0-1.0-859.0","0","0","27742","","232","","","75","95","","k","2","95","training","adjacent","BA","2","1","M.jpg","O.jpg","0","0","1","",""
"","feedback","","html-keyboard-response","553","796407","0.0-1.0-861.0-0.0","0","0","27742","","null","","","null","95","","","","","","","","","","","","","","","",""
"","ITI","","html-keyboard-response","554","797407","0.0-1.0-864.0","0","0","27742","","192","","","75","95","","","","","","","","","","","","","","","k",""
"","block_over","","html-keyboard-response","555","806981","0.0-1.0-865.0-0.0","0","0","27742","","9572","","","32","95","","","","","","","","","","","","","","","",""
"","S1","","html-keyboard-response","556","807234","0.0-1.0-866.0","0","0","27742","","null","","","null","96","","","","","","","","","","","","","","","",""
"","ISI","","html-keyboard-response","557","807735","0.0-1.0-867.0","0","0","27742","","null","","","null","96","NaN","","","","","","","","","","","","","","",""
"","S2","","html-keyboard-response","558","807987","0.0-1.0-868.0","0","0","27742","","null","","","null","96","","NaN","","","","","","","","","","","","","",""
"","response","","html-keyboard-response","559","808298","0.0-1.0-869.0-0.0","0","0","27742","","309","","","68","96","","","3","96","training","adjacent","CD","3","4","L.jpg","R.jpg","1","1","1","",""
"","feedback","","html-keyboard-response","560","809300","0.0-1.0-870.0-0.0","0","0","27742","","null","","","null","96","","","","","","","","","","","","","","","",""
"","ITI","","html-keyboard-response","561","810303","0.0-1.0-873.0","0","0","27742","","6","","","68","96","","","","","","","","","","","","","","","d",""
"","S1","","html-keyboard-response","562","810554","0.0-1.0-875.0","0","0","27742","","null","","","null","97","","","","","","","","","","","","","","","",""
"","ISI","","html-keyboard-response","563","811057","0.0-1.0-876.0","0","0","27742","","62","","","68","97","d","","","","","","","","","","","","","","",""
"","S2","","html-keyboard-response","564","811181","0.0-1.0-877.0","0","0","27742","","123","","","68","97","","d","3","97","training","adjacent","CB","3","2","L.jpg","M.jpg","1","0","0","",""
"","feedback","","html-keyboard-response","565","812183","0.0-1.0-879.0-0.0","0","0","27742","","null","","","null","97","","","","","","","","","","","","","","","",""
"","time_out","","html-keyboard-response","566","814186","0.0-1.0-881.0-0.0","0","0","27742","","null","","","null","97","","","","","","","","","","","","","","","",""
"","ITI","","html-keyboard-response","567","815187","0.0-1.0-882.0","0","0","27742","","194","","","68","97","","","","","","","","","","","","","","","d",""
"","S1","","html-keyboard-response","568","815439","0.0-1.0-884.0","0","0","27742","","null","","","null","98","","","","","","","","","","","","","","","",""
"","ISI","","html-keyboard-response","569","815943","0.0-1.0-885.0","0","0","27742","","20","","","68","98","d","","","","","","","","","","","","","","",""
"","S2","","html-keyboard-response","570","816110","0.0-1.0-886.0","0","0","27742","","166","","","68","98","","d","3","98","training","adjacent","CB","3","2","L.jpg","M.jpg","1","0","0","",""
"","feedback","","html-keyboard-response","571","817113","0.0-1.0-888.0-0.0","0","0","27742","","null","","","null","98","","","","","","","","","","","","","","","",""
"","time_out","","html-keyboard-response","572","819303","0.0-1.0-890.0-0.0","0","0","27742","","null","","","null","98","","","","","","","","","","","","","","","",""
"","ITI","","html-keyboard-response","573","820304","0.0-1.0-891.0","0","0","27742","","2","","","68","98","","","","","","","","","","","","","","","d",""
"","S1","","html-keyboard-response","574","820558","0.0-1.0-893.0","0","0","27742","","null","","","null","99","","","","","","","","","","","","","","","",""
"","ISI","","html-keyboard-response","575","821060","0.0-1.0-894.0","0","0","27742","","140","","","68","99","d","","","","","","","","","","","","","","",""
"","S2","","html-keyboard-response","576","821139","0.0-1.0-895.0","0","0","27742","","78","","","68","99","","d","3","99","training","adjacent","AB","1","2","O.jpg","M.jpg","1","1","1","",""
"","feedback","","html-keyboard-response","577","822141","0.0-1.0-897.0-0.0","0","0","27742","","null","","","null","99","","","","","","","","","","","","","","","",""
"","ITI","","html-keyboard-response","578","823146","0.0-1.0-900.0","0","0","27742","","120","","","68","99","","","","","","","","","","","","","","","d",""
"","S1","","html-keyboard-response","579","823399","0.0-1.0-902.0","0","0","27742","","null","","","null","100","","","","","","","","","","","","","","","",""
"","ISI","","html-keyboard-response","580","823901","0.0-1.0-903.0","0","0","27742","","19","","","68","100","d","","","","","","","","","","","","","","",""
"","S2","","html-keyboard-response","581","824092","0.0-1.0-904.0","0","0","27742","","190","","","68","100","","d","3","100","training","adjacent","FE","6","5","N.jpg","Q.jpg","1","0","0","",""
"","feedback","","html-keyboard-response","582","825096","0.0-1.0-906.0-0.0","0","0","27742","","null","","","null","100","","","","","","","","","","","","","","","",""
"","time_out","","html-keyboard-response","583","827099","0.0-1.0-908.0-0.0","0","0","27742","","null","","","null","100","","","","","","","","","","","","","","","",""
"","ITI","","html-keyboard-response","584","828101","0.0-1.0-909.0","0","0","27742","","233","","","68","100","","","","","","","","","","","","","","","d",""
"","S1","","html-keyboard-response","585","828353","0.0-1.0-911.0","0","0","27742","","null","","","null","101","","","","","","","","","","","","","","","",""
"","ISI","","html-keyboard-response","586","828856","0.0-1.0-912.0","0","0","27742","","25","","","68","101","d","","","","","","","","","","","","","","",""
