"success","ttype","start_time","trial_type","trial_index","time_elapsed","internal_node_id","warning","missed_checkup","PID","view_history","rt","responses","repeat_instructions","key_press","index","keypress_isi","keypress_S2","block","trial_num","phase","group_type","pair_type","S1_stim","S2_stim","S1_img","S2_img","S1_chosen","S1_higher","accuracy","keypress_iti","total_bonus_tally"
"true","full_screen","d03072023hr1752","fullscreen","0","4941","0.0-0.0","0","0","56941","","","","","","","","","","","","","","","","","","","","","",""
"","instructions","","instructions","1","35195","0.0-1.0-0.0-0.0","0","0","56941","[{""page_index"":0,""viewing_time"":3609},{""page_index"":1,""viewing_time"":13575},{""page_index"":2,""viewing_time"":9432},{""page_index"":3,""viewing_time"":3632}]","30248","","","","","","","","","","","","","","","","","","","",""
"","comprehension_check","","survey-multi-choice","2","66530","0.0-1.0-0.0-1.0","0","0","56941","","31327","{""Q0"":""True"",""Q1"":""D"",""Q2"":""Once the second image appears and while the screen 'MAKE A CHOICE' is shown"",""Q3"":""Green mark"",""Q4"":""either D or K""}","1","","","","","","","","","","","","","","","","","",""
"","missed_instruction_checkup","","html-keyboard-response","3","69788","0.0-1.0-0.0-2.0-0.0","0","1","56941","","3250","","","32","","","","","","","","","","","","","","","","",""
"","instructions","","instructions","4","90291","0.0-1.0-0.1-0.1","0","0","56941","[{""page_index"":0,""viewing_time"":4872},{""page_index"":1,""viewing_time"":11009},{""page_index"":2,""viewing_time"":3575},{""page_index"":3,""viewing_time"":1040}]","20496","","","","","","","","","","","","","","","","","","","",""
"","comprehension_check","","survey-multi-choice","5","101354","0.0-1.0-0.1-1.1","0","0","56941","","11055","{""Q0"":""True"",""Q1"":""K"",""Q2"":""Once the second image appears and while the screen 'MAKE A CHOICE' is shown"",""Q3"":""Green mark"",""Q4"":""either D or K""}","0","","","","","","","","","","","","","","","","","",""
"","start_exp","","html-keyboard-response","6","104258","0.0-1.0-1.0","0","0","56941","","2899","","","32","","","","","","","","","","","","","","","","",""
"","S1","","html-keyboard-response","7","104525","0.0-1.0-2.0","0","0","56941","","null","","","null","0","","","","","","","","","","","","","","","",""
"","ISI","","html-keyboard-response","8","105550","0.0-1.0-3.0","0","0","56941","","null","","","null","0","NaN","","","","","","","","","","","","","","",""
"","S2","","html-keyboard-response","9","105813","0.0-1.0-4.0","0","0","56941","","null","","","null","0","","NaN","","","","","","","","","","","","","",""
"","response","","html-keyboard-response","10","106715","0.0-1.0-5.0-0.0","0","0","56941","","896","","","75","0","","","1","0","training","adjacent","DC","4","3","N.jpg","P.jpg","1","0","0","",""
"","feedback","","html-keyboard-response","11","107734","0.0-1.0-6.0-0.0","0","0","56941","","null","","","null","0","","","","","","","","","","","","","","","",""
"","time_out","","html-keyboard-response","12","109738","0.0-1.0-8.0-0.0","0","0","56941","","null","","","null","0","","","","","","","","","","","","","","","",""
"","ITI","","html-keyboard-response","13","110764","0.0-1.0-9.0","0","0","56941","","null","","","null","0","","","","","","","","","","","","","","","NaN",""
"","S1","","html-keyboard-response","14","111027","0.0-1.0-11.0","0","0","56941","","null","","","null","1","","","","","","","","","","","","","","","",""
"","ISI","","html-keyboard-response","15","112046","0.0-1.0-12.0","0","0","56941","","null","","","null","1","NaN","","","","","","","","","","","","","","",""
"","S2","","html-keyboard-response","16","112314","0.0-1.0-13.0","0","0","56941","","null","","","null","1","","NaN","","","","","","","","","","","","","",""
"","response","","html-keyboard-response","17","112898","0.0-1.0-14.0-0.0","0","0","56941","","580","","","68","1","","","1","1","training","adjacent","DE","4","5","N.jpg","R.jpg","0","1","0","",""
"","feedback","","html-keyboard-response","18","113904","0.0-1.0-15.0-0.0","0","0","56941","","null","","","null","1","","","","","","","","","","","","","","","",""
"","time_out","","html-keyboard-response","19","115908","0.0-1.0-17.0-0.0","0","0","56941","","null","","","null","1","","","","","","","","","","","","","","","",""
"","ITI","","html-keyboard-response","20","116926","0.0-1.0-18.0","0","0","56941","","null","","","null","1","","","","","","","","","","","","","","","NaN",""
"","S1","","html-keyboard-response","21","117181","0.0-1.0-20.0","0","0","56941","","null","","","null","2","","","","","","","","","","","","","","","",""
"","ISI","","html-keyboard-response","22","118198","0.0-1.0-21.0","0","0","56941","","null","","","null","2","NaN","","","","","","","","","","","","","","",""
"","S2","","html-keyboard-response","23","118462","0.0-1.0-22.0","0","0","56941","","null","","","null","2","","NaN","","","","","","","","","","","","","",""
"","response","","html-keyboard-response","24","119066","0.0-1.0-23.0-0.0","0","0","56941","","600","","","75","2","","","1","2","training","adjacent","BA","2","1","L.jpg","M.jpg","1","0","0","",""
"","feedback","","html-keyboard-response","25","120089","0.0-1.0-24.0-0.0","0","0","56941","","null","","","null","2","","","","","","","","","","","","","","","",""
"","time_out","","html-keyboard-response","26","122093","0.0-1.0-26.0-0.0","0","0","56941","","null","","","null","2","","","","","","","","","","","","","","","",""
"","ITI","","html-keyboard-response","27","123112","0.0-1.0-27.0","0","0","56941","","null","","","null","2","","","","","","","","","","","","","","","NaN",""
"","S1","","html-keyboard-response","28","123375","0.0-1.0-29.0","0","0","56941","","null","","","null","3","","","","","","","","","","","","","","","",""
"","ISI","","html-keyboard-response","29","124399","0.0-1.0-30.0","0","0","56941","","null","","","null","3","NaN","","","","","","","","","","","","","","",""
"","S2","","html-keyboard-response","30","124663","0.0-1.0-31.0","0","0","56941","","null","","","null","3","","NaN","","","","","","","","","","","","","",""
"","response","","html-keyboard-response","31","125250","0.0-1.0-32.0-0.0","0","0","56941","","583","","","75","3","","","1","3","training","adjacent","CB","3","2","P.jpg","L.jpg","1","0","0","",""
"","feedback","","html-keyboard-response","32","126268","0.0-1.0-33.0-0.0","0","0","56941","","null","","","null","3","","","","","","","","","","","","","","","",""
"","time_out","","html-keyboard-response","33","128273","0.0-1.0-35.0-0.0","0","0","56941","","null","","","null","3","","","","","","","","","","","","","","","",""
"","ITI","","html-keyboard-response","34","129292","0.0-1.0-36.0","0","0","56941","","null","","","null","3","","","","","","","","","","","","","","","NaN",""
"","S1","","html-keyboard-response","35","129560","0.0-1.0-38.0","0","0","56941","","null","","","null","4","","","","","","","","","","","","","","","",""
"","ISI","","html-keyboard-response","36","130578","0.0-1.0-39.0","0","0","56941","","null","","","null","4","NaN","","","","","","","","","","","","","","",""
"","S2","","html-keyboard-response","37","130833","0.0-1.0-40.0","0","0","56941","","null","","","null","4","","NaN","","","","","","","","","","","","","",""
"","response","","html-keyboard-response","38","131291","0.0-1.0-41.0-0.0","0","0","56941","","454","","","68","4","","","1","4","training","adjacent","FE","6","5","O.jpg","R.jpg","0","0","1","",""
"","feedback","","html-keyboard-response","39","132299","0.0-1.0-42.0-0.0","0","0","56941","","null","","","null","4","","","","","","","","","","","","","","","",""
"","ITI","","html-keyboard-response","40","133324","0.0-1.0-45.0","0","0","56941","","null","","","null","4","","","","","","","","","","","","","","","NaN",""
"","S1","","html-keyboard-response","41","133587","0.0-1.0-47.0","0","0","56941","","null","","","null","5","","","","","","","","","","","","","","","",""
"","ISI","","html-keyboard-response","42","134606","0.0-1.0-48.0","0","0","56941","","null","","","null","5","NaN","","","","","","","","","","","","","","",""
"","S2","","html-keyboard-response","43","134860","0.0-1.0-49.0","0","0","56941","","null","","","null","5","","NaN","","","","","","","","","","","","","",""
"","response","","html-keyboard-response","44","135065","0.0-1.0-50.0-0.0","0","0","56941","","202","","","75","5","","","1","5","training","adjacent","BA","2","1","L.jpg","M.jpg","1","0","0","",""
"","feedback","","html-keyboard-response","45","136080","0.0-1.0-51.0-0.0","0","0","56941","","null","","","null","5","","","","","","","","","","","","","","","",""
"","time_out","","html-keyboard-response","46","138085","0.0-1.0-53.0-0.0","0","0","56941","","null","","","null","5","","","","","","","","","","","","","","","",""
"","ITI","","html-keyboard-response","47","139103","0.0-1.0-54.0","0","0","56941","","null","","","null","5","","","","","","","","","","","","","","","NaN",""
"","S1","","html-keyboard-response","48","139373","0.0-1.0-56.0","0","0","56941","","null","","","null","6","","","","","","","","","","","","","","","",""
"","ISI","","html-keyboard-response","49","140391","0.0-1.0-57.0","0","0","56941","","null","","","null","6","NaN","","","","","","","","","","","","","","",""
"","S2","","html-keyboard-response","50","140646","0.0-1.0-58.0","0","0","56941","","null","","","null","6","","NaN","","","","","","","","","","","","","",""
"","response","","html-keyboard-response","51","141578","0.0-1.0-59.0-0.0","0","0","56941","","929","","","68","6","","","1","6","training","adjacent","BC","2","3","L.jpg","P.jpg","0","1","0","",""
"","feedback","","html-keyboard-response","52","142598","0.0-1.0-60.0-0.0","0","0","56941","","null","","","null","6","","","","","","","","","","","","","","","",""
"","time_out","","html-keyboard-response","53","144603","0.0-1.0-62.0-0.0","0","0","56941","","null","","","null","6","","","","","","","","","","","","","","","",""
"","ITI","","html-keyboard-response","54","145621","0.0-1.0-63.0","0","0","56941","","null","","","null","6","","","","","","","","","","","","","","","NaN",""
"","S1","","html-keyboard-response","55","145874","0.0-1.0-65.0","0","0","56941","","null","","","null","7","","","","","","","","","","","","","","","",""
"","ISI","","html-keyboard-response","56","146893","0.0-1.0-66.0","0","0","56941","","null","","","null","7","NaN","","","","","","","","","","","","","","",""
"","S2","","html-keyboard-response","57","147163","0.0-1.0-67.0","0","0","56941","","null","","","null","7","","NaN","","","","","","","","","","","","","",""
"","response","","html-keyboard-response","58","147657","0.0-1.0-68.0-0.0","0","0","56941","","492","","","75","7","","","1","7","training","adjacent","FE","6","5","O.jpg","R.jpg","1","0","0","",""
"","feedback","","html-keyboard-response","59","148667","0.0-1.0-69.0-0.0","0","0","56941","","null","","","null","7","","","","","","","","","","","","","","","",""
"","time_out","","html-keyboard-response","60","150672","0.0-1.0-71.0-0.0","0","0","56941","","null","","","null","7","","","","","","","","","","","","","","","",""
"","ITI","","html-keyboard-response","61","151690","0.0-1.0-72.0","0","0","56941","","null","","","null","7","","","","","","","","","","","","","","","NaN",""
"","S1","","html-keyboard-response","62","151954","0.0-1.0-74.0","0","0","56941","","null","","","null","8","","","","","","","","","","","","","","","",""
"","ISI","","html-keyboard-response","63","152978","0.0-1.0-75.0","0","0","56941","","null","","","null","8","NaN","","","","","","","","","","","","","","",""
"","S2","","html-keyboard-response","64","153242","0.0-1.0-76.0","0","0","56941","","null","","","null","8","","NaN","","","","","","","","","","","","","",""
"","response","","html-keyboard-response","65","153329","0.0-1.0-77.0-0.0","0","0","56941","","83","","","75","8","","","1","8","training","adjacent","ED","5","4","R.jpg","N.jpg","1","0","0","",""
"","feedback","","html-keyboard-response","66","154345","0.0-1.0-78.0-0.0","0","0","56941","","null","","","null","8","","","","","","","","","","","","","","","",""
"","time_out","","html-keyboard-response","67","156351","0.0-1.0-80.0-0.0","0","0","56941","","null","","","null","8","","","","","","","","","","","","","","","",""
"","ITI","","html-keyboard-response","68","157370","0.0-1.0-81.0","0","0","56941","","null","","","null","8","","","","","","","","","","","","","","","NaN",""
"","S1","","html-keyboard-response","69","157623","0.0-1.0-83.0","0","0","56941","","null","","","null","9","","","","","","","","","","","","","","","",""
"","ISI","","html-keyboard-response","70","158642","0.0-1.0-84.0","0","0","56941","","null","","","null","9","NaN","","","","","","","","","","","","","","",""
"","S2","","html-keyboard-response","71","158896","0.0-1.0-85.0","0","0","56941","","null","","","null","9","","NaN","","","","","","","","","","","","","",""
"","response","","html-keyboard-response","72","159001","0.0-1.0-86.0-0.0","0","0","56941","","102","","","68","9","","","1","9","training","adjacent","AB","1","2","M.jpg","L.jpg","0","1","0","",""
"","feedback","","html-keyboard-response","73","160014","0.0-1.0-87.0-0.0","0","0","56941","","null","","","null","9","","","","","","","","","","","","","","","",""
"","time_out","","html-keyboard-response","74","162019","0.0-1.0-89.0-0.0","0","0","56941","","null","","","null","9","","","","","","","","","","","","","","","",""
"","ITI","","html-keyboard-response","75","163038","0.0-1.0-90.0","0","0","56941","","null","","","null","9","","","","","","","","","","","","","","","NaN",""
"","S1","","html-keyboard-response","76","163307","0.0-1.0-92.0","0","0","56941","","null","","","null","10","","","","","","","","","","","","","","","",""
"","ISI","","html-keyboard-response","77","164325","0.0-1.0-93.0","0","0","56941","","null","","","null","10","NaN","","","","","","","","","","","","","","",""
"","S2","","html-keyboard-response","78","164588","0.0-1.0-94.0","0","0","56941","","null","","","null","10","","NaN","","","","","","","","","","","","","",""
"","response","","html-keyboard-response","79","164641","0.0-1.0-95.0-0.0","0","0","56941","","49","","","68","10","","","1","10","training","adjacent","FG","6","7","O.jpg","Q.jpg","0","1","0","",""
"","feedback","","html-keyboard-response","80","165661","0.0-1.0-96.0-0.0","0","0","56941","","null","","","null","10","","","","","","","","","","","","","","","",""
"","time_out","","html-keyboard-response","81","167666","0.0-1.0-98.0-0.0","0","0","56941","","null","","","null","10","","","","","","","","","","","","","","","",""
"","ITI","","html-keyboard-response","82","168684","0.0-1.0-99.0","0","0","56941","","null","","","null","10","","","","","","","","","","","","","","","NaN",""
"","S1","","html-keyboard-response","83","168953","0.0-1.0-101.0","0","0","56941","","null","","","null","11","","","","","","","","","","","","","","","",""
"","ISI","","html-keyboard-response","84","169972","0.0-1.0-102.0","0","0","56941","","null","","","null","11","NaN","","","","","","","","","","","","","","",""
"","S2","","html-keyboard-response","85","170226","0.0-1.0-103.0","0","0","56941","","null","","","null","11","","NaN","","","","","","","","","","","","","",""
"","response","","html-keyboard-response","86","171161","0.0-1.0-104.0-0.0","0","0","56941","","932","","","68","11","","","1","11","training","adjacent","EF","5","6","R.jpg","O.jpg","0","1","0","",""
"","feedback","","html-keyboard-response","87","172178","0.0-1.0-105.0-0.0","0","0","56941","","null","","","null","11","","","","","","","","","","","","","","","",""
"","time_out","","html-keyboard-response","88","174184","0.0-1.0-107.0-0.0","0","0","56941","","null","","","null","11","","","","","","","","","","","","","","","",""
"","ITI","","html-keyboard-response","89","175203","0.0-1.0-108.0","0","0","56941","","null","","","null","11","","","","","","","","","","","","","","","NaN",""
"","S1","","html-keyboard-response","90","175473","0.0-1.0-110.0","0","0","56941","","null","","","null","12","","","","","","","","","","","","","","","",""
"","ISI","","html-keyboard-response","91","176491","0.0-1.0-111.0","0","0","56941","","85","","","75","12","k","","","","","","","","","","","","","","",""
"","S2","","html-keyboard-response","92","176746","0.0-1.0-112.0","0","0","56941","","null","","","null","12","","NaN","","","","","","","","","","","","","",""
"","response","","html-keyboard-response","93","177113","0.0-1.0-113.0-0.0","0","0","56941","","364","","","75","12","","","1","12","training","adjacent","ED","5","4","R.jpg","N.jpg","1","0","0","",""
"","feedback","","html-keyboard-response","94","178127","0.0-1.0-114.0-0.0","0","0","56941","","null","","","null","12","","","","","","","","","","","","","","","",""
"","time_out","","html-keyboard-response","95","180132","0.0-1.0-116.0-0.0","0","0","56941","","null","","","null","12","","","","","","","","","","","","","","","",""
"","ITI","","html-keyboard-response","96","181157","0.0-1.0-117.0","0","0","56941","","null","","","null","12","","","","","","","","","","","","","","","NaN",""
"","S1","","html-keyboard-response","97","181420","0.0-1.0-119.0","0","0","56941","","null","","","null","13","","","","","","","","","","","","","","","",""
"","ISI","","html-keyboard-response","98","182439","0.0-1.0-120.0","0","0","56941","","null","","","null","13","NaN","","","","","","","","","","","","","","",""
"","S2","","html-keyboard-response","99","182708","0.0-1.0-121.0","0","0","56941","","null","","","null","13","","NaN","","","","","","","","","","","","","",""
"","response","","html-keyboard-response","100","182818","0.0-1.0-122.0-0.0","0","0","56941","","105","","","68","13","","","1","13","training","adjacent","DE","4","5","N.jpg","R.jpg","0","1","0","",""
"","feedback","","html-keyboard-response","101","183827","0.0-1.0-123.0-0.0","0","0","56941","","null","","","null","13","","","","","","","","","","","","","","","",""
"","time_out","","html-keyboard-response","102","185832","0.0-1.0-125.0-0.0","0","0","56941","","null","","","null","13","","","","","","","","","","","","","","","",""
"","ITI","","html-keyboard-response","103","186851","0.0-1.0-126.0","0","0","56941","","null","","","null","13","","","","","","","","","","","","","","","NaN",""
"","S1","","html-keyboard-response","104","187121","0.0-1.0-128.0","0","0","56941","","null","","","null","14","","","","","","","","","","","","","","","",""
"","ISI","","html-keyboard-response","105","188139","0.0-1.0-129.0","0","0","56941","","null","","","null","14","NaN","","","","","","","","","","","","","","",""
"","S2","","html-keyboard-response","106","188393","0.0-1.0-130.0","0","0","56941","","null","","","null","14","","NaN","","","","","","","","","","","","","",""
"","response","","html-keyboard-response","107","189001","0.0-1.0-131.0-0.0","0","0","56941","","605","","","75","14","","","1","14","training","adjacent","GF","7","6","Q.jpg","O.jpg","1","0","0","",""
"","feedback","","html-keyboard-response","108","190013","0.0-1.0-132.0-0.0","0","0","56941","","null","","","null","14","","","","","","","","","","","","","","","",""
"","time_out","","html-keyboard-response","109","192019","0.0-1.0-134.0-0.0","0","0","56941","","null","","","null","14","","","","","","","","","","","","","","","",""
"","ITI","","html-keyboard-response","110","193038","0.0-1.0-135.0","0","0","56941","","null","","","null","14","","","","","","","","","","","","","","","NaN",""
"","S1","","html-keyboard-response","111","193306","0.0-1.0-137.0","0","0","56941","","null","","","null","15","","","","","","","","","","","","","","","",""
"","ISI","","html-keyboard-response","112","194325","0.0-1.0-138.0","0","0","56941","","null","","","null","15","NaN","","","","","","","","","","","","","","",""
"","S2","","html-keyboard-response","113","194595","0.0-1.0-139.0","0","0","56941","","null","","","null","15","","NaN","","","","","","","","","","","","","",""
"","response","","html-keyboard-response","114","195041","0.0-1.0-140.0-0.0","0","0","56941","","443","","","68","15","","","1","15","training","adjacent","EF","5","6","R.jpg","O.jpg","0","1","0","",""
"","feedback","","html-keyboard-response","115","196046","0.0-1.0-141.0-0.0","0","0","56941","","null","","","null","15","","","","","","","","","","","","","","","",""
"","time_out","","html-keyboard-response","116","198052","0.0-1.0-143.0-0.0","0","0","56941","","null","","","null","15","","","","","","","","","","","","","","","",""
"","ITI","","html-keyboard-response","117","199070","0.0-1.0-144.0","0","0","56941","","null","","","null","15","","","","","","","","","","","","","","","NaN",""
"","S1","","html-keyboard-response","118","199324","0.0-1.0-146.0","0","0","56941","","null","","","null","16","","","","","","","","","","","","","","","",""
"","ISI","","html-keyboard-response","119","200343","0.0-1.0-147.0","0","0","56941","","null","","","null","16","NaN","","","","","","","","","","","","","","",""
"","S2","","html-keyboard-response","120","200612","0.0-1.0-148.0","0","0","56941","","null","","","null","16","","NaN","","","","","","","","","","","","","",""
"","response","","html-keyboard-response","121","201130","0.0-1.0-149.0-0.0","0","0","56941","","514","","","75","16","","","1","16","training","adjacent","DC","4","3","N.jpg","P.jpg","1","0","0","",""
"","feedback","","html-keyboard-response","122","202147","0.0-1.0-150.0-0.0","0","0","56941","","null","","","null","16","","","","","","","","","","","","","","","",""
"","time_out","","html-keyboard-response","123","204153","0.0-1.0-152.0-0.0","0","0","56941","","null","","","null","16","","","","","","","","","","","","","","","",""
"","ITI","","html-keyboard-response","124","205171","0.0-1.0-153.0","0","0","56941","","null","","","null","16","","","","","","","","","","","","","","","NaN",""
"","S1","","html-keyboard-response","125","205425","0.0-1.0-155.0","0","0","56941","","null","","","null","17","","","","","","","","","","","","","","","",""
"","ISI","","html-keyboard-response","126","206444","0.0-1.0-156.0","0","0","56941","","null","","","null","17","NaN","","","","","","","","","","","","","","",""
"","S2","","html-keyboard-response","127","206706","0.0-1.0-157.0","0","0","56941","","null","","","null","17","","NaN","","","","","","","","","","","","","",""
"","response","","html-keyboard-response","128","207073","0.0-1.0-158.0-0.0","0","0","56941","","364","","","75","17","","","1","17","training","adjacent","AB","1","2","M.jpg","L.jpg","1","1","1","",""
"","feedback","","html-keyboard-response","129","208079","0.0-1.0-159.0-0.0","0","0","56941","","null","","","null","17","","","","","","","","","","","","","","","",""
"","ITI","","html-keyboard-response","130","209097","0.0-1.0-162.0","0","0","56941","","null","","","null","17","","","","","","","","","","","","","","","NaN",""
"","S1","","html-keyboard-response","131","209352","0.0-1.0-164.0","0","0","56941","","null","","","null","18","","","","","","","","","","","","","","","",""
"","ISI","","html-keyboard-response","132","210370","0.0-1.0-165.0","0","0","56941","","null","","","null","18","NaN","","","","","","","","","","","","","","",""
"","S2","","html-keyboard-response","133","210640","0.0-1.0-166.0","0","0","56941","","null","","","null","18","","NaN","","","","","","","","","","","","","",""
"","response","","html-keyboard-response","134","210849","0.0-1.0-167.0-0.0","0","0","56941","","205","","","75","18","","","1","18","training","adjacent","BC","2","3","L.jpg","P.jpg","1","1","1","",""
"","feedback","","html-keyboard-response","135","211859","0.0-1.0-168.0-0.0","0","0","56941","","null","","","null","18","","","","","","","","","","","","","","","",""
"","ITI","","html-keyboard-response","136","212877","0.0-1.0-171.0","0","0","56941","","null","","","null","18","","","","","","","","","","","","","","","NaN",""
"","S1","","html-keyboard-response","137","213146","0.0-1.0-173.0","0","0","56941","","null","","","null","19","","","","","","","","","","","","","","","",""
"","ISI","","html-keyboard-response","138","214165","0.0-1.0-174.0","0","0","56941","","null","","","null","19","NaN","","","","","","","","","","","","","","",""
"","S2","","html-keyboard-response","139","214428","0.0-1.0-175.0","0","0","56941","","null","","","null","19","","NaN","","","","","","","","","","","","","",""
"","response","","html-keyboard-response","140","214865","0.0-1.0-176.0-0.0","0","0","56941","","432","","","68","19","","","1","19","training","adjacent","FE","6","5","O.jpg","R.jpg","0","0","1","",""
"","feedback","","html-keyboard-response","141","215869","0.0-1.0-177.0-0.0","0","0","56941","","null","","","null","19","","","","","","","","","","","","","","","",""
"","ITI","","html-keyboard-response","142","216888","0.0-1.0-180.0","0","0","56941","","null","","","null","19","","","","","","","","","","","","","","","NaN",""
"","S1","","html-keyboard-response","143","217157","0.0-1.0-182.0","0","0","56941","","null","","","null","20","","","","","","","","","","","","","","","",""
"","ISI","","html-keyboard-response","144","218176","0.0-1.0-183.0","0","0","56941","","null","","","null","20","NaN","","","","","","","","","","","","","","",""
"","S2","","html-keyboard-response","145","218439","0.0-1.0-184.0","0","0","56941","","null","","","null","20","","NaN","","","","","","","","","","","","","",""
"","response","","html-keyboard-response","146","218881","0.0-1.0-185.0-0.0","0","0","56941","","439","","","68","20","","","1","20","training","adjacent","ED","5","4","R.jpg","N.jpg","0","0","1","",""
"","feedback","","html-keyboard-response","147","219896","0.0-1.0-186.0-0.0","0","0","56941","","null","","","null","20","","","","","","","","","","","","","","","",""
"","ITI","","html-keyboard-response","148","220915","0.0-1.0-189.0","0","0","56941","","null","","","null","20","","","","","","","","","","","","","","","NaN",""
"","S1","","html-keyboard-response","149","221184","0.0-1.0-191.0","0","0","56941","","null","","","null","21","","","","","","","","","","","","","","","",""
"","ISI","","html-keyboard-response","150","222202","0.0-1.0-192.0","0","0","56941","","null","","","null","21","NaN","","","","","","","","","","","","","","",""
"","S2","","html-keyboard-response","151","222472","0.0-1.0-193.0","0","0","56941","","null","","","null","21","","NaN","","","","","","","","","","","","","",""
"","response","","html-keyboard-response","152","222953","0.0-1.0-194.0-0.0","0","0","56941","","477","","","68","21","","","1","21","training","adjacent","DE","4","5","N.jpg","R.jpg","0","1","0","",""
"","feedback","","html-keyboard-response","153","223976","0.0-1.0-195.0-0.0","0","0","56941","","null","","","null","21","","","","","","","","","","","","","","","",""
"","time_out","","html-keyboard-response","154","225981","0.0-1.0-197.0-0.0","0","0","56941","","null","","","null","21","","","","","","","","","","","","","","","",""
"","ITI","","html-keyboard-response","155","227000","0.0-1.0-198.0","0","0","56941","","null","","","null","21","","","","","","","","","","","","","","","NaN",""
"","S1","","html-keyboard-response","156","227263","0.0-1.0-200.0","0","0","56941","","null","","","null","22","","","","","","","","","","","","","","","",""
"","ISI","","html-keyboard-response","157","228287","0.0-1.0-201.0","0","0","56941","","null","","","null","22","NaN","","","","","","","","","","","","","","",""
"","S2","","html-keyboard-response","158","228550","0.0-1.0-202.0","0","0","56941","","null","","","null","22","","NaN","","","","","","","","","","","","","",""
"","response","","html-keyboard-response","159","228994","0.0-1.0-203.0-0.0","0","0","56941","","440","","","68","22","","","1","22","training","adjacent","BC","2","3","L.jpg","P.jpg","0","1","0","",""
"","feedback","","html-keyboard-response","160","230007","0.0-1.0-204.0-0.0","0","0","56941","","null","","","null","22","","","","","","","","","","","","","","","",""
"","time_out","","html-keyboard-response","161","232014","0.0-1.0-206.0-0.0","0","0","56941","","null","","","null","22","","","","","","","","","","","","","","","",""
"","ITI","","html-keyboard-response","162","233032","0.0-1.0-207.0","0","0","56941","","null","","","null","22","","","","","","","","","","","","","","","NaN",""
"","S1","","html-keyboard-response","163","233302","0.0-1.0-209.0","0","0","56941","","null","","","null","23","","","","","","","","","","","","","","","",""
"","ISI","","html-keyboard-response","164","234320","0.0-1.0-210.0","0","0","56941","","null","","","null","23","NaN","","","","","","","","","","","","","","",""
"","S2","","html-keyboard-response","165","234583","0.0-1.0-211.0","0","0","56941","","null","","","null","23","","NaN","","","","","","","","","","","","","",""
"","response","","html-keyboard-response","166","235001","0.0-1.0-212.0-0.0","0","0","56941","","414","","","68","23","","","1","23","training","adjacent","ED","5","4","R.jpg","N.jpg","0","0","1","",""
"","feedback","","html-keyboard-response","167","236008","0.0-1.0-213.0-0.0","0","0","56941","","null","","","null","23","","","","","","","","","","","","","","","",""
"","ITI","","html-keyboard-response","168","237027","0.0-1.0-216.0","0","0","56941","","null","","","null","23","","","","","","","","","","","","","","","NaN",""
"","S1","","html-keyboard-response","169","237291","0.0-1.0-218.0","0","0","56941","","null","","","null","24","","","","","","","","","","","","","","","",""
"","ISI","","html-keyboard-response","170","238315","0.0-1.0-219.0","0","0","56941","","null","","","null","24","NaN","","","","","","","","","","","","","","",""
"","S2","","html-keyboard-response","171","238578","0.0-1.0-220.0","0","0","56941","","null","","","null","24","","NaN","","","","","","","","","","","","","",""
"","response","","html-keyboard-response","172","238729","0.0-1.0-221.0-0.0","0","0","56941","","147","","","68","24","","","1","24","training","adjacent","EF","5","6","R.jpg","O.jpg","0","1","0","",""
"","feedback","","html-keyboard-response","173","239734","0.0-1.0-222.0-0.0","0","0","56941","","null","","","null","24","","","","","","","","","","","","","","","",""
"","time_out","","html-keyboard-response","174","241740","0.0-1.0-224.0-0.0","0","0","56941","","null","","","null","24","","","","","","","","","","","","","","","",""
"","ITI","","html-keyboard-response","175","242759","0.0-1.0-225.0","0","0","56941","","null","","","null","24","","","","","","","","","","","","","","","NaN",""
"","S1","","html-keyboard-response","176","243028","0.0-1.0-227.0","0","0","56941","","null","","","null","25","","","","","","","","","","","","","","","",""
"","ISI","","html-keyboard-response","177","244046","0.0-1.0-228.0","0","0","56941","","null","","","null","25","NaN","","","","","","","","","","","","","","",""
"","S2","","html-keyboard-response","178","244310","0.0-1.0-229.0","0","0","56941","","null","","","null","25","","NaN","","","","","","","","","","","","","",""
"","response","","html-keyboard-response","179","244417","0.0-1.0-230.0-0.0","0","0","56941","","104","","","68","25","","","1","25","training","adjacent","CB","3","2","P.jpg","L.jpg","0","0","1","",""
"","feedback","","html-keyboard-response","180","245435","0.0-1.0-231.0-0.0","0","0","56941","","null","","","null","25","","","","","","","","","","","","","","","",""
"","ITI","","html-keyboard-response","181","246454","0.0-1.0-234.0","0","0","56941","","null","","","null","25","","","","","","","","","","","","","","","NaN",""
"","S1","","html-keyboard-response","182","246717","0.0-1.0-236.0","0","0","56941","","null","","","null","26","","","","","","","","","","","","","","","",""
"","ISI","","html-keyboard-response","183","247742","0.0-1.0-237.0","0","0","56941","","null","","","null","26","NaN","","","","","","","","","","","","","","",""
"","S2","","html-keyboard-response","184","248005","0.0-1.0-238.0","0","0","56941","","null","","","null","26","","NaN","","","","","","","","","","","","","",""
"","response","","html-keyboard-response","185","248569","0.0-1.0-239.0-0.0","0","0","56941","","560","","","68","26","","","1","26","training","adjacent","CD","3","4","P.jpg","N.jpg","0","1","0","",""
"","feedback","","html-keyboard-response","186","249578","0.0-1.0-240.0-0.0","0","0","56941","","null","","","null","26","","","","","","","","","","","","","","","",""
"","time_out","","html-keyboard-response","187","251584","0.0-1.0-242.0-0.0","0","0","56941","","null","","","null","26","","","","","","","","","","","","","","","",""
"","ITI","","html-keyboard-response","188","252602","0.0-1.0-243.0","0","0","56941","","null","","","null","26","","","","","","","","","","","","","","","NaN",""
"","S1","","html-keyboard-response","189","252855","0.0-1.0-245.0","0","0","56941","","null","","","null","27","","","","","","","","","","","","","","","",""
"","ISI","","html-keyboard-response","190","253874","0.0-1.0-246.0","0","0","56941","","null","","","null","27","NaN","","","","","","","","","","","","","","",""
"","S2","","html-keyboard-response","191","254136","0.0-1.0-247.0","0","0","56941","","null","","","null","27","","NaN","","","","","","","","","","","","","",""
"","response","","html-keyboard-response","192","255618","0.0-1.0-248.0-0.0","0","0","56941","","1477","","","68","27","","","1","27","training","adjacent","CD","3","4","P.jpg","N.jpg","0","1","0","",""
"","feedback","","html-keyboard-response","193","256628","0.0-1.0-249.0-0.0","0","0","56941","","null","","","null","27","","","","","","","","","","","","","","","",""
"","time_out","","html-keyboard-response","194","258633","0.0-1.0-251.0-0.0","0","0","56941","","null","","","null","27","","","","","","","","","","","","","","","",""
"","ITI","","html-keyboard-response","195","259652","0.0-1.0-252.0","0","0","56941","","null","","","null","27","","","","","","","","","","","","","","","NaN",""
"","S1","","html-keyboard-response","196","259905","0.0-1.0-254.0","0","0","56941","","null","","","null","28","","","","","","","","","","","","","","","",""
"","ISI","","html-keyboard-response","197","260923","0.0-1.0-255.0","0","0","56941","","null","","","null","28","NaN","","","","","","","","","","","","","","",""
"","S2","","html-keyboard-response","198","261178","0.0-1.0-256.0","0","0","56941","","null","","","null","28","","NaN","","","","","","","","","","","","","",""
"","response","","html-keyboard-response","199","261233","0.0-1.0-257.0-0.0","0","0","56941","","51","","","75","28","","","1","28","training","adjacent","AB","1","2","M.jpg","L.jpg","1","1","1","",""
"","feedback","","html-keyboard-response","200","262243","0.0-1.0-258.0-0.0","0","0","56941","","null","","","null","28","","","","","","","","","","","","","","","",""
"","ITI","","html-keyboard-response","201","263262","0.0-1.0-261.0","0","0","56941","","null","","","null","28","","","","","","","","","","","","","","","NaN",""
"","S1","","html-keyboard-response","202","263531","0.0-1.0-263.0","0","0","56941","","null","","","null","29","","","","","","","","","","","","","","","",""
"","ISI","","html-keyboard-response","203","264550","0.0-1.0-264.0","0","0","56941","","null","","","null","29","NaN","","","","","","","","","","","","","","",""
"","S2","","html-keyboard-response","204","264803","0.0-1.0-265.0","0","0","56941","","null","","","null","29","","NaN","","","","","","","","","","","","","",""
"","response","","html-keyboard-response","205","265208","0.0-1.0-266.0-0.0","0","0","56941","","401","","","68","29","","","1","29","training","adjacent","GF","7","6","Q.jpg","O.jpg","0","0","1","",""
"","feedback","","html-keyboard-response","206","266223","0.0-1.0-267.0-0.0","0","0","56941","","null","","","null","29","","","","","","","","","","","","","","","",""
"","ITI","","html-keyboard-response","207","267241","0.0-1.0-270.0","0","0","56941","","null","","","null","29","","","","","","","","","","","","","","","NaN",""
"","S1","","html-keyboard-response","208","267494","0.0-1.0-272.0","0","0","56941","","null","","","null","30","","","","","","","","","","","","","","","",""
"","ISI","","html-keyboard-response","209","268497","0.0-1.0-273.0","0","0","56941","","null","","","null","30","NaN","","","","","","","","","","","","","","",""
"","S2","","html-keyboard-response","210","268761","0.0-1.0-274.0","0","0","56941","","null","","","null","30","","NaN","","","","","","","","","","","","","",""
"","response","","html-keyboard-response","211","269168","0.0-1.0-275.0-0.0","0","0","56941","","404","","","75","30","","","1","30","training","adjacent","DC","4","3","N.jpg","P.jpg","1","0","0","",""
"","feedback","","html-keyboard-response","212","270180","0.0-1.0-276.0-0.0","0","0","56941","","null","","","null","30","","","","","","","","","","","","","","","",""
"","time_out","","html-keyboard-response","213","272186","0.0-1.0-278.0-0.0","0","0","56941","","null","","","null","30","","","","","","","","","","","","","","","",""
"","ITI","","html-keyboard-response","214","273211","0.0-1.0-279.0","0","0","56941","","null","","","null","30","","","","","","","","","","","","","","","NaN",""
"","S1","","html-keyboard-response","215","273473","0.0-1.0-281.0","0","0","56941","","null","","","null","31","","","","","","","","","","","","","","","",""
"","ISI","","html-keyboard-response","216","274492","0.0-1.0-282.0","0","0","56941","","null","","","null","31","NaN","","","","","","","","","","","","","","",""
"","S2","","html-keyboard-response","217","274746","0.0-1.0-283.0","0","0","56941","","null","","","null","31","","NaN","","","","","","","","","","","","","",""
"","response","","html-keyboard-response","218","274841","0.0-1.0-284.0-0.0","0","0","56941","","91","","","75","31","","","1","31","training","adjacent","CD","3","4","P.jpg","N.jpg","1","1","1","",""
"","feedback","","html-keyboard-response","219","275849","0.0-1.0-285.0-0.0","0","0","56941","","null","","","null","31","","","","","","","","","","","","","","","",""
"","ITI","","html-keyboard-response","220","276867","0.0-1.0-288.0","0","0","56941","","null","","","null","31","","","","","","","","","","","","","","","NaN",""
"","S1","","html-keyboard-response","221","277137","0.0-1.0-290.0","0","0","56941","","null","","","null","32","","","","","","","","","","","","","","","",""
"","ISI","","html-keyboard-response","222","278155","0.0-1.0-291.0","0","0","56941","","null","","","null","32","NaN","","","","","","","","","","","","","","",""
"","S2","","html-keyboard-response","223","278424","0.0-1.0-292.0","0","0","56941","","null","","","null","32","","NaN","","","","","","","","","","","","","",""
"","response","","html-keyboard-response","224","278865","0.0-1.0-293.0-0.0","0","0","56941","","436","","","68","32","","","1","32","training","adjacent","FG","6","7","O.jpg","Q.jpg","0","1","0","",""
"","feedback","","html-keyboard-response","225","279875","0.0-1.0-294.0-0.0","0","0","56941","","null","","","null","32","","","","","","","","","","","","","","","",""
"","time_out","","html-keyboard-response","226","281882","0.0-1.0-296.0-0.0","0","0","56941","","null","","","null","32","","","","","","","","","","","","","","","",""
"","ITI","","html-keyboard-response","227","282900","0.0-1.0-297.0","0","0","56941","","null","","","null","32","","","","","","","","","","","","","","","NaN",""
"","S1","","html-keyboard-response","228","283170","0.0-1.0-299.0","0","0","56941","","null","","","null","33","","","","","","","","","","","","","","","",""
"","ISI","","html-keyboard-response","229","284188","0.0-1.0-300.0","0","0","56941","","null","","","null","33","NaN","","","","","","","","","","","","","","",""
"","S2","","html-keyboard-response","230","284442","0.0-1.0-301.0","0","0","56941","","null","","","null","33","","NaN","","","","","","","","","","","","","",""
"","response","","html-keyboard-response","231","284904","0.0-1.0-302.0-0.0","0","0","56941","","459","","","75","33","","","1","33","training","adjacent","FG","6","7","O.jpg","Q.jpg","1","1","1","",""
"","feedback","","html-keyboard-response","232","285924","0.0-1.0-303.0-0.0","0","0","56941","","null","","","null","33","","","","","","","","","","","","","","","",""
"","ITI","","html-keyboard-response","233","286948","0.0-1.0-306.0","0","0","56941","","null","","","null","33","","","","","","","","","","","","","","","NaN",""
"","S1","","html-keyboard-response","234","287212","0.0-1.0-308.0","0","0","56941","","null","","","null","34","","","","","","","","","","","","","","","",""
"","ISI","","html-keyboard-response","235","288229","0.0-1.0-309.0","0","0","56941","","null","","","null","34","NaN","","","","","","","","","","","","","","",""
"","S2","","html-keyboard-response","236","288483","0.0-1.0-310.0","0","0","56941","","null","","","null","34","","NaN","","","","","","","","","","","","","",""
"","response","","html-keyboard-response","237","288793","0.0-1.0-311.0-0.0","0","0","56941","","306","","","68","34","","","1","34","training","adjacent","CB","3","2","P.jpg","L.jpg","0","0","1","",""
"","feedback","","html-keyboard-response","238","289802","0.0-1.0-312.0-0.0","0","0","56941","","null","","","null","34","","","","","","","","","","","","","","","",""
"","ITI","","html-keyboard-response","239","290821","0.0-1.0-315.0","0","0","56941","","null","","","null","34","","","","","","","","","","","","","","","NaN",""
"","S1","","html-keyboard-response","240","291073","0.0-1.0-317.0","0","0","56941","","null","","","null","35","","","","","","","","","","","","","","","",""
"","ISI","","html-keyboard-response","241","292077","0.0-1.0-318.0","0","0","56941","","null","","","null","35","NaN","","","","","","","","","","","","","","",""
"","S2","","html-keyboard-response","242","292339","0.0-1.0-319.0","0","0","56941","","null","","","null","35","","NaN","","","","","","","","","","","","","",""
"","response","","html-keyboard-response","243","292761","0.0-1.0-320.0-0.0","0","0","56941","","417","","","75","35","","","1","35","training","adjacent","CB","3","2","P.jpg","L.jpg","1","0","0","",""
"","feedback","","html-keyboard-response","244","293765","0.0-1.0-321.0-0.0","0","0","56941","","null","","","null","35","","","","","","","","","","","","","","","",""
"","time_out","","html-keyboard-response","245","295771","0.0-1.0-323.0-0.0","0","0","56941","","null","","","null","35","","","","","","","","","","","","","","","",""
"","ITI","","html-keyboard-response","246","296789","0.0-1.0-324.0","0","0","56941","","null","","","null","35","","","","","","","","","","","","","","","NaN",""
"","S1","","html-keyboard-response","247","297053","0.0-1.0-326.0","0","0","56941","","null","","","null","36","","","","","","","","","","","","","","","",""
"","ISI","","html-keyboard-response","248","298078","0.0-1.0-327.0","0","0","56941","","null","","","null","36","NaN","","","","","","","","","","","","","","",""
"","S2","","html-keyboard-response","249","298341","0.0-1.0-328.0","0","0","56941","","null","","","null","36","","NaN","","","","","","","","","","","","","",""
"","response","","html-keyboard-response","250","298408","0.0-1.0-329.0-0.0","0","0","56941","","65","","","75","36","","","1","36","training","adjacent","GF","7","6","Q.jpg","O.jpg","1","0","0","",""
"","feedback","","html-keyboard-response","251","299413","0.0-1.0-330.0-0.0","0","0","56941","","null","","","null","36","","","","","","","","","","","","","","","",""
"","time_out","","html-keyboard-response","252","301419","0.0-1.0-332.0-0.0","0","0","56941","","null","","","null","36","","","","","","","","","","","","","","","",""
"","ITI","","html-keyboard-response","253","302429","0.0-1.0-333.0","0","0","56941","","null","","","null","36","","","","","","","","","","","","","","","NaN",""
"","S1","","html-keyboard-response","254","302696","0.0-1.0-335.0","0","0","56941","","null","","","null","37","","","","","","","","","","","","","","","",""
"","ISI","","html-keyboard-response","255","303714","0.0-1.0-336.0","0","0","56941","","null","","","null","37","NaN","","","","","","","","","","","","","","",""
"","S2","","html-keyboard-response","256","303978","0.0-1.0-337.0","0","0","56941","","null","","","null","37","","NaN","","","","","","","","","","","","","",""
"","response","","html-keyboard-response","257","304049","0.0-1.0-338.0-0.0","0","0","56941","","67","","","68","37","","","1","37","training","adjacent","CD","3","4","P.jpg","N.jpg","0","1","0","",""
"","feedback","","html-keyboard-response","258","305065","0.0-1.0-339.0-0.0","0","0","56941","","null","","","null","37","","","","","","","","","","","","","","","",""
"","time_out","","html-keyboard-response","259","307070","0.0-1.0-341.0-0.0","0","0","56941","","null","","","null","37","","","","","","","","","","","","","","","",""
"","ITI","","html-keyboard-response","260","308088","0.0-1.0-342.0","0","0","56941","","null","","","null","37","","","","","","","","","","","","","","","NaN",""
"","S1","","html-keyboard-response","261","308342","0.0-1.0-344.0","0","0","56941","","null","","","null","38","","","","","","","","","","","","","","","",""
"","ISI","","html-keyboard-response","262","309360","0.0-1.0-345.0","0","0","56941","","null","","","null","38","NaN","","","","","","","","","","","","","","",""
"","S2","","html-keyboard-response","263","309614","0.0-1.0-346.0","0","0","56941","","null","","","null","38","","NaN","","","","","","","","","","","","","",""
"","response","","html-keyboard-response","264","309744","0.0-1.0-347.0-0.0","0","0","56941","","127","","","75","38","","","1","38","training","adjacent","DE","4","5","N.jpg","R.jpg","1","1","1","",""
"","feedback","","html-keyboard-response","265","310749","0.0-1.0-348.0-0.0","0","0","56941","","null","","","null","38","","","","","","","","","","","","","","","",""
"","ITI","","html-keyboard-response","266","311766","0.0-1.0-351.0","0","0","56941","","null","","","null","38","","","","","","","","","","","","","","","NaN",""
"","S1","","html-keyboard-response","267","312020","0.0-1.0-353.0","0","0","56941","","null","","","null","39","","","","","","","","","","","","","","","",""
"","ISI","","html-keyboard-response","268","313039","0.0-1.0-354.0","0","0","56941","","null","","","null","39","NaN","","","","","","","","","","","","","","",""
"","S2","","html-keyboard-response","269","313303","0.0-1.0-355.0","0","0","56941","","null","","","null","39","","NaN","","","","","","","","","","","","","",""
"","response","","html-keyboard-response","270","313826","0.0-1.0-356.0-0.0","0","0","56941","","518","","","75","39","","","1","39","training","adjacent","AB","1","2","M.jpg","L.jpg","1","1","1","",""
"","feedback","","html-keyboard-response","271","314845","0.0-1.0-357.0-0.0","0","0","56941","","null","","","null","39","","","","","","","","","","","","","","","",""
"","ITI","","html-keyboard-response","272","315863","0.0-1.0-360.0","0","0","56941","","null","","","null","39","","","","","","","","","","","","","","","NaN",""
"","S1","","html-keyboard-response","273","316132","0.0-1.0-362.0","0","0","56941","","null","","","null","40","","","","","","","","","","","","","","","",""
"","ISI","","html-keyboard-response","274","317151","0.0-1.0-363.0","0","0","56941","","null","","","null","40","NaN","","","","","","","","","","","","","","",""
"","S2","","html-keyboard-response","275","317414","0.0-1.0-364.0","0","0","56941","","null","","","null","40","","NaN","","","","","","","","","","","","","",""
"","response","","html-keyboard-response","276","317865","0.0-1.0-365.0-0.0","0","0","56941","","446","","","68","40","","","1","40","training","adjacent","BA","2","1","L.jpg","M.jpg","0","0","1","",""
"","feedback","","html-keyboard-response","277","318871","0.0-1.0-366.0-0.0","0","0","56941","","null","","","null","40","","","","","","","","","","","","","","","",""
"","ITI","","html-keyboard-response","278","319890","0.0-1.0-369.0","0","0","56941","","null","","","null","40","","","","","","","","","","","","","","","NaN",""
"","S1","","html-keyboard-response","279","320159","0.0-1.0-371.0","0","0","56941","","null","","","null","41","","","","","","","","","","","","","","","",""
"","ISI","","html-keyboard-response","280","321178","0.0-1.0-372.0","0","0","56941","","null","","","null","41","NaN","","","","","","","","","","","","","","",""
"","S2","","html-keyboard-response","281","321447","0.0-1.0-373.0","0","0","56941","","null","","","null","41","","NaN","","","","","","","","","","","","","",""
"","response","","html-keyboard-response","282","321616","0.0-1.0-374.0-0.0","0","0","56941","","166","","","68","41","","","1","41","training","adjacent","FG","6","7","O.jpg","Q.jpg","0","1","0","",""
"","feedback","","html-keyboard-response","283","322628","0.0-1.0-375.0-0.0","0","0","56941","","null","","","null","41","","","","","","","","","","","","","","","",""
"","time_out","","html-keyboard-response","284","324634","0.0-1.0-377.0-0.0","0","0","56941","","null","","","null","41","","","","","","","","","","","","","","","",""
"","ITI","","html-keyboard-response","285","325637","0.0-1.0-378.0","0","0","56941","","null","","","null","41","","","","","","","","","","","","","","","NaN",""
"","S1","","html-keyboard-response","286","325891","0.0-1.0-380.0","0","0","56941","","null","","","null","42","","","","","","","","","","","","","","","",""
"","ISI","","html-keyboard-response","287","326909","0.0-1.0-381.0","0","0","56941","","null","","","null","42","NaN","","","","","","","","","","","","","","",""
"","S2","","html-keyboard-response","288","327164","0.0-1.0-382.0","0","0","56941","","null","","","null","42","","NaN","","","","","","","","","","","","","",""
"","response","","html-keyboard-response","289","327825","0.0-1.0-383.0-0.0","0","0","56941","","658","","","75","42","","","1","42","training","adjacent","EF","5","6","R.jpg","O.jpg","1","1","1","",""
"","feedback","","html-keyboard-response","290","328830","0.0-1.0-384.0-0.0","0","0","56941","","null","","","null","42","","","","","","","","","","","","","","","",""
"","ITI","","html-keyboard-response","291","329849","0.0-1.0-387.0","0","0","56941","","null","","","null","42","","","","","","","","","","","","","","","NaN",""
"","S1","","html-keyboard-response","292","330102","0.0-1.0-389.0","0","0","56941","","null","","","null","43","","","","","","","","","","","","","","","",""
"","ISI","","html-keyboard-response","293","331121","0.0-1.0-390.0","0","0","56941","","null","","","null","43","NaN","","","","","","","","","","","","","","",""
"","S2","","html-keyboard-response","294","331376","0.0-1.0-391.0","0","0","56941","","null","","","null","43","","NaN","","","","","","","","","","","","","",""
"","response","","html-keyboard-response","295","331480","0.0-1.0-392.0-0.0","0","0","56941","","101","","","75","43","","","1","43","training","adjacent","FE","6","5","O.jpg","R.jpg","1","0","0","",""
"","feedback","","html-keyboard-response","296","332494","0.0-1.0-393.0-0.0","0","0","56941","","null","","","null","43","","","","","","","","","","","","","","","",""
"","time_out","","html-keyboard-response","297","334500","0.0-1.0-395.0-0.0","0","0","56941","","null","","","null","43","","","","","","","","","","","","","","","",""
"","ITI","","html-keyboard-response","298","335518","0.0-1.0-396.0","0","0","56941","","null","","","null","43","","","","","","","","","","","","","","","NaN",""
"","S1","","html-keyboard-response","299","335788","0.0-1.0-398.0","0","0","56941","","null","","","null","44","","","","","","","","","","","","","","","",""
"","ISI","","html-keyboard-response","300","336791","0.0-1.0-399.0","0","0","56941","","null","","","null","44","NaN","","","","","","","","","","","","","","",""
"","S2","","html-keyboard-response","301","337054","0.0-1.0-400.0","0","0","56941","","null","","","null","44","","NaN","","","","","","","","","","","","","",""
"","response","","html-keyboard-response","302","337137","0.0-1.0-401.0-0.0","0","0","56941","","79","","","75","44","","","1","44","training","adjacent","GF","7","6","Q.jpg","O.jpg","1","0","0","",""
"","feedback","","html-keyboard-response","303","338142","0.0-1.0-402.0-0.0","0","0","56941","","null","","","null","44","","","","","","","","","","","","","","","",""
"","time_out","","html-keyboard-response","304","340148","0.0-1.0-404.0-0.0","0","0","56941","","null","","","null","44","","","","","","","","","","","","","","","",""
"","ITI","","html-keyboard-response","305","341166","0.0-1.0-405.0","0","0","56941","","null","","","null","44","","","","","","","","","","","","","","","NaN",""
"","S1","","html-keyboard-response","306","341436","0.0-1.0-407.0","0","0","56941","","null","","","null","45","","","","","","","","","","","","","","","",""
"","ISI","","html-keyboard-response","307","342454","0.0-1.0-408.0","0","0","56941","","178","","","68","45","d","","","","","","","","","","","","","","",""
"","S2","","html-keyboard-response","308","342723","0.0-1.0-409.0","0","0","56941","","null","","","null","45","","NaN","","","","","","","","","","","","","",""
"","response","","html-keyboard-response","309","342832","0.0-1.0-410.0-0.0","0","0","56941","","105","","","75","45","","","1","45","training","adjacent","BC","2","3","L.jpg","P.jpg","1","1","1","",""
"","feedback","","html-keyboard-response","310","343842","0.0-1.0-411.0-0.0","0","0","56941","","null","","","null","45","","","","","","","","","","","","","","","",""
"","ITI","","html-keyboard-response","311","344861","0.0-1.0-414.0","0","0","56941","","null","","","null","45","","","","","","","","","","","","","","","NaN",""
"","S1","","html-keyboard-response","312","345114","0.0-1.0-416.0","0","0","56941","","null","","","null","46","","","","","","","","","","","","","","","",""
"","ISI","","html-keyboard-response","313","346134","0.0-1.0-417.0","0","0","56941","","null","","","null","46","NaN","","","","","","","","","","","","","","",""
"","S2","","html-keyboard-response","314","346395","0.0-1.0-418.0","0","0","56941","","null","","","null","46","","NaN","","","","","","","","","","","","","",""
"","response","","html-keyboard-response","315","346928","0.0-1.0-419.0-0.0","0","0","56941","","528","","","75","46","","","1","46","training","adjacent","BA","2","1","L.jpg","M.jpg","1","0","0","",""
"","feedback","","html-keyboard-response","316","347938","0.0-1.0-420.0-0.0","0","0","56941","","null","","","null","46","","","","","","","","","","","","","","","",""
"","time_out","","html-keyboard-response","317","349944","0.0-1.0-422.0-0.0","0","0","56941","","null","","","null","46","","","","","","","","","","","","","","","",""
"","ITI","","html-keyboard-response","318","350962","0.0-1.0-423.0","0","0","56941","","null","","","null","46","","","","","","","","","","","","","","","NaN",""
"","S1","","html-keyboard-response","319","351232","0.0-1.0-425.0","0","0","56941","","null","","","null","47","","","","","","","","","","","","","","","",""
"","ISI","","html-keyboard-response","320","352250","0.0-1.0-426.0","0","0","56941","","null","","","null","47","NaN","","","","","","","","","","","","","","",""
"","S2","","html-keyboard-response","321","352513","0.0-1.0-427.0","0","0","56941","","null","","","null","47","","NaN","","","","","","","","","","","","","",""
"","response","","html-keyboard-response","322","353193","0.0-1.0-428.0-0.0","0","0","56941","","675","","","75","47","","","1","47","training","adjacent","DC","4","3","N.jpg","P.jpg","1","0","0","",""
"","feedback","","html-keyboard-response","323","354203","0.0-1.0-429.0-0.0","0","0","56941","","null","","","null","47","","","","","","","","","","","","","","","",""
"","time_out","","html-keyboard-response","324","356208","0.0-1.0-431.0-0.0","0","0","56941","","null","","","null","47","","","","","","","","","","","","","","","",""
"","ITI","","html-keyboard-response","325","357227","0.0-1.0-432.0","0","0","56941","","null","","","null","47","","","","","","","","","","","","","","","NaN",""
"","block_over","","html-keyboard-response","326","362529","0.0-1.0-433.0-0.0","0","0","56941","","5296","","","32","47","","","","","","","","","","","","","","","",""
"","S1","","html-keyboard-response","327","362796","0.0-1.0-434.0","0","0","56941","","null","","","null","48","","","","","","","","","","","","","","","",""
"","ISI","","html-keyboard-response","328","363814","0.0-1.0-435.0","0","0","56941","","null","","","null","48","NaN","","","","","","","","","","","","","","",""
"","S2","","html-keyboard-response","329","364084","0.0-1.0-436.0","0","0","56941","","null","","","null","48","","NaN","","","","","","","","","","","","","",""
"","response","","html-keyboard-response","330","364153","0.0-1.0-437.0-0.0","0","0","56941","","64","","","75","48","","","2","48","training","adjacent","CB","3","2","P.jpg","L.jpg","1","0","0","",""
"","feedback","","html-keyboard-response","331","365170","0.0-1.0-438.0-0.0","0","0","56941","","null","","","null","48","","","","","","","","","","","","","","","",""
"","time_out","","html-keyboard-response","332","367176","0.0-1.0-440.0-0.0","0","0","56941","","null","","","null","48","","","","","","","","","","","","","","","",""
"","ITI","","html-keyboard-response","333","368194","0.0-1.0-441.0","0","0","56941","","null","","","null","48","","","","","","","","","","","","","","","NaN",""
"","S1","","html-keyboard-response","334","368457","0.0-1.0-443.0","0","0","56941","","null","","","null","49","","","","","","","","","","","","","","","",""
"","ISI","","html-keyboard-response","335","369483","0.0-1.0-444.0","0","0","56941","","null","","","null","49","NaN","","","","","","","","","","","","","","",""
"","S2","","html-keyboard-response","336","369746","0.0-1.0-445.0","0","0","56941","","null","","","null","49","","NaN","","","","","","","","","","","","","",""
"","response","","html-keyboard-response","337","370016","0.0-1.0-446.0-0.0","0","0","56941","","267","","","75","49","","","2","49","training","adjacent","FG","6","7","O.jpg","Q.jpg","1","1","1","",""
"","feedback","","html-keyboard-response","338","371034","0.0-1.0-447.0-0.0","0","0","56941","","null","","","null","49","","","","","","","","","","","","","","","",""
"","ITI","","html-keyboard-response","339","372052","0.0-1.0-450.0","0","0","56941","","null","","","null","49","","","","","","","","","","","","","","","NaN",""
"","S1","","html-keyboard-response","340","372307","0.0-1.0-452.0","0","0","56941","","null","","","null","50","","","","","","","","","","","","","","","",""
"","ISI","","html-keyboard-response","341","373326","0.0-1.0-453.0","0","0","56941","","null","","","null","50","NaN","","","","","","","","","","","","","","",""
"","S2","","html-keyboard-response","342","373595","0.0-1.0-454.0","0","0","56941","","null","","","null","50","","NaN","","","","","","","","","","","","","",""
"","response","","html-keyboard-response","343","373736","0.0-1.0-455.0-0.0","0","0","56941","","138","","","68","50","","","2","50","training","adjacent","FG","6","7","O.jpg","Q.jpg","0","1","0","",""
"","feedback","","html-keyboard-response","344","374744","0.0-1.0-456.0-0.0","0","0","56941","","null","","","null","50","","","","","","","","","","","","","","","",""
"","time_out","","html-keyboard-response","345","376750","0.0-1.0-458.0-0.0","0","0","56941","","null","","","null","50","","","","","","","","","","","","","","","",""
"","ITI","","html-keyboard-response","346","377769","0.0-1.0-459.0","0","0","56941","","null","","","null","50","","","","","","","","","","","","","","","NaN",""
"","S1","","html-keyboard-response","347","378038","0.0-1.0-461.0","0","0","56941","","null","","","null","51","","","","","","","","","","","","","","","",""
"","ISI","","html-keyboard-response","348","379057","0.0-1.0-462.0","0","0","56941","","null","","","null","51","NaN","","","","","","","","","","","","","","",""
"","S2","","html-keyboard-response","349","379327","0.0-1.0-463.0","0","0","56941","","null","","","null","51","","NaN","","","","","","","","","","","","","",""
"","response","","html-keyboard-response","350","379495","0.0-1.0-464.0-0.0","0","0","56941","","166","","","68","51","","","2","51","training","adjacent","DC","4","3","N.jpg","P.jpg","0","0","1","",""
"","feedback","","html-keyboard-response","351","380515","0.0-1.0-465.0-0.0","0","0","56941","","null","","","null","51","","","","","","","","","","","","","","","",""
"","ITI","","html-keyboard-response","352","381532","0.0-1.0-468.0","0","0","56941","","null","","","null","51","","","","","","","","","","","","","","","NaN",""
"","S1","","html-keyboard-response","353","381795","0.0-1.0-470.0","0","0","56941","","null","","","null","52","","","","","","","","","","","","","","","",""
"","ISI","","html-keyboard-response","354","382821","0.0-1.0-471.0","0","0","56941","","null","","","null","52","NaN","","","","","","","","","","","","","","",""
"","S2","","html-keyboard-response","355","383084","0.0-1.0-472.0","0","0","56941","","null","","","null","52","","NaN","","","","","","","","","","","","","",""
"","response","","html-keyboard-response","356","383272","0.0-1.0-473.0-0.0","0","0","56941","","185","","","75","52","","","2","52","training","adjacent","GF","7","6","Q.jpg","O.jpg","1","0","0","",""
"","feedback","","html-keyboard-response","357","384287","0.0-1.0-474.0-0.0","0","0","56941","","null","","","null","52","","","","","","","","","","","","","","","",""
"","time_out","","html-keyboard-response","358","386292","0.0-1.0-476.0-0.0","0","0","56941","","null","","","null","52","","","","","","","","","","","","","","","",""
"","ITI","","html-keyboard-response","359","387311","0.0-1.0-477.0","0","0","56941","","null","","","null","52","","","","","","","","","","","","","","","NaN",""
"","S1","","html-keyboard-response","360","387565","0.0-1.0-479.0","0","0","56941","","null","","","null","53","","","","","","","","","","","","","","","",""
"","ISI","","html-keyboard-response","361","388583","0.0-1.0-480.0","0","0","56941","","null","","","null","53","NaN","","","","","","","","","","","","","","",""
"","S2","","html-keyboard-response","362","388837","0.0-1.0-481.0","0","0","56941","","null","","","null","53","","NaN","","","","","","","","","","","","","",""
"","response","","html-keyboard-response","363","389312","0.0-1.0-482.0-0.0","0","0","56941","","471","","","68","53","","","2","53","training","adjacent","FE","6","5","O.jpg","R.jpg","0","0","1","",""
"","feedback","","html-keyboard-response","364","390320","0.0-1.0-483.0-0.0","0","0","56941","","null","","","null","53","","","","","","","","","","","","","","","",""
"","ITI","","html-keyboard-response","365","391345","0.0-1.0-486.0","0","0","56941","","null","","","null","53","","","","","","","","","","","","","","","NaN",""
"","S1","","html-keyboard-response","366","391608","0.0-1.0-488.0","0","0","56941","","null","","","null","54","","","","","","","","","","","","","","","",""
"","ISI","","html-keyboard-response","367","392626","0.0-1.0-489.0","0","0","56941","","null","","","null","54","NaN","","","","","","","","","","","","","","",""
"","S2","","html-keyboard-response","368","392896","0.0-1.0-490.0","0","0","56941","","null","","","null","54","","NaN","","","","","","","","","","","","","",""
"","response","","html-keyboard-response","369","393383","0.0-1.0-491.0-0.0","0","0","56941","","484","","","75","54","","","2","54","training","adjacent","AB","1","2","M.jpg","L.jpg","1","1","1","",""
"","feedback","","html-keyboard-response","370","394400","0.0-1.0-492.0-0.0","0","0","56941","","null","","","null","54","","","","","","","","","","","","","","","",""
"","ITI","","html-keyboard-response","371","395418","0.0-1.0-495.0","0","0","56941","","null","","","null","54","","","","","","","","","","","","","","","NaN",""
"","S1","","html-keyboard-response","372","395673","0.0-1.0-497.0","0","0","56941","","null","","","null","55","","","","","","","","","","","","","","","",""
"","ISI","","html-keyboard-response","373","396691","0.0-1.0-498.0","0","0","56941","","null","","","null","55","NaN","","","","","","","","","","","","","","",""
"","S2","","html-keyboard-response","374","396961","0.0-1.0-499.0","0","0","56941","","null","","","null","55","","NaN","","","","","","","","","","","","","",""
"","response","","html-keyboard-response","375","397536","0.0-1.0-500.0-0.0","0","0","56941","","572","","","75","55","","","2","55","training","adjacent","BC","2","3","L.jpg","P.jpg","1","1","1","",""
"","feedback","","html-keyboard-response","376","398543","0.0-1.0-501.0-0.0","0","0","56941","","null","","","null","55","","","","","","","","","","","","","","","",""
"","ITI","","html-keyboard-response","377","399567","0.0-1.0-504.0","0","0","56941","","null","","","null","55","","","","","","","","","","","","","","","NaN",""
"","S1","","html-keyboard-response","378","399830","0.0-1.0-506.0","0","0","56941","","null","","","null","56","","","","","","","","","","","","","","","",""
"","ISI","","html-keyboard-response","379","400849","0.0-1.0-507.0","0","0","56941","","null","","","null","56","NaN","","","","","","","","","","","","","","",""
"","S2","","html-keyboard-response","380","401102","0.0-1.0-508.0","0","0","56941","","null","","","null","56","","NaN","","","","","","","","","","","","","",""
"","response","","html-keyboard-response","381","401520","0.0-1.0-509.0-0.0","0","0","56941","","413","","","68","56","","","2","56","training","adjacent","DE","4","5","N.jpg","R.jpg","0","1","0","",""
"","feedback","","html-keyboard-response","382","402537","0.0-1.0-510.0-0.0","0","0","56941","","null","","","null","56","","","","","","","","","","","","","","","",""
"","time_out","","html-keyboard-response","383","404543","0.0-1.0-512.0-0.0","0","0","56941","","null","","","null","56","","","","","","","","","","","","","","","",""
"","ITI","","html-keyboard-response","384","405562","0.0-1.0-513.0","0","0","56941","","null","","","null","56","","","","","","","","","","","","","","","NaN",""
"","S1","","html-keyboard-response","385","405816","0.0-1.0-515.0","0","0","56941","","null","","","null","57","","","","","","","","","","","","","","","",""
"","ISI","","html-keyboard-response","386","406834","0.0-1.0-516.0","0","0","56941","","null","","","null","57","NaN","","","","","","","","","","","","","","",""
"","S2","","html-keyboard-response","387","407088","0.0-1.0-517.0","0","0","56941","","null","","","null","57","","NaN","","","","","","","","","","","","","",""
"","response","","html-keyboard-response","388","407232","0.0-1.0-518.0-0.0","0","0","56941","","139","","","75","57","","","2","57","training","adjacent","BA","2","1","L.jpg","M.jpg","1","0","0","",""
"","feedback","","html-keyboard-response","389","408238","0.0-1.0-519.0-0.0","0","0","56941","","null","","","null","57","","","","","","","","","","","","","","","",""
"","time_out","","html-keyboard-response","390","410244","0.0-1.0-521.0-0.0","0","0","56941","","null","","","null","57","","","","","","","","","","","","","","","",""
"","ITI","","html-keyboard-response","391","411263","0.0-1.0-522.0","0","0","56941","","null","","","null","57","","","","","","","","","","","","","","","NaN",""
"","S1","","html-keyboard-response","392","411517","0.0-1.0-524.0","0","0","56941","","null","","","null","58","","","","","","","","","","","","","","","",""
"","ISI","","html-keyboard-response","393","412535","0.0-1.0-525.0","0","0","56941","","null","","","null","58","NaN","","","","","","","","","","","","","","",""
"","S2","","html-keyboard-response","394","412804","0.0-1.0-526.0","0","0","56941","","null","","","null","58","","NaN","","","","","","","","","","","","","",""
"","response","","html-keyboard-response","395","413680","0.0-1.0-527.0-0.0","0","0","56941","","872","","","68","58","","","2","58","training","adjacent","CD","3","4","P.jpg","N.jpg","0","1","0","",""
"","feedback","","html-keyboard-response","396","414687","0.0-1.0-528.0-0.0","0","0","56941","","null","","","null","58","","","","","","","","","","","","","","","",""
"","time_out","","html-keyboard-response","397","416694","0.0-1.0-530.0-0.0","0","0","56941","","null","","","null","58","","","","","","","","","","","","","","","",""
"","ITI","","html-keyboard-response","398","417718","0.0-1.0-531.0","0","0","56941","","null","","","null","58","","","","","","","","","","","","","","","NaN",""
"","S1","","html-keyboard-response","399","417981","0.0-1.0-533.0","0","0","56941","","null","","","null","59","","","","","","","","","","","","","","","",""
"","ISI","","html-keyboard-response","400","418999","0.0-1.0-534.0","0","0","56941","","null","","","null","59","NaN","","","","","","","","","","","","","","",""
"","S2","","html-keyboard-response","401","419254","0.0-1.0-535.0","0","0","56941","","null","","","null","59","","NaN","","","","","","","","","","","","","",""
"","response","","html-keyboard-response","402","419679","0.0-1.0-536.0-0.0","0","0","56941","","423","","","75","59","","","2","59","training","adjacent","BC","2","3","L.jpg","P.jpg","1","1","1","",""
"","feedback","","html-keyboard-response","403","420688","0.0-1.0-537.0-0.0","0","0","56941","","null","","","null","59","","","","","","","","","","","","","","","",""
"","ITI","","html-keyboard-response","404","421707","0.0-1.0-540.0","0","0","56941","","null","","","null","59","","","","","","","","","","","","","","","NaN",""
"","S1","","html-keyboard-response","405","421961","0.0-1.0-542.0","0","0","56941","","null","","","null","60","","","","","","","","","","","","","","","",""
"","ISI","","html-keyboard-response","406","422980","0.0-1.0-543.0","0","0","56941","","null","","","null","60","NaN","","","","","","","","","","","","","","",""
"","S2","","html-keyboard-response","407","423234","0.0-1.0-544.0","0","0","56941","","null","","","null","60","","NaN","","","","","","","","","","","","","",""
"","response","","html-keyboard-response","408","423719","0.0-1.0-545.0-0.0","0","0","56941","","482","","","75","60","","","2","60","training","adjacent","FG","6","7","O.jpg","Q.jpg","1","1","1","",""
"","feedback","","html-keyboard-response","409","424737","0.0-1.0-546.0-0.0","0","0","56941","","null","","","null","60","","","","","","","","","","","","","","","",""
"","ITI","","html-keyboard-response","410","425756","0.0-1.0-549.0","0","0","56941","","null","","","null","60","","","","","","","","","","","","","","","NaN",""
"","S1","","html-keyboard-response","411","426019","0.0-1.0-551.0","0","0","56941","","null","","","null","61","","","","","","","","","","","","","","","",""
"","ISI","","html-keyboard-response","412","427044","0.0-1.0-552.0","0","0","56941","","null","","","null","61","NaN","","","","","","","","","","","","","","",""
"","S2","","html-keyboard-response","413","427307","0.0-1.0-553.0","0","0","56941","","null","","","null","61","","NaN","","","","","","","","","","","","","",""
"","response","","html-keyboard-response","414","427904","0.0-1.0-554.0-0.0","0","0","56941","","594","","","75","61","","","2","61","training","adjacent","BC","2","3","L.jpg","P.jpg","1","1","1","",""
"","feedback","","html-keyboard-response","415","428912","0.0-1.0-555.0-0.0","0","0","56941","","null","","","null","61","","","","","","","","","","","","","","","",""
"","ITI","","html-keyboard-response","416","429930","0.0-1.0-558.0","0","0","56941","","null","","","null","61","","","","","","","","","","","","","","","NaN",""
"","S1","","html-keyboard-response","417","430184","0.0-1.0-560.0","0","0","56941","","null","","","null","62","","","","","","","","","","","","","","","",""
"","ISI","","html-keyboard-response","418","431203","0.0-1.0-561.0","0","0","56941","","null","","","null","62","NaN","","","","","","","","","","","","","","",""
"","S2","","html-keyboard-response","419","431456","0.0-1.0-562.0","0","0","56941","","null","","","null","62","","NaN","","","","","","","","","","","","","",""
"","response","","html-keyboard-response","420","431863","0.0-1.0-563.0-0.0","0","0","56941","","404","","","75","62","","","2","62","training","adjacent","CB","3","2","P.jpg","L.jpg","1","0","0","",""
"","feedback","","html-keyboard-response","421","432876","0.0-1.0-564.0-0.0","0","0","56941","","null","","","null","62","","","","","","","","","","","","","","","",""
"","time_out","","html-keyboard-response","422","434882","0.0-1.0-566.0-0.0","0","0","56941","","null","","","null","62","","","","","","","","","","","","","","","",""
"","ITI","","html-keyboard-response","423","435900","0.0-1.0-567.0","0","0","56941","","null","","","null","62","","","","","","","","","","","","","","","NaN",""
"","S1","","html-keyboard-response","424","436171","0.0-1.0-569.0","0","0","56941","","null","","","null","63","","","","","","","","","","","","","","","",""
"","ISI","","html-keyboard-response","425","437188","0.0-1.0-570.0","0","0","56941","","null","","","null","63","NaN","","","","","","","","","","","","","","",""
"","S2","","html-keyboard-response","426","437452","0.0-1.0-571.0","0","0","56941","","null","","","null","63","","NaN","","","","","","","","","","","","","",""
"","response","","html-keyboard-response","427","437824","0.0-1.0-572.0-0.0","0","0","56941","","368","","","75","63","","","2","63","training","adjacent","GF","7","6","Q.jpg","O.jpg","1","0","0","",""
"","feedback","","html-keyboard-response","428","438839","0.0-1.0-573.0-0.0","0","0","56941","","null","","","null","63","","","","","","","","","","","","","","","",""
"","time_out","","html-keyboard-response","429","440845","0.0-1.0-575.0-0.0","0","0","56941","","null","","","null","63","","","","","","","","","","","","","","","",""
"","ITI","","html-keyboard-response","430","441864","0.0-1.0-576.0","0","0","56941","","null","","","null","63","","","","","","","","","","","","","","","NaN",""
"","S1","","html-keyboard-response","431","442118","0.0-1.0-578.0","0","0","56941","","null","","","null","64","","","","","","","","","","","","","","","",""
"","ISI","","html-keyboard-response","432","443137","0.0-1.0-579.0","0","0","56941","","null","","","null","64","NaN","","","","","","","","","","","","","","",""
"","S2","","html-keyboard-response","433","443390","0.0-1.0-580.0","0","0","56941","","null","","","null","64","","NaN","","","","","","","","","","","","","",""
"","response","","html-keyboard-response","434","443840","0.0-1.0-581.0-0.0","0","0","56941","","445","","","75","64","","","2","64","training","adjacent","BA","2","1","L.jpg","M.jpg","1","0","0","",""
"","feedback","","html-keyboard-response","435","444859","0.0-1.0-582.0-0.0","0","0","56941","","null","","","null","64","","","","","","","","","","","","","","","",""
"","time_out","","html-keyboard-response","436","446877","0.0-1.0-584.0-0.0","0","0","56941","","null","","","null","64","","","","","","","","","","","","","","","",""
"","ITI","","html-keyboard-response","437","447903","0.0-1.0-585.0","0","0","56941","","null","","","null","64","","","","","","","","","","","","","","","NaN",""
"","S1","","html-keyboard-response","438","448166","0.0-1.0-587.0","0","0","56941","","null","","","null","65","","","","","","","","","","","","","","","",""
"","ISI","","html-keyboard-response","439","449184","0.0-1.0-588.0","0","0","56941","","86","","","68","65","d","","","","","","","","","","","","","","",""
"","S2","","html-keyboard-response","440","449453","0.0-1.0-589.0","0","0","56941","","null","","","null","65","","NaN","","","","","","","","","","","","","",""
"","response","","html-keyboard-response","441","449824","0.0-1.0-590.0-0.0","0","0","56941","","367","","","75","65","","","2","65","training","adjacent","BA","2","1","L.jpg","M.jpg","1","0","0","",""
"","feedback","","html-keyboard-response","442","450840","0.0-1.0-591.0-0.0","0","0","56941","","null","","","null","65","","","","","","","","","","","","","","","",""
"","time_out","","html-keyboard-response","443","452847","0.0-1.0-593.0-0.0","0","0","56941","","null","","","null","65","","","","","","","","","","","","","","","",""
"","ITI","","html-keyboard-response","444","453865","0.0-1.0-594.0","0","0","56941","","null","","","null","65","","","","","","","","","","","","","","","NaN",""
"","S1","","html-keyboard-response","445","454120","0.0-1.0-596.0","0","0","56941","","null","","","null","66","","","","","","","","","","","","","","","",""
"","ISI","","html-keyboard-response","446","455137","0.0-1.0-597.0","0","0","56941","","732","","","68","66","d","","","","","","","","","","","","","","",""
"","S2","","html-keyboard-response","447","455401","0.0-1.0-598.0","0","0","56941","","null","","","null","66","","NaN","","","","","","","","","","","","","",""
"","response","","html-keyboard-response","448","455791","0.0-1.0-599.0-0.0","0","0","56941","","387","","","68","66","","","2","66","training","adjacent","DE","4","5","N.jpg","R.jpg","0","1","0","",""
"","feedback","","html-keyboard-response","449","456804","0.0-1.0-600.0-0.0","0","0","56941","","null","","","null","66","","","","","","","","","","","","","","","",""
"","time_out","","html-keyboard-response","450","458811","0.0-1.0-602.0-0.0","0","0","56941","","null","","","null","66","","","","","","","","","","","","","","","",""
"","ITI","","html-keyboard-response","451","459835","0.0-1.0-603.0","0","0","56941","","null","","","null","66","","","","","","","","","","","","","","","NaN",""
"","S1","","html-keyboard-response","452","460098","0.0-1.0-605.0","0","0","56941","","null","","","null","67","","","","","","","","","","","","","","","",""
"","ISI","","html-keyboard-response","453","461117","0.0-1.0-606.0","0","0","56941","","null","","","null","67","NaN","","","","","","","","","","","","","","",""
"","S2","","html-keyboard-response","454","461371","0.0-1.0-607.0","0","0","56941","","null","","","null","67","","NaN","","","","","","","","","","","","","",""
"","response","","html-keyboard-response","455","461711","0.0-1.0-608.0-0.0","0","0","56941","","336","","","68","67","","","2","67","training","adjacent","FE","6","5","O.jpg","R.jpg","0","0","1","",""
"","feedback","","html-keyboard-response","456","462722","0.0-1.0-609.0-0.0","0","0","56941","","null","","","null","67","","","","","","","","","","","","","","","",""
"","ITI","","html-keyboard-response","457","463745","0.0-1.0-612.0","0","0","56941","","null","","","null","67","","","","","","","","","","","","","","","NaN",""
"","S1","","html-keyboard-response","458","464010","0.0-1.0-614.0","0","0","56941","","null","","","null","68","","","","","","","","","","","","","","","",""
"","ISI","","html-keyboard-response","459","465028","0.0-1.0-615.0","0","0","56941","","null","","","null","68","NaN","","","","","","","","","","","","","","",""
"","S2","","html-keyboard-response","460","465298","0.0-1.0-616.0","0","0","56941","","null","","","null","68","","NaN","","","","","","","","","","","","","",""
"","response","","html-keyboard-response","461","465519","0.0-1.0-617.0-0.0","0","0","56941","","218","","","75","68","","","2","68","training","adjacent","BC","2","3","L.jpg","P.jpg","1","1","1","",""
"","feedback","","html-keyboard-response","462","466532","0.0-1.0-618.0-0.0","0","0","56941","","null","","","null","68","","","","","","","","","","","","","","","",""
"","ITI","","html-keyboard-response","463","467557","0.0-1.0-621.0","0","0","56941","","null","","","null","68","","","","","","","","","","","","","","","NaN",""
"","S1","","html-keyboard-response","464","467820","0.0-1.0-623.0","0","0","56941","","null","","","null","69","","","","","","","","","","","","","","","",""
"","ISI","","html-keyboard-response","465","468838","0.0-1.0-624.0","0","0","56941","","null","","","null","69","NaN","","","","","","","","","","","","","","",""
"","S2","","html-keyboard-response","466","469093","0.0-1.0-625.0","0","0","56941","","null","","","null","69","","NaN","","","","","","","","","","","","","",""
"","response","","html-keyboard-response","467","469343","0.0-1.0-626.0-0.0","0","0","56941","","247","","","68","69","","","2","69","training","adjacent","DE","4","5","N.jpg","R.jpg","0","1","0","",""
"","feedback","","html-keyboard-response","468","470365","0.0-1.0-627.0-0.0","0","0","56941","","null","","","null","69","","","","","","","","","","","","","","","",""
"","time_out","","html-keyboard-response","469","472371","0.0-1.0-629.0-0.0","0","0","56941","","null","","","null","69","","","","","","","","","","","","","","","",""
"","ITI","","html-keyboard-response","470","473389","0.0-1.0-630.0","0","0","56941","","null","","","null","69","","","","","","","","","","","","","","","NaN",""
"","S1","","html-keyboard-response","471","473652","0.0-1.0-632.0","0","0","56941","","null","","","null","70","","","","","","","","","","","","","","","",""
"","ISI","","html-keyboard-response","472","474678","0.0-1.0-633.0","0","0","56941","","null","","","null","70","NaN","","","","","","","","","","","","","","",""
"","S2","","html-keyboard-response","473","474941","0.0-1.0-634.0","0","0","56941","","null","","","null","70","","NaN","","","","","","","","","","","","","",""
"","response","","html-keyboard-response","474","475287","0.0-1.0-635.0-0.0","0","0","56941","","343","","","75","70","","","2","70","training","adjacent","CB","3","2","P.jpg","L.jpg","1","0","0","",""
"","feedback","","html-keyboard-response","475","476298","0.0-1.0-636.0-0.0","0","0","56941","","null","","","null","70","","","","","","","","","","","","","","","",""
"","time_out","","html-keyboard-response","476","478304","0.0-1.0-638.0-0.0","0","0","56941","","null","","","null","70","","","","","","","","","","","","","","","",""
"","ITI","","html-keyboard-response","477","479322","0.0-1.0-639.0","0","0","56941","","null","","","null","70","","","","","","","","","","","","","","","NaN",""
"","S1","","html-keyboard-response","478","479591","0.0-1.0-641.0","0","0","56941","","null","","","null","71","","","","","","","","","","","","","","","",""
"","ISI","","html-keyboard-response","479","480610","0.0-1.0-642.0","0","0","56941","","null","","","null","71","NaN","","","","","","","","","","","","","","",""
"","S2","","html-keyboard-response","480","480873","0.0-1.0-643.0","0","0","56941","","null","","","null","71","","NaN","","","","","","","","","","","","","",""
"","response","","html-keyboard-response","481","480951","0.0-1.0-644.0-0.0","0","0","56941","","74","","","75","71","","","2","71","training","adjacent","GF","7","6","Q.jpg","O.jpg","1","0","0","",""
"","feedback","","html-keyboard-response","482","481960","0.0-1.0-645.0-0.0","0","0","56941","","null","","","null","71","","","","","","","","","","","","","","","",""
"","time_out","","html-keyboard-response","483","483966","0.0-1.0-647.0-0.0","0","0","56941","","null","","","null","71","","","","","","","","","","","","","","","",""
"","ITI","","html-keyboard-response","484","484984","0.0-1.0-648.0","0","0","56941","","null","","","null","71","","","","","","","","","","","","","","","NaN",""
"","S1","","html-keyboard-response","485","485253","0.0-1.0-650.0","0","0","56941","","null","","","null","72","","","","","","","","","","","","","","","",""
"","ISI","","html-keyboard-response","486","486272","0.0-1.0-651.0","0","0","56941","","null","","","null","72","NaN","","","","","","","","","","","","","","",""
"","S2","","html-keyboard-response","487","486526","0.0-1.0-652.0","0","0","56941","","null","","","null","72","","NaN","","","","","","","","","","","","","",""
"","response","","html-keyboard-response","488","486960","0.0-1.0-653.0-0.0","0","0","56941","","430","","","75","72","","","2","72","training","adjacent","GF","7","6","Q.jpg","O.jpg","1","0","0","",""
"","feedback","","html-keyboard-response","489","487976","0.0-1.0-654.0-0.0","0","0","56941","","null","","","null","72","","","","","","","","","","","","","","","",""
"","time_out","","html-keyboard-response","490","489982","0.0-1.0-656.0-0.0","0","0","56941","","null","","","null","72","","","","","","","","","","","","","","","",""
"","ITI","","html-keyboard-response","491","491000","0.0-1.0-657.0","0","0","56941","","null","","","null","72","","","","","","","","","","","","","","","NaN",""
"","S1","","html-keyboard-response","492","491255","0.0-1.0-659.0","0","0","56941","","null","","","null","73","","","","","","","","","","","","","","","",""
"","ISI","","html-keyboard-response","493","492272","0.0-1.0-660.0","0","0","56941","","null","","","null","73","NaN","","","","","","","","","","","","","","",""
"","S2","","html-keyboard-response","494","492528","0.0-1.0-661.0","0","0","56941","","null","","","null","73","","NaN","","","","","","","","","","","","","",""
"","response","","html-keyboard-response","495","492911","0.0-1.0-662.0-0.0","0","0","56941","","379","","","68","73","","","2","73","training","adjacent","CD","3","4","P.jpg","N.jpg","0","1","0","",""
"","feedback","","html-keyboard-response","496","493931","0.0-1.0-663.0-0.0","0","0","56941","","null","","","null","73","","","","","","","","","","","","","","","",""
"","time_out","","html-keyboard-response","497","495937","0.0-1.0-665.0-0.0","0","0","56941","","null","","","null","73","","","","","","","","","","","","","","","",""
"","ITI","","html-keyboard-response","498","496955","0.0-1.0-666.0","0","0","56941","","null","","","null","73","","","","","","","","","","","","","","","NaN",""
"","S1","","html-keyboard-response","499","497217","0.0-1.0-668.0","0","0","56941","","null","","","null","74","","","","","","","","","","","","","","","",""
"","ISI","","html-keyboard-response","500","498242","0.0-1.0-669.0","0","0","56941","","null","","","null","74","NaN","","","","","","","","","","","","","","",""
"","S2","","html-keyboard-response","501","498506","0.0-1.0-670.0","0","0","56941","","null","","","null","74","","NaN","","","","","","","","","","","","","",""
"","response","","html-keyboard-response","502","498583","0.0-1.0-671.0-0.0","0","0","56941","","71","","","75","74","","","2","74","training","adjacent","AB","1","2","M.jpg","L.jpg","1","1","1","",""
"","feedback","","html-keyboard-response","503","499594","0.0-1.0-672.0-0.0","0","0","56941","","null","","","null","74","","","","","","","","","","","","","","","",""
"","ITI","","html-keyboard-response","504","500613","0.0-1.0-675.0","0","0","56941","","null","","","null","74","","","","","","","","","","","","","","","NaN",""
"","S1","","html-keyboard-response","505","500882","0.0-1.0-677.0","0","0","56941","","null","","","null","75","","","","","","","","","","","","","","","",""
"","ISI","","html-keyboard-response","506","501901","0.0-1.0-678.0","0","0","56941","","null","","","null","75","NaN","","","","","","","","","","","","","","",""
"","S2","","html-keyboard-response","507","502170","0.0-1.0-679.0","0","0","56941","","null","","","null","75","","NaN","","","","","","","","","","","","","",""
"","response","","html-keyboard-response","508","502328","0.0-1.0-680.0-0.0","0","0","56941","","154","","","68","75","","","2","75","training","adjacent","DE","4","5","N.jpg","R.jpg","0","1","0","",""
"","feedback","","html-keyboard-response","509","503335","0.0-1.0-681.0-0.0","0","0","56941","","null","","","null","75","","","","","","","","","","","","","","","",""
"","time_out","","html-keyboard-response","510","505342","0.0-1.0-683.0-0.0","0","0","56941","","null","","","null","75","","","","","","","","","","","","","","","",""
"","ITI","","html-keyboard-response","511","506366","0.0-1.0-684.0","0","0","56941","","null","","","null","75","","","","","","","","","","","","","","","NaN",""
"","S1","","html-keyboard-response","512","506629","0.0-1.0-686.0","0","0","56941","","null","","","null","76","","","","","","","","","","","","","","","",""
"","ISI","","html-keyboard-response","513","507647","0.0-1.0-687.0","0","0","56941","","null","","","null","76","NaN","","","","","","","","","","","","","","",""
"","S2","","html-keyboard-response","514","507902","0.0-1.0-688.0","0","0","56941","","null","","","null","76","","NaN","","","","","","","","","","","","","",""
"","response","","html-keyboard-response","515","507983","0.0-1.0-689.0-0.0","0","0","56941","","77","","","75","76","","","2","76","training","adjacent","BA","2","1","L.jpg","M.jpg","1","0","0","",""
"","feedback","","html-keyboard-response","516","508989","0.0-1.0-690.0-0.0","0","0","56941","","null","","","null","76","","","","","","","","","","","","","","","",""
"","time_out","","html-keyboard-response","517","510995","0.0-1.0-692.0-0.0","0","0","56941","","null","","","null","76","","","","","","","","","","","","","","","",""
"","ITI","","html-keyboard-response","518","512013","0.0-1.0-693.0","0","0","56941","","null","","","null","76","","","","","","","","","","","","","","","NaN",""
"","S1","","html-keyboard-response","519","512283","0.0-1.0-695.0","0","0","56941","","null","","","null","77","","","","","","","","","","","","","","","",""
"","ISI","","html-keyboard-response","520","513301","0.0-1.0-696.0","0","0","56941","","null","","","null","77","NaN","","","","","","","","","","","","","","",""
"","S2","","html-keyboard-response","521","513564","0.0-1.0-697.0","0","0","56941","","null","","","null","77","","NaN","","","","","","","","","","","","","",""
"","response","","html-keyboard-response","522","514168","0.0-1.0-698.0-0.0","0","0","56941","","599","","","75","77","","","2","77","training","adjacent","DC","4","3","N.jpg","P.jpg","1","0","0","",""
"","feedback","","html-keyboard-response","523","515191","0.0-1.0-699.0-0.0","0","0","56941","","null","","","null","77","","","","","","","","","","","","","","","",""
"","time_out","","html-keyboard-response","524","517196","0.0-1.0-701.0-0.0","0","0","56941","","null","","","null","77","","","","","","","","","","","","","","","",""
"","ITI","","html-keyboard-response","525","518215","0.0-1.0-702.0","0","0","56941","","null","","","null","77","","","","","","","","","","","","","","","NaN",""
"","S1","","html-keyboard-response","526","518478","0.0-1.0-704.0","0","0","56941","","null","","","null","78","","","","","","","","","","","","","","","",""
"","ISI","","html-keyboard-response","527","519502","0.0-1.0-705.0","0","0","56941","","null","","","null","78","NaN","","","","","","","","","","","","","","",""
"","S2","","html-keyboard-response","528","519765","0.0-1.0-706.0","0","0","56941","","null","","","null","78","","NaN","","","","","","","","","","","","","",""
"","response","","html-keyboard-response","529","520174","0.0-1.0-707.0-0.0","0","0","56941","","406","","","75","78","","","2","78","training","adjacent","AB","1","2","M.jpg","L.jpg","1","1","1","",""
"","feedback","","html-keyboard-response","530","521185","0.0-1.0-708.0-0.0","0","0","56941","","null","","","null","78","","","","","","","","","","","","","","","",""
"","ITI","","html-keyboard-response","531","522209","0.0-1.0-711.0","0","0","56941","","null","","","null","78","","","","","","","","","","","","","","","NaN",""
"","S1","","html-keyboard-response","532","522472","0.0-1.0-713.0","0","0","56941","","null","","","null","79","","","","","","","","","","","","","","","",""
"","ISI","","html-keyboard-response","533","523491","0.0-1.0-714.0","0","0","56941","","null","","","null","79","NaN","","","","","","","","","","","","","","",""
"","S2","","html-keyboard-response","534","523745","0.0-1.0-715.0","0","0","56941","","null","","","null","79","","NaN","","","","","","","","","","","","","",""
"","response","","html-keyboard-response","535","525016","0.0-1.0-716.0-0.0","0","0","56941","","1266","","","75","79","","","2","79","training","adjacent","DC","4","3","N.jpg","P.jpg","1","0","0","",""
"","feedback","","html-keyboard-response","536","526033","0.0-1.0-717.0-0.0","0","0","56941","","null","","","null","79","","","","","","","","","","","","","","","",""
"","time_out","","html-keyboard-response","537","528053","0.0-1.0-719.0-0.0","0","0","56941","","null","","","null","79","","","","","","","","","","","","","","","",""
"","ITI","","html-keyboard-response","538","529071","0.0-1.0-720.0","0","0","56941","","null","","","null","79","","","","","","","","","","","","","","","NaN",""
"","S1","","html-keyboard-response","539","529326","0.0-1.0-722.0","0","0","56941","","null","","","null","80","","","","","","","","","","","","","","","",""
"","ISI","","html-keyboard-response","540","530344","0.0-1.0-723.0","0","0","56941","","null","","","null","80","NaN","","","","","","","","","","","","","","",""
"","S2","","html-keyboard-response","541","530607","0.0-1.0-724.0","0","0","56941","","null","","","null","80","","NaN","","","","","","","","","","","","","",""
"","response","","html-keyboard-response","542","532366","0.0-1.0-725.0-0.0","0","0","56941","","null","","","null","80","","","2","80","training","adjacent","ED","5","4","R.jpg","N.jpg","NaN","0","0","",""
"","too_slow_prompt","","html-keyboard-response","543","533384","0.0-1.0-727.0-0.0","1","0","56941","","null","","","null","","","","","","","","","","","","","","","","",""
"","time_out","","html-keyboard-response","544","535390","0.0-1.0-728.0-0.0","0","0","56941","","null","","","null","80","","","","","","","","","","","","","","","",""
"","ITI","","html-keyboard-response","545","536408","0.0-1.0-729.0","0","0","56941","","null","","","null","80","","","","","","","","","","","","","","","NaN",""
"","S1","","html-keyboard-response","546","536662","0.0-1.0-731.0","0","0","56941","","null","","","null","81","","","","","","","","","","","","","","","",""
"","ISI","","html-keyboard-response","547","537680","0.0-1.0-732.0","0","0","56941","","null","","","null","81","NaN","","","","","","","","","","","","","","",""
"","S2","","html-keyboard-response","548","537950","0.0-1.0-733.0","0","0","56941","","null","","","null","81","","NaN","","","","","","","","","","","","","",""
"","response","","html-keyboard-response","549","538014","0.0-1.0-734.0-0.0","0","0","56941","","62","","","68","81","","","2","81","training","adjacent","EF","5","6","R.jpg","O.jpg","0","1","0","",""
"","feedback","","html-keyboard-response","550","539030","0.0-1.0-735.0-0.0","0","0","56941","","null","","","null","81","","","","","","","","","","","","","","","",""
"","time_out","","html-keyboard-response","551","541037","0.0-1.0-737.0-0.0","0","0","56941","","null","","","null","81","","","","","","","","","","","","","","","",""
"","ITI","","html-keyboard-response","552","542062","0.0-1.0-738.0","0","0","56941","","null","","","null","81","","","","","","","","","","","","","","","NaN",""
"","S1","","html-keyboard-response","553","542325","0.0-1.0-740.0","0","0","56941","","null","","","null","82","","","","","","","","","","","","","","","",""
"","ISI","","html-keyboard-response","554","543343","0.0-1.0-741.0","0","0","56941","","143","","","75","82","k","","","","","","","","","","","","","","",""
"","S2","","html-keyboard-response","555","543597","0.0-1.0-742.0","0","0","56941","","null","","","null","82","","NaN","","","","","","","","","","","","","",""
"","response","","html-keyboard-response","556","544175","0.0-1.0-743.0-0.0","0","0","56941","","574","","","68","82","","","2","82","training","adjacent","FE","6","5","O.jpg","R.jpg","0","0","1","",""
"","feedback","","html-keyboard-response","557","545186","0.0-1.0-744.0-0.0","0","0","56941","","null","","","null","82","","","","","","","","","","","","","","","",""
"","ITI","","html-keyboard-response","558","546204","0.0-1.0-747.0","0","0","56941","","null","","","null","82","","","","","","","","","","","","","","","NaN",""
"","S1","","html-keyboard-response","559","546474","0.0-1.0-749.0","0","0","56941","","null","","","null","83","","","","","","","","","","","","","","","",""
"","ISI","","html-keyboard-response","560","547492","0.0-1.0-750.0","0","0","56941","","null","","","null","83","NaN","","","","","","","","","","","","","","",""
"","S2","","html-keyboard-response","561","547755","0.0-1.0-751.0","0","0","56941","","null","","","null","83","","NaN","","","","","","","","","","","","","",""
"","response","","html-keyboard-response","562","549071","0.0-1.0-752.0-0.0","0","0","56941","","1312","","","68","83","","","2","83","training","adjacent","DC","4","3","N.jpg","P.jpg","0","0","1","",""
"","feedback","","html-keyboard-response","563","550084","0.0-1.0-753.0-0.0","0","0","56941","","null","","","null","83","","","","","","","","","","","","","","","",""
"","ITI","","html-keyboard-response","564","551102","0.0-1.0-756.0","0","0","56941","","null","","","null","83","","","","","","","","","","","","","","","NaN",""
"","S1","","html-keyboard-response","565","551365","0.0-1.0-758.0","0","0","56941","","null","","","null","84","","","","","","","","","","","","","","","",""
"","ISI","","html-keyboard-response","566","552390","0.0-1.0-759.0","0","0","56941","","null","","","null","84","NaN","","","","","","","","","","","","","","",""
"","S2","","html-keyboard-response","567","552653","0.0-1.0-760.0","0","0","56941","","null","","","null","84","","NaN","","","","","","","","","","","","","",""
"","response","","html-keyboard-response","568","552846","0.0-1.0-761.0-0.0","0","0","56941","","190","","","68","84","","","2","84","training","adjacent","EF","5","6","R.jpg","O.jpg","0","1","0","",""
"","feedback","","html-keyboard-response","569","553857","0.0-1.0-762.0-0.0","0","0","56941","","null","","","null","84","","","","","","","","","","","","","","","",""
"","time_out","","html-keyboard-response","570","555864","0.0-1.0-764.0-0.0","0","0","56941","","null","","","null","84","","","","","","","","","","","","","","","",""
"","ITI","","html-keyboard-response","571","556878","0.0-1.0-765.0","0","0","56941","","null","","","null","84","","","","","","","","","","","","","","","NaN",""
"","S1","","html-keyboard-response","572","557132","0.0-1.0-767.0","0","0","56941","","null","","","null","85","","","","","","","","","","","","","","","",""
"","ISI","","html-keyboard-response","573","558150","0.0-1.0-768.0","0","0","56941","","null","","","null","85","NaN","","","","","","","","","","","","","","",""
"","S2","","html-keyboard-response","574","558405","0.0-1.0-769.0","0","0","56941","","null","","","null","85","","NaN","","","","","","","","","","","","","",""
"","response","","html-keyboard-response","575","558839","0.0-1.0-770.0-0.0","0","0","56941","","431","","","75","85","","","2","85","training","adjacent","CB","3","2","P.jpg","L.jpg","1","0","0","",""
"","feedback","","html-keyboard-response","576","559855","0.0-1.0-771.0-0.0","0","0","56941","","null","","","null","85","","","","","","","","","","","","","","","",""
"","time_out","","html-keyboard-response","577","561860","0.0-1.0-773.0-0.0","0","0","56941","","null","","","null","85","","","","","","","","","","","","","","","",""
"","ITI","","html-keyboard-response","578","562879","0.0-1.0-774.0","0","0","56941","","null","","","null","85","","","","","","","","","","","","","","","NaN",""
"","S1","","html-keyboard-response","579","563133","0.0-1.0-776.0","0","0","56941","","null","","","null","86","","","","","","","","","","","","","","","",""
"","ISI","","html-keyboard-response","580","564152","0.0-1.0-777.0","0","0","56941","","null","","","null","86","NaN","","","","","","","","","","","","","","",""
"","S2","","html-keyboard-response","581","564421","0.0-1.0-778.0","0","0","56941","","null","","","null","86","","NaN","","","","","","","","","","","","","",""
