"success","ttype","start_time","trial_type","trial_index","time_elapsed","internal_node_id","warning","missed_checkup","PID","view_history","rt","responses","repeat_instructions","key_press","index","keypress_isi","keypress_S2","block","trial_num","phase","group_type","pair_type","S1_stim","S2_stim","S1_img","S2_img","S1_chosen","S1_higher","accuracy","keypress_iti","total_bonus_tally"
"true","full_screen","d03072023hr1946","fullscreen","0","16729","0.0-0.0","0","0","20187","","","","","","","","","","","","","","","","","","","","","",""
"","instructions","","instructions","1","56495","0.0-1.0-0.0-0.0","0","0","20187","[{""page_index"":0,""viewing_time"":4326},{""page_index"":1,""viewing_time"":26304},{""page_index"":2,""viewing_time"":7683},{""page_index"":3,""viewing_time"":1453}]","39766","","","","","","","","","","","","","","","","","","","",""
"","comprehension_check","","survey-multi-choice","2","84177","0.0-1.0-0.0-1.0","0","0","20187","","27680","{""Q0"":""True"",""Q1"":""K"",""Q2"":""Only when the screen 'MAKE A CHOICE' is shown"",""Q3"":""Green mark"",""Q4"":""either D or K""}","1","","","","","","","","","","","","","","","","","",""
"","missed_instruction_checkup","","html-keyboard-response","3","86893","0.0-1.0-0.0-2.0-0.0","0","1","20187","","2714","","","32","","","","","","","","","","","","","","","","",""
"","instructions","","instructions","4","111731","0.0-1.0-0.1-0.1","0","0","20187","[{""page_index"":0,""viewing_time"":3988},{""page_index"":1,""viewing_time"":16763},{""page_index"":2,""viewing_time"":3184},{""page_index"":3,""viewing_time"":903}]","24838","","","","","","","","","","","","","","","","","","","",""
"","comprehension_check","","survey-multi-choice","5","129687","0.0-1.0-0.1-1.1","0","0","20187","","17954","{""Q0"":""True"",""Q1"":""K"",""Q2"":""Once the second image appears and while the screen 'MAKE A CHOICE' is shown"",""Q3"":""Green mark"",""Q4"":""either D or K""}","0","","","","","","","","","","","","","","","","","",""
"","start_exp","","html-keyboard-response","6","132052","0.0-1.0-1.0","0","0","20187","","2363","","","32","","","","","","","","","","","","","","","","",""
"","S1","","html-keyboard-response","7","132304","0.0-1.0-2.0","0","0","20187","","null","","","null","0","","","","","","","","","","","","","","","",""
"","ISI","","html-keyboard-response","8","133305","0.0-1.0-3.0","0","0","20187","","null","","","null","0","NaN","","","","","","","","","","","","","","",""
"","S2","","html-keyboard-response","9","133557","0.0-1.0-4.0","0","0","20187","","null","","","null","0","","NaN","","","","","","","","","","","","","",""
"","response","","html-keyboard-response","10","135309","0.0-1.0-5.0-0.0","0","0","20187","","null","","","null","0","","","1","0","training","adjacent","EF","5","6","L.jpg","Q.jpg","NaN","1","0","",""
"","too_slow_prompt","","html-keyboard-response","11","136310","0.0-1.0-7.0-0.0","1","0","20187","","null","","","null","","","","","","","","","","","","","","","","",""
"","time_out","","html-keyboard-response","12","138311","0.0-1.0-8.0-0.0","0","0","20187","","null","","","null","0","","","","","","","","","","","","","","","",""
"","ITI","","html-keyboard-response","13","139313","0.0-1.0-9.0","0","0","20187","","null","","","null","0","","","","","","","","","","","","","","","NaN",""
"","S1","","html-keyboard-response","14","139564","0.0-1.0-11.0","0","0","20187","","null","","","null","1","","","","","","","","","","","","","","","",""
"","ISI","","html-keyboard-response","15","140565","0.0-1.0-12.0","0","0","20187","","null","","","null","1","NaN","","","","","","","","","","","","","","",""
"","S2","","html-keyboard-response","16","140818","0.0-1.0-13.0","0","0","20187","","null","","","null","1","","NaN","","","","","","","","","","","","","",""
"","response","","html-keyboard-response","17","141237","0.0-1.0-14.0-0.0","0","0","20187","","417","","","68","1","","","1","1","training","adjacent","GF","7","6","R.jpg","Q.jpg","0","0","1","",""
"","feedback","","html-keyboard-response","18","142239","0.0-1.0-15.0-0.0","0","0","20187","","null","","","null","1","","","","","","","","","","","","","","","",""
"","ITI","","html-keyboard-response","19","143249","0.0-1.0-18.0","0","0","20187","","null","","","null","1","","","","","","","","","","","","","","","NaN",""
"","S1","","html-keyboard-response","20","143500","0.0-1.0-20.0","0","0","20187","","null","","","null","2","","","","","","","","","","","","","","","",""
"","ISI","","html-keyboard-response","21","144501","0.0-1.0-21.0","0","0","20187","","null","","","null","2","NaN","","","","","","","","","","","","","","",""
"","S2","","html-keyboard-response","22","144753","0.0-1.0-22.0","0","0","20187","","null","","","null","2","","NaN","","","","","","","","","","","","","",""
"","response","","html-keyboard-response","23","145405","0.0-1.0-23.0-0.0","0","0","20187","","650","","","68","2","","","1","2","training","adjacent","AB","1","2","N.jpg","O.jpg","0","1","0","",""
"","feedback","","html-keyboard-response","24","146406","0.0-1.0-24.0-0.0","0","0","20187","","null","","","null","2","","","","","","","","","","","","","","","",""
"","time_out","","html-keyboard-response","25","148407","0.0-1.0-26.0-0.0","0","0","20187","","null","","","null","2","","","","","","","","","","","","","","","",""
"","ITI","","html-keyboard-response","26","149409","0.0-1.0-27.0","0","0","20187","","null","","","null","2","","","","","","","","","","","","","","","NaN",""
"","S1","","html-keyboard-response","27","149661","0.0-1.0-29.0","0","0","20187","","null","","","null","3","","","","","","","","","","","","","","","",""
"","ISI","","html-keyboard-response","28","150663","0.0-1.0-30.0","0","0","20187","","null","","","null","3","NaN","","","","","","","","","","","","","","",""
"","S2","","html-keyboard-response","29","150915","0.0-1.0-31.0","0","0","20187","","null","","","null","3","","NaN","","","","","","","","","","","","","",""
"","response","","html-keyboard-response","30","151490","0.0-1.0-32.0-0.0","0","0","20187","","573","","","75","3","","","1","3","training","adjacent","CB","3","2","M.jpg","O.jpg","1","0","0","",""
"","feedback","","html-keyboard-response","31","152491","0.0-1.0-33.0-0.0","0","0","20187","","null","","","null","3","","","","","","","","","","","","","","","",""
"","time_out","","html-keyboard-response","32","154492","0.0-1.0-35.0-0.0","0","0","20187","","null","","","null","3","","","","","","","","","","","","","","","",""
"","ITI","","html-keyboard-response","33","155493","0.0-1.0-36.0","0","0","20187","","null","","","null","3","","","","","","","","","","","","","","","NaN",""
"","S1","","html-keyboard-response","34","155744","0.0-1.0-38.0","0","0","20187","","null","","","null","4","","","","","","","","","","","","","","","",""
"","ISI","","html-keyboard-response","35","156746","0.0-1.0-39.0","0","0","20187","","null","","","null","4","NaN","","","","","","","","","","","","","","",""
"","S2","","html-keyboard-response","36","156997","0.0-1.0-40.0","0","0","20187","","null","","","null","4","","NaN","","","","","","","","","","","","","",""
"","response","","html-keyboard-response","37","157403","0.0-1.0-41.0-0.0","0","0","20187","","404","","","75","4","","","1","4","training","adjacent","GF","7","6","R.jpg","Q.jpg","1","0","0","",""
"","feedback","","html-keyboard-response","38","158404","0.0-1.0-42.0-0.0","0","0","20187","","null","","","null","4","","","","","","","","","","","","","","","",""
"","time_out","","html-keyboard-response","39","160406","0.0-1.0-44.0-0.0","0","0","20187","","null","","","null","4","","","","","","","","","","","","","","","",""
"","ITI","","html-keyboard-response","40","161408","0.0-1.0-45.0","0","0","20187","","null","","","null","4","","","","","","","","","","","","","","","NaN",""
"","S1","","html-keyboard-response","41","161660","0.0-1.0-47.0","0","0","20187","","null","","","null","5","","","","","","","","","","","","","","","",""
"","ISI","","html-keyboard-response","42","162661","0.0-1.0-48.0","0","0","20187","","null","","","null","5","NaN","","","","","","","","","","","","","","",""
"","S2","","html-keyboard-response","43","162913","0.0-1.0-49.0","0","0","20187","","null","","","null","5","","NaN","","","","","","","","","","","","","",""
"","response","","html-keyboard-response","44","163449","0.0-1.0-50.0-0.0","0","0","20187","","534","","","75","5","","","1","5","training","adjacent","BC","2","3","O.jpg","M.jpg","1","1","1","",""
"","feedback","","html-keyboard-response","45","164450","0.0-1.0-51.0-0.0","0","0","20187","","null","","","null","5","","","","","","","","","","","","","","","",""
"","ITI","","html-keyboard-response","46","165452","0.0-1.0-54.0","0","0","20187","","null","","","null","5","","","","","","","","","","","","","","","NaN",""
"","S1","","html-keyboard-response","47","165704","0.0-1.0-56.0","0","0","20187","","null","","","null","6","","","","","","","","","","","","","","","",""
"","ISI","","html-keyboard-response","48","166705","0.0-1.0-57.0","0","0","20187","","null","","","null","6","NaN","","","","","","","","","","","","","","",""
"","S2","","html-keyboard-response","49","166956","0.0-1.0-58.0","0","0","20187","","null","","","null","6","","NaN","","","","","","","","","","","","","",""
"","response","","html-keyboard-response","50","168086","0.0-1.0-59.0-0.0","0","0","20187","","1128","","","75","6","","","1","6","training","adjacent","EF","5","6","L.jpg","Q.jpg","1","1","1","",""
"","feedback","","html-keyboard-response","51","169087","0.0-1.0-60.0-0.0","0","0","20187","","null","","","null","6","","","","","","","","","","","","","","","",""
"","ITI","","html-keyboard-response","52","170093","0.0-1.0-63.0","0","0","20187","","null","","","null","6","","","","","","","","","","","","","","","NaN",""
"","S1","","html-keyboard-response","53","170345","0.0-1.0-65.0","0","0","20187","","null","","","null","7","","","","","","","","","","","","","","","",""
"","ISI","","html-keyboard-response","54","171346","0.0-1.0-66.0","0","0","20187","","null","","","null","7","NaN","","","","","","","","","","","","","","",""
"","S2","","html-keyboard-response","55","171598","0.0-1.0-67.0","0","0","20187","","null","","","null","7","","NaN","","","","","","","","","","","","","",""
"","response","","html-keyboard-response","56","172212","0.0-1.0-68.0-0.0","0","0","20187","","613","","","68","7","","","1","7","training","adjacent","DE","4","5","P.jpg","L.jpg","0","1","0","",""
"","feedback","","html-keyboard-response","57","173214","0.0-1.0-69.0-0.0","0","0","20187","","null","","","null","7","","","","","","","","","","","","","","","",""
"","time_out","","html-keyboard-response","58","175215","0.0-1.0-71.0-0.0","0","0","20187","","null","","","null","7","","","","","","","","","","","","","","","",""
"","ITI","","html-keyboard-response","59","176217","0.0-1.0-72.0","0","0","20187","","null","","","null","7","","","","","","","","","","","","","","","NaN",""
"","S1","","html-keyboard-response","60","176469","0.0-1.0-74.0","0","0","20187","","null","","","null","8","","","","","","","","","","","","","","","",""
"","ISI","","html-keyboard-response","61","177470","0.0-1.0-75.0","0","0","20187","","null","","","null","8","NaN","","","","","","","","","","","","","","",""
"","S2","","html-keyboard-response","62","177722","0.0-1.0-76.0","0","0","20187","","null","","","null","8","","NaN","","","","","","","","","","","","","",""
"","response","","html-keyboard-response","63","178670","0.0-1.0-77.0-0.0","0","0","20187","","946","","","68","8","","","1","8","training","adjacent","AB","1","2","N.jpg","O.jpg","0","1","0","",""
"","feedback","","html-keyboard-response","64","179672","0.0-1.0-78.0-0.0","0","0","20187","","null","","","null","8","","","","","","","","","","","","","","","",""
"","time_out","","html-keyboard-response","65","181673","0.0-1.0-80.0-0.0","0","0","20187","","null","","","null","8","","","","","","","","","","","","","","","",""
"","ITI","","html-keyboard-response","66","182676","0.0-1.0-81.0","0","0","20187","","null","","","null","8","","","","","","","","","","","","","","","NaN",""
"","S1","","html-keyboard-response","67","182926","0.0-1.0-83.0","0","0","20187","","null","","","null","9","","","","","","","","","","","","","","","",""
"","ISI","","html-keyboard-response","68","183928","0.0-1.0-84.0","0","0","20187","","null","","","null","9","NaN","","","","","","","","","","","","","","",""
"","S2","","html-keyboard-response","69","184180","0.0-1.0-85.0","0","0","20187","","null","","","null","9","","NaN","","","","","","","","","","","","","",""
"","response","","html-keyboard-response","70","185118","0.0-1.0-86.0-0.0","0","0","20187","","936","","","68","9","","","1","9","training","adjacent","BA","2","1","O.jpg","N.jpg","0","0","1","",""
"","feedback","","html-keyboard-response","71","186120","0.0-1.0-87.0-0.0","0","0","20187","","null","","","null","9","","","","","","","","","","","","","","","",""
"","ITI","","html-keyboard-response","72","187124","0.0-1.0-90.0","0","0","20187","","null","","","null","9","","","","","","","","","","","","","","","NaN",""
"","S1","","html-keyboard-response","73","187376","0.0-1.0-92.0","0","0","20187","","null","","","null","10","","","","","","","","","","","","","","","",""
"","ISI","","html-keyboard-response","74","188377","0.0-1.0-93.0","0","0","20187","","null","","","null","10","NaN","","","","","","","","","","","","","","",""
"","S2","","html-keyboard-response","75","188630","0.0-1.0-94.0","0","0","20187","","null","","","null","10","","NaN","","","","","","","","","","","","","",""
"","response","","html-keyboard-response","76","189073","0.0-1.0-95.0-0.0","0","0","20187","","441","","","68","10","","","1","10","training","adjacent","BC","2","3","O.jpg","M.jpg","0","1","0","",""
"","feedback","","html-keyboard-response","77","190074","0.0-1.0-96.0-0.0","0","0","20187","","null","","","null","10","","","","","","","","","","","","","","","",""
"","time_out","","html-keyboard-response","78","192075","0.0-1.0-98.0-0.0","0","0","20187","","null","","","null","10","","","","","","","","","","","","","","","",""
"","ITI","","html-keyboard-response","79","193077","0.0-1.0-99.0","0","0","20187","","null","","","null","10","","","","","","","","","","","","","","","NaN",""
"","S1","","html-keyboard-response","80","193329","0.0-1.0-101.0","0","0","20187","","null","","","null","11","","","","","","","","","","","","","","","",""
"","ISI","","html-keyboard-response","81","194330","0.0-1.0-102.0","0","0","20187","","null","","","null","11","NaN","","","","","","","","","","","","","","",""
"","S2","","html-keyboard-response","82","194583","0.0-1.0-103.0","0","0","20187","","null","","","null","11","","NaN","","","","","","","","","","","","","",""
"","response","","html-keyboard-response","83","195103","0.0-1.0-104.0-0.0","0","0","20187","","519","","","68","11","","","1","11","training","adjacent","DC","4","3","P.jpg","M.jpg","0","0","1","",""
"","feedback","","html-keyboard-response","84","196104","0.0-1.0-105.0-0.0","0","0","20187","","null","","","null","11","","","","","","","","","","","","","","","",""
"","ITI","","html-keyboard-response","85","197105","0.0-1.0-108.0","0","0","20187","","null","","","null","11","","","","","","","","","","","","","","","NaN",""
"","S1","","html-keyboard-response","86","197357","0.0-1.0-110.0","0","0","20187","","null","","","null","12","","","","","","","","","","","","","","","",""
"","ISI","","html-keyboard-response","87","198358","0.0-1.0-111.0","0","0","20187","","null","","","null","12","NaN","","","","","","","","","","","","","","",""
"","S2","","html-keyboard-response","88","198610","0.0-1.0-112.0","0","0","20187","","null","","","null","12","","NaN","","","","","","","","","","","","","",""
"","response","","html-keyboard-response","89","198936","0.0-1.0-113.0-0.0","0","0","20187","","325","","","75","12","","","1","12","training","adjacent","CD","3","4","M.jpg","P.jpg","1","1","1","",""
"","feedback","","html-keyboard-response","90","199939","0.0-1.0-114.0-0.0","0","0","20187","","null","","","null","12","","","","","","","","","","","","","","","",""
"","ITI","","html-keyboard-response","91","200940","0.0-1.0-117.0","0","0","20187","","null","","","null","12","","","","","","","","","","","","","","","NaN",""
"","S1","","html-keyboard-response","92","201191","0.0-1.0-119.0","0","0","20187","","null","","","null","13","","","","","","","","","","","","","","","",""
"","ISI","","html-keyboard-response","93","202192","0.0-1.0-120.0","0","0","20187","","null","","","null","13","NaN","","","","","","","","","","","","","","",""
"","S2","","html-keyboard-response","94","202444","0.0-1.0-121.0","0","0","20187","","null","","","null","13","","NaN","","","","","","","","","","","","","",""
"","response","","html-keyboard-response","95","202796","0.0-1.0-122.0-0.0","0","0","20187","","350","","","75","13","","","1","13","training","adjacent","FG","6","7","Q.jpg","R.jpg","1","1","1","",""
"","feedback","","html-keyboard-response","96","203798","0.0-1.0-123.0-0.0","0","0","20187","","null","","","null","13","","","","","","","","","","","","","","","",""
"","ITI","","html-keyboard-response","97","204800","0.0-1.0-126.0","0","0","20187","","null","","","null","13","","","","","","","","","","","","","","","NaN",""
"","S1","","html-keyboard-response","98","205050","0.0-1.0-128.0","0","0","20187","","null","","","null","14","","","","","","","","","","","","","","","",""
"","ISI","","html-keyboard-response","99","206058","0.0-1.0-129.0","0","0","20187","","null","","","null","14","NaN","","","","","","","","","","","","","","",""
"","S2","","html-keyboard-response","100","206309","0.0-1.0-130.0","0","0","20187","","null","","","null","14","","NaN","","","","","","","","","","","","","",""
"","response","","html-keyboard-response","101","206556","0.0-1.0-131.0-0.0","0","0","20187","","245","","","75","14","","","1","14","training","adjacent","FE","6","5","Q.jpg","L.jpg","1","0","0","",""
"","feedback","","html-keyboard-response","102","207569","0.0-1.0-132.0-0.0","0","0","20187","","null","","","null","14","","","","","","","","","","","","","","","",""
"","time_out","","html-keyboard-response","103","209571","0.0-1.0-134.0-0.0","0","0","20187","","null","","","null","14","","","","","","","","","","","","","","","",""
"","ITI","","html-keyboard-response","104","210577","0.0-1.0-135.0","0","0","20187","","null","","","null","14","","","","","","","","","","","","","","","NaN",""
"","S1","","html-keyboard-response","105","210828","0.0-1.0-137.0","0","0","20187","","null","","","null","15","","","","","","","","","","","","","","","",""
"","ISI","","html-keyboard-response","106","211830","0.0-1.0-138.0","0","0","20187","","null","","","null","15","NaN","","","","","","","","","","","","","","",""
"","S2","","html-keyboard-response","107","212081","0.0-1.0-139.0","0","0","20187","","null","","","null","15","","NaN","","","","","","","","","","","","","",""
"","response","","html-keyboard-response","108","212429","0.0-1.0-140.0-0.0","0","0","20187","","346","","","68","15","","","1","15","training","adjacent","BC","2","3","O.jpg","M.jpg","0","1","0","",""
"","feedback","","html-keyboard-response","109","213430","0.0-1.0-141.0-0.0","0","0","20187","","null","","","null","15","","","","","","","","","","","","","","","",""
"","time_out","","html-keyboard-response","110","215432","0.0-1.0-143.0-0.0","0","0","20187","","null","","","null","15","","","","","","","","","","","","","","","",""
"","ITI","","html-keyboard-response","111","216433","0.0-1.0-144.0","0","0","20187","","null","","","null","15","","","","","","","","","","","","","","","NaN",""
"","S1","","html-keyboard-response","112","216685","0.0-1.0-146.0","0","0","20187","","null","","","null","16","","","","","","","","","","","","","","","",""
"","ISI","","html-keyboard-response","113","217685","0.0-1.0-147.0","0","0","20187","","null","","","null","16","NaN","","","","","","","","","","","","","","",""
"","S2","","html-keyboard-response","114","217937","0.0-1.0-148.0","0","0","20187","","null","","","null","16","","NaN","","","","","","","","","","","","","",""
"","response","","html-keyboard-response","115","218609","0.0-1.0-149.0-0.0","0","0","20187","","670","","","68","16","","","1","16","training","adjacent","BA","2","1","O.jpg","N.jpg","0","0","1","",""
"","feedback","","html-keyboard-response","116","219610","0.0-1.0-150.0-0.0","0","0","20187","","null","","","null","16","","","","","","","","","","","","","","","",""
"","ITI","","html-keyboard-response","117","220612","0.0-1.0-153.0","0","0","20187","","null","","","null","16","","","","","","","","","","","","","","","NaN",""
"","S1","","html-keyboard-response","118","220864","0.0-1.0-155.0","0","0","20187","","null","","","null","17","","","","","","","","","","","","","","","",""
"","ISI","","html-keyboard-response","119","221866","0.0-1.0-156.0","0","0","20187","","null","","","null","17","NaN","","","","","","","","","","","","","","",""
"","S2","","html-keyboard-response","120","222118","0.0-1.0-157.0","0","0","20187","","null","","","null","17","","NaN","","","","","","","","","","","","","",""
"","response","","html-keyboard-response","121","222576","0.0-1.0-158.0-0.0","0","0","20187","","456","","","75","17","","","1","17","training","adjacent","FG","6","7","Q.jpg","R.jpg","1","1","1","",""
"","feedback","","html-keyboard-response","122","223589","0.0-1.0-159.0-0.0","0","0","20187","","null","","","null","17","","","","","","","","","","","","","","","",""
"","ITI","","html-keyboard-response","123","224590","0.0-1.0-162.0","0","0","20187","","null","","","null","17","","","","","","","","","","","","","","","NaN",""
"","S1","","html-keyboard-response","124","224857","0.0-1.0-164.0","0","0","20187","","null","","","null","18","","","","","","","","","","","","","","","",""
"","ISI","","html-keyboard-response","125","225858","0.0-1.0-165.0","0","0","20187","","null","","","null","18","NaN","","","","","","","","","","","","","","",""
"","S2","","html-keyboard-response","126","226110","0.0-1.0-166.0","0","0","20187","","null","","","null","18","","NaN","","","","","","","","","","","","","",""
"","response","","html-keyboard-response","127","226354","0.0-1.0-167.0-0.0","0","0","20187","","242","","","75","18","","","1","18","training","adjacent","FE","6","5","Q.jpg","L.jpg","1","0","0","",""
"","feedback","","html-keyboard-response","128","227356","0.0-1.0-168.0-0.0","0","0","20187","","null","","","null","18","","","","","","","","","","","","","","","",""
"","time_out","","html-keyboard-response","129","229358","0.0-1.0-170.0-0.0","0","0","20187","","null","","","null","18","","","","","","","","","","","","","","","",""
"","ITI","","html-keyboard-response","130","230360","0.0-1.0-171.0","0","0","20187","","null","","","null","18","","","","","","","","","","","","","","","NaN",""
"","S1","","html-keyboard-response","131","230611","0.0-1.0-173.0","0","0","20187","","null","","","null","19","","","","","","","","","","","","","","","",""
"","ISI","","html-keyboard-response","132","231613","0.0-1.0-174.0","0","0","20187","","null","","","null","19","NaN","","","","","","","","","","","","","","",""
"","S2","","html-keyboard-response","133","231865","0.0-1.0-175.0","0","0","20187","","null","","","null","19","","NaN","","","","","","","","","","","","","",""
"","response","","html-keyboard-response","134","232152","0.0-1.0-176.0-0.0","0","0","20187","","285","","","75","19","","","1","19","training","adjacent","CB","3","2","M.jpg","O.jpg","1","0","0","",""
"","feedback","","html-keyboard-response","135","233153","0.0-1.0-177.0-0.0","0","0","20187","","null","","","null","19","","","","","","","","","","","","","","","",""
"","time_out","","html-keyboard-response","136","235155","0.0-1.0-179.0-0.0","0","0","20187","","null","","","null","19","","","","","","","","","","","","","","","",""
"","ITI","","html-keyboard-response","137","236156","0.0-1.0-180.0","0","0","20187","","null","","","null","19","","","","","","","","","","","","","","","NaN",""
"","S1","","html-keyboard-response","138","236408","0.0-1.0-182.0","0","0","20187","","null","","","null","20","","","","","","","","","","","","","","","",""
"","ISI","","html-keyboard-response","139","237410","0.0-1.0-183.0","0","0","20187","","null","","","null","20","NaN","","","","","","","","","","","","","","",""
"","S2","","html-keyboard-response","140","237667","0.0-1.0-184.0","0","0","20187","","null","","","null","20","","NaN","","","","","","","","","","","","","",""
"","response","","html-keyboard-response","141","238112","0.0-1.0-185.0-0.0","0","0","20187","","444","","","75","20","","","1","20","training","adjacent","CB","3","2","M.jpg","O.jpg","1","0","0","",""
"","feedback","","html-keyboard-response","142","239113","0.0-1.0-186.0-0.0","0","0","20187","","null","","","null","20","","","","","","","","","","","","","","","",""
"","time_out","","html-keyboard-response","143","241116","0.0-1.0-188.0-0.0","0","0","20187","","null","","","null","20","","","","","","","","","","","","","","","",""
"","ITI","","html-keyboard-response","144","242118","0.0-1.0-189.0","0","0","20187","","null","","","null","20","","","","","","","","","","","","","","","NaN",""
"","S1","","html-keyboard-response","145","242370","0.0-1.0-191.0","0","0","20187","","null","","","null","21","","","","","","","","","","","","","","","",""
"","ISI","","html-keyboard-response","146","243371","0.0-1.0-192.0","0","0","20187","","null","","","null","21","NaN","","","","","","","","","","","","","","",""
"","S2","","html-keyboard-response","147","243630","0.0-1.0-193.0","0","0","20187","","null","","","null","21","","NaN","","","","","","","","","","","","","",""
"","response","","html-keyboard-response","148","244908","0.0-1.0-194.0-0.0","0","0","20187","","1277","","","68","21","","","1","21","training","adjacent","BA","2","1","O.jpg","N.jpg","0","0","1","",""
"","feedback","","html-keyboard-response","149","245910","0.0-1.0-195.0-0.0","0","0","20187","","null","","","null","21","","","","","","","","","","","","","","","",""
"","ITI","","html-keyboard-response","150","246911","0.0-1.0-198.0","0","0","20187","","null","","","null","21","","","","","","","","","","","","","","","NaN",""
"","S1","","html-keyboard-response","151","247167","0.0-1.0-200.0","0","0","20187","","null","","","null","22","","","","","","","","","","","","","","","",""
"","ISI","","html-keyboard-response","152","248169","0.0-1.0-201.0","0","0","20187","","null","","","null","22","NaN","","","","","","","","","","","","","","",""
"","S2","","html-keyboard-response","153","248421","0.0-1.0-202.0","0","0","20187","","null","","","null","22","","NaN","","","","","","","","","","","","","",""
"","response","","html-keyboard-response","154","249892","0.0-1.0-203.0-0.0","0","0","20187","","1469","","","68","22","","","1","22","training","adjacent","FG","6","7","Q.jpg","R.jpg","0","1","0","",""
"","feedback","","html-keyboard-response","155","250897","0.0-1.0-204.0-0.0","0","0","20187","","null","","","null","22","","","","","","","","","","","","","","","",""
"","time_out","","html-keyboard-response","156","252898","0.0-1.0-206.0-0.0","0","0","20187","","null","","","null","22","","","","","","","","","","","","","","","",""
"","ITI","","html-keyboard-response","157","253898","0.0-1.0-207.0","0","0","20187","","null","","","null","22","","","","","","","","","","","","","","","NaN",""
"","S1","","html-keyboard-response","158","254149","0.0-1.0-209.0","0","0","20187","","null","","","null","23","","","","","","","","","","","","","","","",""
"","ISI","","html-keyboard-response","159","255151","0.0-1.0-210.0","0","0","20187","","null","","","null","23","NaN","","","","","","","","","","","","","","",""
"","S2","","html-keyboard-response","160","255404","0.0-1.0-211.0","0","0","20187","","null","","","null","23","","NaN","","","","","","","","","","","","","",""
"","response","","html-keyboard-response","161","257155","0.0-1.0-212.0-0.0","0","0","20187","","null","","","null","23","","","1","23","training","adjacent","DC","4","3","P.jpg","M.jpg","NaN","0","0","",""
"","too_slow_prompt","","html-keyboard-response","162","258157","0.0-1.0-214.0-0.0","1","0","20187","","null","","","null","","","","","","","","","","","","","","","","",""
"","time_out","","html-keyboard-response","163","260157","0.0-1.0-215.0-0.0","0","0","20187","","null","","","null","23","","","","","","","","","","","","","","","",""
"","ITI","","html-keyboard-response","164","261158","0.0-1.0-216.0","0","0","20187","","null","","","null","23","","","","","","","","","","","","","","","NaN",""
"","S1","","html-keyboard-response","165","261410","0.0-1.0-218.0","0","0","20187","","null","","","null","24","","","","","","","","","","","","","","","",""
"","ISI","","html-keyboard-response","166","262412","0.0-1.0-219.0","0","0","20187","","null","","","null","24","NaN","","","","","","","","","","","","","","",""
"","S2","","html-keyboard-response","167","262664","0.0-1.0-220.0","0","0","20187","","null","","","null","24","","NaN","","","","","","","","","","","","","",""
"","response","","html-keyboard-response","168","263392","0.0-1.0-221.0-0.0","0","0","20187","","727","","","68","24","","","1","24","training","adjacent","BA","2","1","O.jpg","N.jpg","0","0","1","",""
"","feedback","","html-keyboard-response","169","264394","0.0-1.0-222.0-0.0","0","0","20187","","null","","","null","24","","","","","","","","","","","","","","","",""
"","ITI","","html-keyboard-response","170","265396","0.0-1.0-225.0","0","0","20187","","null","","","null","24","","","","","","","","","","","","","","","NaN",""
"","S1","","html-keyboard-response","171","265646","0.0-1.0-227.0","0","0","20187","","null","","","null","25","","","","","","","","","","","","","","","",""
"","ISI","","html-keyboard-response","172","266649","0.0-1.0-228.0","0","0","20187","","null","","","null","25","NaN","","","","","","","","","","","","","","",""
"","S2","","html-keyboard-response","173","266902","0.0-1.0-229.0","0","0","20187","","null","","","null","25","","NaN","","","","","","","","","","","","","",""
"","response","","html-keyboard-response","174","267506","0.0-1.0-230.0-0.0","0","0","20187","","603","","","75","25","","","1","25","training","adjacent","FE","6","5","Q.jpg","L.jpg","1","0","0","",""
"","feedback","","html-keyboard-response","175","268508","0.0-1.0-231.0-0.0","0","0","20187","","null","","","null","25","","","","","","","","","","","","","","","",""
"","time_out","","html-keyboard-response","176","270509","0.0-1.0-233.0-0.0","0","0","20187","","null","","","null","25","","","","","","","","","","","","","","","",""
"","ITI","","html-keyboard-response","177","271510","0.0-1.0-234.0","0","0","20187","","null","","","null","25","","","","","","","","","","","","","","","NaN",""
"","S1","","html-keyboard-response","178","271762","0.0-1.0-236.0","0","0","20187","","null","","","null","26","","","","","","","","","","","","","","","",""
"","ISI","","html-keyboard-response","179","272763","0.0-1.0-237.0","0","0","20187","","null","","","null","26","NaN","","","","","","","","","","","","","","",""
"","S2","","html-keyboard-response","180","273014","0.0-1.0-238.0","0","0","20187","","null","","","null","26","","NaN","","","","","","","","","","","","","",""
"","response","","html-keyboard-response","181","273803","0.0-1.0-239.0-0.0","0","0","20187","","787","","","68","26","","","1","26","training","adjacent","EF","5","6","L.jpg","Q.jpg","0","1","0","",""
"","feedback","","html-keyboard-response","182","274805","0.0-1.0-240.0-0.0","0","0","20187","","null","","","null","26","","","","","","","","","","","","","","","",""
"","time_out","","html-keyboard-response","183","276805","0.0-1.0-242.0-0.0","0","0","20187","","null","","","null","26","","","","","","","","","","","","","","","",""
"","ITI","","html-keyboard-response","184","277807","0.0-1.0-243.0","0","0","20187","","null","","","null","26","","","","","","","","","","","","","","","NaN",""
"","S1","","html-keyboard-response","185","278057","0.0-1.0-245.0","0","0","20187","","null","","","null","27","","","","","","","","","","","","","","","",""
"","ISI","","html-keyboard-response","186","279058","0.0-1.0-246.0","0","0","20187","","null","","","null","27","NaN","","","","","","","","","","","","","","",""
"","S2","","html-keyboard-response","187","279310","0.0-1.0-247.0","0","0","20187","","null","","","null","27","","NaN","","","","","","","","","","","","","",""
"","response","","html-keyboard-response","188","279875","0.0-1.0-248.0-0.0","0","0","20187","","563","","","68","27","","","1","27","training","adjacent","ED","5","4","L.jpg","P.jpg","0","0","1","",""
"","feedback","","html-keyboard-response","189","280886","0.0-1.0-249.0-0.0","0","0","20187","","null","","","null","27","","","","","","","","","","","","","","","",""
"","ITI","","html-keyboard-response","190","281888","0.0-1.0-252.0","0","0","20187","","null","","","null","27","","","","","","","","","","","","","","","NaN",""
"","S1","","html-keyboard-response","191","282140","0.0-1.0-254.0","0","0","20187","","null","","","null","28","","","","","","","","","","","","","","","",""
"","ISI","","html-keyboard-response","192","283140","0.0-1.0-255.0","0","0","20187","","null","","","null","28","NaN","","","","","","","","","","","","","","",""
"","S2","","html-keyboard-response","193","283402","0.0-1.0-256.0","0","0","20187","","null","","","null","28","","NaN","","","","","","","","","","","","","",""
"","response","","html-keyboard-response","194","284012","0.0-1.0-257.0-0.0","0","0","20187","","609","","","75","28","","","1","28","training","adjacent","DE","4","5","P.jpg","L.jpg","1","1","1","",""
"","feedback","","html-keyboard-response","195","285013","0.0-1.0-258.0-0.0","0","0","20187","","null","","","null","28","","","","","","","","","","","","","","","",""
"","ITI","","html-keyboard-response","196","286016","0.0-1.0-261.0","0","0","20187","","null","","","null","28","","","","","","","","","","","","","","","NaN",""
"","S1","","html-keyboard-response","197","286268","0.0-1.0-263.0","0","0","20187","","null","","","null","29","","","","","","","","","","","","","","","",""
"","ISI","","html-keyboard-response","198","287269","0.0-1.0-264.0","0","0","20187","","null","","","null","29","NaN","","","","","","","","","","","","","","",""
"","S2","","html-keyboard-response","199","287521","0.0-1.0-265.0","0","0","20187","","null","","","null","29","","NaN","","","","","","","","","","","","","",""
"","response","","html-keyboard-response","200","288115","0.0-1.0-266.0-0.0","0","0","20187","","592","","","68","29","","","1","29","training","adjacent","CD","3","4","M.jpg","P.jpg","0","1","0","",""
"","feedback","","html-keyboard-response","201","289116","0.0-1.0-267.0-0.0","0","0","20187","","null","","","null","29","","","","","","","","","","","","","","","",""
"","time_out","","html-keyboard-response","202","291118","0.0-1.0-269.0-0.0","0","0","20187","","null","","","null","29","","","","","","","","","","","","","","","",""
"","ITI","","html-keyboard-response","203","292119","0.0-1.0-270.0","0","0","20187","","null","","","null","29","","","","","","","","","","","","","","","NaN",""
"","S1","","html-keyboard-response","204","292370","0.0-1.0-272.0","0","0","20187","","null","","","null","30","","","","","","","","","","","","","","","",""
"","ISI","","html-keyboard-response","205","293376","0.0-1.0-273.0","0","0","20187","","null","","","null","30","NaN","","","","","","","","","","","","","","",""
"","S2","","html-keyboard-response","206","293629","0.0-1.0-274.0","0","0","20187","","null","","","null","30","","NaN","","","","","","","","","","","","","",""
"","response","","html-keyboard-response","207","294482","0.0-1.0-275.0-0.0","0","0","20187","","852","","","75","30","","","1","30","training","adjacent","GF","7","6","R.jpg","Q.jpg","1","0","0","",""
"","feedback","","html-keyboard-response","208","295484","0.0-1.0-276.0-0.0","0","0","20187","","null","","","null","30","","","","","","","","","","","","","","","",""
"","time_out","","html-keyboard-response","209","297485","0.0-1.0-278.0-0.0","0","0","20187","","null","","","null","30","","","","","","","","","","","","","","","",""
"","ITI","","html-keyboard-response","210","298487","0.0-1.0-279.0","0","0","20187","","null","","","null","30","","","","","","","","","","","","","","","NaN",""
"","S1","","html-keyboard-response","211","298738","0.0-1.0-281.0","0","0","20187","","null","","","null","31","","","","","","","","","","","","","","","",""
"","ISI","","html-keyboard-response","212","299741","0.0-1.0-282.0","0","0","20187","","null","","","null","31","NaN","","","","","","","","","","","","","","",""
"","S2","","html-keyboard-response","213","299998","0.0-1.0-283.0","0","0","20187","","null","","","null","31","","NaN","","","","","","","","","","","","","",""
"","response","","html-keyboard-response","214","300789","0.0-1.0-284.0-0.0","0","0","20187","","790","","","68","31","","","1","31","training","adjacent","BC","2","3","O.jpg","M.jpg","0","1","0","",""
"","feedback","","html-keyboard-response","215","301791","0.0-1.0-285.0-0.0","0","0","20187","","null","","","null","31","","","","","","","","","","","","","","","",""
"","time_out","","html-keyboard-response","216","303793","0.0-1.0-287.0-0.0","0","0","20187","","null","","","null","31","","","","","","","","","","","","","","","",""
"","ITI","","html-keyboard-response","217","304794","0.0-1.0-288.0","0","0","20187","","null","","","null","31","","","","","","","","","","","","","","","NaN",""
"","S1","","html-keyboard-response","218","305045","0.0-1.0-290.0","0","0","20187","","null","","","null","32","","","","","","","","","","","","","","","",""
"","ISI","","html-keyboard-response","219","306047","0.0-1.0-291.0","0","0","20187","","null","","","null","32","NaN","","","","","","","","","","","","","","",""
"","S2","","html-keyboard-response","220","306298","0.0-1.0-292.0","0","0","20187","","null","","","null","32","","NaN","","","","","","","","","","","","","",""
"","response","","html-keyboard-response","221","306942","0.0-1.0-293.0-0.0","0","0","20187","","643","","","75","32","","","1","32","training","adjacent","EF","5","6","L.jpg","Q.jpg","1","1","1","",""
"","feedback","","html-keyboard-response","222","307945","0.0-1.0-294.0-0.0","0","0","20187","","null","","","null","32","","","","","","","","","","","","","","","",""
"","ITI","","html-keyboard-response","223","308947","0.0-1.0-297.0","0","0","20187","","null","","","null","32","","","","","","","","","","","","","","","NaN",""
"","S1","","html-keyboard-response","224","309198","0.0-1.0-299.0","0","0","20187","","null","","","null","33","","","","","","","","","","","","","","","",""
"","ISI","","html-keyboard-response","225","310200","0.0-1.0-300.0","0","0","20187","","null","","","null","33","NaN","","","","","","","","","","","","","","",""
"","S2","","html-keyboard-response","226","310451","0.0-1.0-301.0","0","0","20187","","null","","","null","33","","NaN","","","","","","","","","","","","","",""
"","response","","html-keyboard-response","227","311059","0.0-1.0-302.0-0.0","0","0","20187","","607","","","75","33","","","1","33","training","adjacent","FG","6","7","Q.jpg","R.jpg","1","1","1","",""
"","feedback","","html-keyboard-response","228","312062","0.0-1.0-303.0-0.0","0","0","20187","","null","","","null","33","","","","","","","","","","","","","","","",""
"","ITI","","html-keyboard-response","229","313063","0.0-1.0-306.0","0","0","20187","","null","","","null","33","","","","","","","","","","","","","","","NaN",""
"","S1","","html-keyboard-response","230","313314","0.0-1.0-308.0","0","0","20187","","null","","","null","34","","","","","","","","","","","","","","","",""
"","ISI","","html-keyboard-response","231","314317","0.0-1.0-309.0","0","0","20187","","null","","","null","34","NaN","","","","","","","","","","","","","","",""
"","S2","","html-keyboard-response","232","314569","0.0-1.0-310.0","0","0","20187","","null","","","null","34","","NaN","","","","","","","","","","","","","",""
"","response","","html-keyboard-response","233","314882","0.0-1.0-311.0-0.0","0","0","20187","","312","","","75","34","","","1","34","training","adjacent","AB","1","2","N.jpg","O.jpg","1","1","1","",""
"","feedback","","html-keyboard-response","234","315884","0.0-1.0-312.0-0.0","0","0","20187","","null","","","null","34","","","","","","","","","","","","","","","",""
"","ITI","","html-keyboard-response","235","316886","0.0-1.0-315.0","0","0","20187","","null","","","null","34","","","","","","","","","","","","","","","NaN",""
"","S1","","html-keyboard-response","236","317138","0.0-1.0-317.0","0","0","20187","","null","","","null","35","","","","","","","","","","","","","","","",""
"","ISI","","html-keyboard-response","237","318140","0.0-1.0-318.0","0","0","20187","","null","","","null","35","NaN","","","","","","","","","","","","","","",""
"","S2","","html-keyboard-response","238","318392","0.0-1.0-319.0","0","0","20187","","null","","","null","35","","NaN","","","","","","","","","","","","","",""
"","response","","html-keyboard-response","239","318773","0.0-1.0-320.0-0.0","0","0","20187","","380","","","75","35","","","1","35","training","adjacent","AB","1","2","N.jpg","O.jpg","1","1","1","",""
"","feedback","","html-keyboard-response","240","319775","0.0-1.0-321.0-0.0","0","0","20187","","null","","","null","35","","","","","","","","","","","","","","","",""
"","ITI","","html-keyboard-response","241","320776","0.0-1.0-324.0","0","0","20187","","null","","","null","35","","","","","","","","","","","","","","","NaN",""
"","S1","","html-keyboard-response","242","321028","0.0-1.0-326.0","0","0","20187","","null","","","null","36","","","","","","","","","","","","","","","",""
"","ISI","","html-keyboard-response","243","322030","0.0-1.0-327.0","0","0","20187","","null","","","null","36","NaN","","","","","","","","","","","","","","",""
"","S2","","html-keyboard-response","244","322285","0.0-1.0-328.0","0","0","20187","","null","","","null","36","","NaN","","","","","","","","","","","","","",""
"","response","","html-keyboard-response","245","322415","0.0-1.0-329.0-0.0","0","0","20187","","129","","","75","36","","","1","36","training","adjacent","ED","5","4","L.jpg","P.jpg","1","0","0","",""
"","feedback","","html-keyboard-response","246","323418","0.0-1.0-330.0-0.0","0","0","20187","","null","","","null","36","","","","","","","","","","","","","","","",""
"","time_out","","html-keyboard-response","247","325420","0.0-1.0-332.0-0.0","0","0","20187","","null","","","null","36","","","","","","","","","","","","","","","",""
"","ITI","","html-keyboard-response","248","326422","0.0-1.0-333.0","0","0","20187","","null","","","null","36","","","","","","","","","","","","","","","NaN",""
"","S1","","html-keyboard-response","249","326673","0.0-1.0-335.0","0","0","20187","","null","","","null","37","","","","","","","","","","","","","","","",""
"","ISI","","html-keyboard-response","250","327674","0.0-1.0-336.0","0","0","20187","","null","","","null","37","NaN","","","","","","","","","","","","","","",""
"","S2","","html-keyboard-response","251","327926","0.0-1.0-337.0","0","0","20187","","null","","","null","37","","NaN","","","","","","","","","","","","","",""
"","response","","html-keyboard-response","252","328834","0.0-1.0-338.0-0.0","0","0","20187","","907","","","75","37","","","1","37","training","adjacent","DE","4","5","P.jpg","L.jpg","1","1","1","",""
"","feedback","","html-keyboard-response","253","329837","0.0-1.0-339.0-0.0","0","0","20187","","null","","","null","37","","","","","","","","","","","","","","","",""
"","ITI","","html-keyboard-response","254","330838","0.0-1.0-342.0","0","0","20187","","null","","","null","37","","","","","","","","","","","","","","","NaN",""
"","S1","","html-keyboard-response","255","331089","0.0-1.0-344.0","0","0","20187","","null","","","null","38","","","","","","","","","","","","","","","",""
"","ISI","","html-keyboard-response","256","332090","0.0-1.0-345.0","0","0","20187","","null","","","null","38","NaN","","","","","","","","","","","","","","",""
"","S2","","html-keyboard-response","257","332342","0.0-1.0-346.0","0","0","20187","","null","","","null","38","","NaN","","","","","","","","","","","","","",""
"","response","","html-keyboard-response","258","333237","0.0-1.0-347.0-0.0","0","0","20187","","894","","","75","38","","","1","38","training","adjacent","CD","3","4","M.jpg","P.jpg","1","1","1","",""
"","feedback","","html-keyboard-response","259","334240","0.0-1.0-348.0-0.0","0","0","20187","","null","","","null","38","","","","","","","","","","","","","","","",""
"","ITI","","html-keyboard-response","260","335241","0.0-1.0-351.0","0","0","20187","","null","","","null","38","","","","","","","","","","","","","","","NaN",""
"","S1","","html-keyboard-response","261","335493","0.0-1.0-353.0","0","0","20187","","null","","","null","39","","","","","","","","","","","","","","","",""
"","ISI","","html-keyboard-response","262","336495","0.0-1.0-354.0","0","0","20187","","null","","","null","39","NaN","","","","","","","","","","","","","","",""
"","S2","","html-keyboard-response","263","336748","0.0-1.0-355.0","0","0","20187","","null","","","null","39","","NaN","","","","","","","","","","","","","",""
"","response","","html-keyboard-response","264","337501","0.0-1.0-356.0-0.0","0","0","20187","","752","","","68","39","","","1","39","training","adjacent","FE","6","5","Q.jpg","L.jpg","0","0","1","",""
"","feedback","","html-keyboard-response","265","338503","0.0-1.0-357.0-0.0","0","0","20187","","null","","","null","39","","","","","","","","","","","","","","","",""
"","ITI","","html-keyboard-response","266","339505","0.0-1.0-360.0","0","0","20187","","null","","","null","39","","","","","","","","","","","","","","","NaN",""
"","S1","","html-keyboard-response","267","339756","0.0-1.0-362.0","0","0","20187","","null","","","null","40","","","","","","","","","","","","","","","",""
"","ISI","","html-keyboard-response","268","340757","0.0-1.0-363.0","0","0","20187","","null","","","null","40","NaN","","","","","","","","","","","","","","",""
"","S2","","html-keyboard-response","269","341009","0.0-1.0-364.0","0","0","20187","","null","","","null","40","","NaN","","","","","","","","","","","","","",""
"","response","","html-keyboard-response","270","341439","0.0-1.0-365.0-0.0","0","0","20187","","429","","","75","40","","","1","40","training","adjacent","GF","7","6","R.jpg","Q.jpg","1","0","0","",""
"","feedback","","html-keyboard-response","271","342442","0.0-1.0-366.0-0.0","0","0","20187","","null","","","null","40","","","","","","","","","","","","","","","",""
"","time_out","","html-keyboard-response","272","344458","0.0-1.0-368.0-0.0","0","0","20187","","null","","","null","40","","","","","","","","","","","","","","","",""
"","ITI","","html-keyboard-response","273","345460","0.0-1.0-369.0","0","0","20187","","null","","","null","40","","","","","","","","","","","","","","","NaN",""
"","S1","","html-keyboard-response","274","345712","0.0-1.0-371.0","0","0","20187","","null","","","null","41","","","","","","","","","","","","","","","",""
"","ISI","","html-keyboard-response","275","346714","0.0-1.0-372.0","0","0","20187","","null","","","null","41","NaN","","","","","","","","","","","","","","",""
"","S2","","html-keyboard-response","276","346967","0.0-1.0-373.0","0","0","20187","","null","","","null","41","","NaN","","","","","","","","","","","","","",""
"","response","","html-keyboard-response","277","347664","0.0-1.0-374.0-0.0","0","0","20187","","696","","","75","41","","","1","41","training","adjacent","CB","3","2","M.jpg","O.jpg","1","0","0","",""
"","feedback","","html-keyboard-response","278","348667","0.0-1.0-375.0-0.0","0","0","20187","","null","","","null","41","","","","","","","","","","","","","","","",""
"","time_out","","html-keyboard-response","279","350669","0.0-1.0-377.0-0.0","0","0","20187","","null","","","null","41","","","","","","","","","","","","","","","",""
"","ITI","","html-keyboard-response","280","351671","0.0-1.0-378.0","0","0","20187","","null","","","null","41","","","","","","","","","","","","","","","NaN",""
"","S1","","html-keyboard-response","281","351933","0.0-1.0-380.0","0","0","20187","","null","","","null","42","","","","","","","","","","","","","","","",""
"","ISI","","html-keyboard-response","282","352943","0.0-1.0-381.0","0","0","20187","","null","","","null","42","NaN","","","","","","","","","","","","","","",""
"","S2","","html-keyboard-response","283","353195","0.0-1.0-382.0","0","0","20187","","null","","","null","42","","NaN","","","","","","","","","","","","","",""
"","response","","html-keyboard-response","284","353790","0.0-1.0-383.0-0.0","0","0","20187","","594","","","68","42","","","1","42","training","adjacent","CD","3","4","M.jpg","P.jpg","0","1","0","",""
"","feedback","","html-keyboard-response","285","354792","0.0-1.0-384.0-0.0","0","0","20187","","null","","","null","42","","","","","","","","","","","","","","","",""
"","time_out","","html-keyboard-response","286","356794","0.0-1.0-386.0-0.0","0","0","20187","","null","","","null","42","","","","","","","","","","","","","","","",""
"","ITI","","html-keyboard-response","287","357795","0.0-1.0-387.0","0","0","20187","","null","","","null","42","","","","","","","","","","","","","","","NaN",""
"","S1","","html-keyboard-response","288","358046","0.0-1.0-389.0","0","0","20187","","null","","","null","43","","","","","","","","","","","","","","","",""
"","ISI","","html-keyboard-response","289","359048","0.0-1.0-390.0","0","0","20187","","null","","","null","43","NaN","","","","","","","","","","","","","","",""
"","S2","","html-keyboard-response","290","359302","0.0-1.0-391.0","0","0","20187","","null","","","null","43","","NaN","","","","","","","","","","","","","",""
"","response","","html-keyboard-response","291","359939","0.0-1.0-392.0-0.0","0","0","20187","","636","","","75","43","","","1","43","training","adjacent","DC","4","3","P.jpg","M.jpg","1","0","0","",""
"","feedback","","html-keyboard-response","292","360940","0.0-1.0-393.0-0.0","0","0","20187","","null","","","null","43","","","","","","","","","","","","","","","",""
"","time_out","","html-keyboard-response","293","362943","0.0-1.0-395.0-0.0","0","0","20187","","null","","","null","43","","","","","","","","","","","","","","","",""
"","ITI","","html-keyboard-response","294","363945","0.0-1.0-396.0","0","0","20187","","null","","","null","43","","","","","","","","","","","","","","","NaN",""
"","S1","","html-keyboard-response","295","364197","0.0-1.0-398.0","0","0","20187","","null","","","null","44","","","","","","","","","","","","","","","",""
"","ISI","","html-keyboard-response","296","365199","0.0-1.0-399.0","0","0","20187","","null","","","null","44","NaN","","","","","","","","","","","","","","",""
"","S2","","html-keyboard-response","297","365450","0.0-1.0-400.0","0","0","20187","","null","","","null","44","","NaN","","","","","","","","","","","","","",""
"","response","","html-keyboard-response","298","366166","0.0-1.0-401.0-0.0","0","0","20187","","715","","","75","44","","","1","44","training","adjacent","ED","5","4","L.jpg","P.jpg","1","0","0","",""
"","feedback","","html-keyboard-response","299","367168","0.0-1.0-402.0-0.0","0","0","20187","","null","","","null","44","","","","","","","","","","","","","","","",""
"","time_out","","html-keyboard-response","300","369170","0.0-1.0-404.0-0.0","0","0","20187","","null","","","null","44","","","","","","","","","","","","","","","",""
"","ITI","","html-keyboard-response","301","370172","0.0-1.0-405.0","0","0","20187","","null","","","null","44","","","","","","","","","","","","","","","NaN",""
"","S1","","html-keyboard-response","302","370424","0.0-1.0-407.0","0","0","20187","","null","","","null","45","","","","","","","","","","","","","","","",""
"","ISI","","html-keyboard-response","303","371425","0.0-1.0-408.0","0","0","20187","","null","","","null","45","NaN","","","","","","","","","","","","","","",""
"","S2","","html-keyboard-response","304","371677","0.0-1.0-409.0","0","0","20187","","null","","","null","45","","NaN","","","","","","","","","","","","","",""
"","response","","html-keyboard-response","305","372557","0.0-1.0-410.0-0.0","0","0","20187","","879","","","68","45","","","1","45","training","adjacent","ED","5","4","L.jpg","P.jpg","0","0","1","",""
"","feedback","","html-keyboard-response","306","373558","0.0-1.0-411.0-0.0","0","0","20187","","null","","","null","45","","","","","","","","","","","","","","","",""
"","ITI","","html-keyboard-response","307","374571","0.0-1.0-414.0","0","0","20187","","null","","","null","45","","","","","","","","","","","","","","","NaN",""
"","S1","","html-keyboard-response","308","374822","0.0-1.0-416.0","0","0","20187","","null","","","null","46","","","","","","","","","","","","","","","",""
"","ISI","","html-keyboard-response","309","375824","0.0-1.0-417.0","0","0","20187","","null","","","null","46","NaN","","","","","","","","","","","","","","",""
"","S2","","html-keyboard-response","310","376077","0.0-1.0-418.0","0","0","20187","","null","","","null","46","","NaN","","","","","","","","","","","","","",""
"","response","","html-keyboard-response","311","376589","0.0-1.0-419.0-0.0","0","0","20187","","511","","","68","46","","","1","46","training","adjacent","DE","4","5","P.jpg","L.jpg","0","1","0","",""
"","feedback","","html-keyboard-response","312","377591","0.0-1.0-420.0-0.0","0","0","20187","","null","","","null","46","","","","","","","","","","","","","","","",""
"","time_out","","html-keyboard-response","313","379592","0.0-1.0-422.0-0.0","0","0","20187","","null","","","null","46","","","","","","","","","","","","","","","",""
"","ITI","","html-keyboard-response","314","380595","0.0-1.0-423.0","0","0","20187","","null","","","null","46","","","","","","","","","","","","","","","NaN",""
"","S1","","html-keyboard-response","315","380847","0.0-1.0-425.0","0","0","20187","","null","","","null","47","","","","","","","","","","","","","","","",""
"","ISI","","html-keyboard-response","316","381848","0.0-1.0-426.0","0","0","20187","","null","","","null","47","NaN","","","","","","","","","","","","","","",""
"","S2","","html-keyboard-response","317","382100","0.0-1.0-427.0","0","0","20187","","null","","","null","47","","NaN","","","","","","","","","","","","","",""
"","response","","html-keyboard-response","318","382837","0.0-1.0-428.0-0.0","0","0","20187","","736","","","68","47","","","1","47","training","adjacent","DC","4","3","P.jpg","M.jpg","0","0","1","",""
"","feedback","","html-keyboard-response","319","383839","0.0-1.0-429.0-0.0","0","0","20187","","null","","","null","47","","","","","","","","","","","","","","","",""
"","ITI","","html-keyboard-response","320","384840","0.0-1.0-432.0","0","0","20187","","null","","","null","47","","","","","","","","","","","","","","","NaN",""
"","block_over","","html-keyboard-response","321","389045","0.0-1.0-433.0-0.0","0","0","20187","","4204","","","32","47","","","","","","","","","","","","","","","",""
"","S1","","html-keyboard-response","322","389297","0.0-1.0-434.0","0","0","20187","","null","","","null","48","","","","","","","","","","","","","","","",""
"","ISI","","html-keyboard-response","323","390298","0.0-1.0-435.0","0","0","20187","","null","","","null","48","NaN","","","","","","","","","","","","","","",""
"","S2","","html-keyboard-response","324","390551","0.0-1.0-436.0","0","0","20187","","null","","","null","48","","NaN","","","","","","","","","","","","","",""
"","response","","html-keyboard-response","325","391115","0.0-1.0-437.0-0.0","0","0","20187","","563","","","68","48","","","2","48","training","adjacent","DC","4","3","P.jpg","M.jpg","0","0","1","",""
"","feedback","","html-keyboard-response","326","392117","0.0-1.0-438.0-0.0","0","0","20187","","null","","","null","48","","","","","","","","","","","","","","","",""
"","ITI","","html-keyboard-response","327","393117","0.0-1.0-441.0","0","0","20187","","null","","","null","48","","","","","","","","","","","","","","","NaN",""
"","S1","","html-keyboard-response","328","393369","0.0-1.0-443.0","0","0","20187","","null","","","null","49","","","","","","","","","","","","","","","",""
"","ISI","","html-keyboard-response","329","394371","0.0-1.0-444.0","0","0","20187","","null","","","null","49","NaN","","","","","","","","","","","","","","",""
"","S2","","html-keyboard-response","330","394636","0.0-1.0-445.0","0","0","20187","","null","","","null","49","","NaN","","","","","","","","","","","","","",""
"","response","","html-keyboard-response","331","395283","0.0-1.0-446.0-0.0","0","0","20187","","646","","","68","49","","","2","49","training","adjacent","EF","5","6","L.jpg","Q.jpg","0","1","0","",""
"","feedback","","html-keyboard-response","332","396285","0.0-1.0-447.0-0.0","0","0","20187","","null","","","null","49","","","","","","","","","","","","","","","",""
"","time_out","","html-keyboard-response","333","398285","0.0-1.0-449.0-0.0","0","0","20187","","null","","","null","49","","","","","","","","","","","","","","","",""
"","ITI","","html-keyboard-response","334","399287","0.0-1.0-450.0","0","0","20187","","null","","","null","49","","","","","","","","","","","","","","","NaN",""
"","S1","","html-keyboard-response","335","399539","0.0-1.0-452.0","0","0","20187","","null","","","null","50","","","","","","","","","","","","","","","",""
"","ISI","","html-keyboard-response","336","400540","0.0-1.0-453.0","0","0","20187","","null","","","null","50","NaN","","","","","","","","","","","","","","",""
"","S2","","html-keyboard-response","337","400792","0.0-1.0-454.0","0","0","20187","","null","","","null","50","","NaN","","","","","","","","","","","","","",""
"","response","","html-keyboard-response","338","401109","0.0-1.0-455.0-0.0","0","0","20187","","316","","","68","50","","","2","50","training","adjacent","BA","2","1","O.jpg","N.jpg","0","0","1","",""
"","feedback","","html-keyboard-response","339","402111","0.0-1.0-456.0-0.0","0","0","20187","","null","","","null","50","","","","","","","","","","","","","","","",""
"","ITI","","html-keyboard-response","340","403112","0.0-1.0-459.0","0","0","20187","","null","","","null","50","","","","","","","","","","","","","","","NaN",""
"","S1","","html-keyboard-response","341","403363","0.0-1.0-461.0","0","0","20187","","null","","","null","51","","","","","","","","","","","","","","","",""
"","ISI","","html-keyboard-response","342","404365","0.0-1.0-462.0","0","0","20187","","null","","","null","51","NaN","","","","","","","","","","","","","","",""
"","S2","","html-keyboard-response","343","404618","0.0-1.0-463.0","0","0","20187","","null","","","null","51","","NaN","","","","","","","","","","","","","",""
"","response","","html-keyboard-response","344","405639","0.0-1.0-464.0-0.0","0","0","20187","","1020","","","75","51","","","2","51","training","adjacent","ED","5","4","L.jpg","P.jpg","1","0","0","",""
"","feedback","","html-keyboard-response","345","406640","0.0-1.0-465.0-0.0","0","0","20187","","null","","","null","51","","","","","","","","","","","","","","","",""
"","time_out","","html-keyboard-response","346","408642","0.0-1.0-467.0-0.0","0","0","20187","","null","","","null","51","","","","","","","","","","","","","","","",""
"","ITI","","html-keyboard-response","347","409643","0.0-1.0-468.0","0","0","20187","","null","","","null","51","","","","","","","","","","","","","","","NaN",""
"","S1","","html-keyboard-response","348","409895","0.0-1.0-470.0","0","0","20187","","null","","","null","52","","","","","","","","","","","","","","","",""
"","ISI","","html-keyboard-response","349","410897","0.0-1.0-471.0","0","0","20187","","null","","","null","52","NaN","","","","","","","","","","","","","","",""
"","S2","","html-keyboard-response","350","411148","0.0-1.0-472.0","0","0","20187","","null","","","null","52","","NaN","","","","","","","","","","","","","",""
"","response","","html-keyboard-response","351","411353","0.0-1.0-473.0-0.0","0","0","20187","","203","","","68","52","","","2","52","training","adjacent","BC","2","3","O.jpg","M.jpg","0","1","0","",""
"","feedback","","html-keyboard-response","352","412356","0.0-1.0-474.0-0.0","0","0","20187","","null","","","null","52","","","","","","","","","","","","","","","",""
"","time_out","","html-keyboard-response","353","414358","0.0-1.0-476.0-0.0","0","0","20187","","null","","","null","52","","","","","","","","","","","","","","","",""
"","ITI","","html-keyboard-response","354","415359","0.0-1.0-477.0","0","0","20187","","null","","","null","52","","","","","","","","","","","","","","","NaN",""
"","S1","","html-keyboard-response","355","415612","0.0-1.0-479.0","0","0","20187","","null","","","null","53","","","","","","","","","","","","","","","",""
"","ISI","","html-keyboard-response","356","416613","0.0-1.0-480.0","0","0","20187","","null","","","null","53","NaN","","","","","","","","","","","","","","",""
"","S2","","html-keyboard-response","357","416865","0.0-1.0-481.0","0","0","20187","","null","","","null","53","","NaN","","","","","","","","","","","","","",""
"","response","","html-keyboard-response","358","417431","0.0-1.0-482.0-0.0","0","0","20187","","565","","","75","53","","","2","53","training","adjacent","FE","6","5","Q.jpg","L.jpg","1","0","0","",""
"","feedback","","html-keyboard-response","359","418434","0.0-1.0-483.0-0.0","0","0","20187","","null","","","null","53","","","","","","","","","","","","","","","",""
"","time_out","","html-keyboard-response","360","420435","0.0-1.0-485.0-0.0","0","0","20187","","null","","","null","53","","","","","","","","","","","","","","","",""
"","ITI","","html-keyboard-response","361","421437","0.0-1.0-486.0","0","0","20187","","null","","","null","53","","","","","","","","","","","","","","","NaN",""
"","S1","","html-keyboard-response","362","421689","0.0-1.0-488.0","0","0","20187","","null","","","null","54","","","","","","","","","","","","","","","",""
"","ISI","","html-keyboard-response","363","422690","0.0-1.0-489.0","0","0","20187","","null","","","null","54","NaN","","","","","","","","","","","","","","",""
"","S2","","html-keyboard-response","364","422942","0.0-1.0-490.0","0","0","20187","","null","","","null","54","","NaN","","","","","","","","","","","","","",""
"","response","","html-keyboard-response","365","424031","0.0-1.0-491.0-0.0","0","0","20187","","1088","","","75","54","","","2","54","training","adjacent","CD","3","4","M.jpg","P.jpg","1","1","1","",""
"","feedback","","html-keyboard-response","366","425033","0.0-1.0-492.0-0.0","0","0","20187","","null","","","null","54","","","","","","","","","","","","","","","",""
"","ITI","","html-keyboard-response","367","426034","0.0-1.0-495.0","0","0","20187","","null","","","null","54","","","","","","","","","","","","","","","NaN",""
"","S1","","html-keyboard-response","368","426286","0.0-1.0-497.0","0","0","20187","","null","","","null","55","","","","","","","","","","","","","","","",""
"","ISI","","html-keyboard-response","369","427287","0.0-1.0-498.0","0","0","20187","","null","","","null","55","NaN","","","","","","","","","","","","","","",""
"","S2","","html-keyboard-response","370","427539","0.0-1.0-499.0","0","0","20187","","null","","","null","55","","NaN","","","","","","","","","","","","","",""
"","response","","html-keyboard-response","371","428104","0.0-1.0-500.0-0.0","0","0","20187","","564","","","75","55","","","2","55","training","adjacent","EF","5","6","L.jpg","Q.jpg","1","1","1","",""
"","feedback","","html-keyboard-response","372","429107","0.0-1.0-501.0-0.0","0","0","20187","","null","","","null","55","","","","","","","","","","","","","","","",""
"","ITI","","html-keyboard-response","373","430123","0.0-1.0-504.0","0","0","20187","","null","","","null","55","","","","","","","","","","","","","","","NaN",""
"","S1","","html-keyboard-response","374","430374","0.0-1.0-506.0","0","0","20187","","null","","","null","56","","","","","","","","","","","","","","","",""
"","ISI","","html-keyboard-response","375","431375","0.0-1.0-507.0","0","0","20187","","null","","","null","56","NaN","","","","","","","","","","","","","","",""
"","S2","","html-keyboard-response","376","431627","0.0-1.0-508.0","0","0","20187","","null","","","null","56","","NaN","","","","","","","","","","","","","",""
"","response","","html-keyboard-response","377","432092","0.0-1.0-509.0-0.0","0","0","20187","","464","","","68","56","","","2","56","training","adjacent","BA","2","1","O.jpg","N.jpg","0","0","1","",""
"","feedback","","html-keyboard-response","378","433094","0.0-1.0-510.0-0.0","0","0","20187","","null","","","null","56","","","","","","","","","","","","","","","",""
"","ITI","","html-keyboard-response","379","434095","0.0-1.0-513.0","0","0","20187","","null","","","null","56","","","","","","","","","","","","","","","NaN",""
"","S1","","html-keyboard-response","380","434347","0.0-1.0-515.0","0","0","20187","","null","","","null","57","","","","","","","","","","","","","","","",""
"","ISI","","html-keyboard-response","381","435349","0.0-1.0-516.0","0","0","20187","","null","","","null","57","NaN","","","","","","","","","","","","","","",""
"","S2","","html-keyboard-response","382","435601","0.0-1.0-517.0","0","0","20187","","null","","","null","57","","NaN","","","","","","","","","","","","","",""
"","response","","html-keyboard-response","383","435895","0.0-1.0-518.0-0.0","0","0","20187","","293","","","75","57","","","2","57","training","adjacent","BC","2","3","O.jpg","M.jpg","1","1","1","",""
"","feedback","","html-keyboard-response","384","436897","0.0-1.0-519.0-0.0","0","0","20187","","null","","","null","57","","","","","","","","","","","","","","","",""
"","ITI","","html-keyboard-response","385","437898","0.0-1.0-522.0","0","0","20187","","null","","","null","57","","","","","","","","","","","","","","","NaN",""
"","S1","","html-keyboard-response","386","438149","0.0-1.0-524.0","0","0","20187","","null","","","null","58","","","","","","","","","","","","","","","",""
"","ISI","","html-keyboard-response","387","439150","0.0-1.0-525.0","0","0","20187","","null","","","null","58","NaN","","","","","","","","","","","","","","",""
"","S2","","html-keyboard-response","388","439409","0.0-1.0-526.0","0","0","20187","","null","","","null","58","","NaN","","","","","","","","","","","","","",""
"","response","","html-keyboard-response","389","440142","0.0-1.0-527.0-0.0","0","0","20187","","732","","","68","58","","","2","58","training","adjacent","GF","7","6","R.jpg","Q.jpg","0","0","1","",""
"","feedback","","html-keyboard-response","390","441143","0.0-1.0-528.0-0.0","0","0","20187","","null","","","null","58","","","","","","","","","","","","","","","",""
"","ITI","","html-keyboard-response","391","442144","0.0-1.0-531.0","0","0","20187","","null","","","null","58","","","","","","","","","","","","","","","NaN",""
"","S1","","html-keyboard-response","392","442396","0.0-1.0-533.0","0","0","20187","","null","","","null","59","","","","","","","","","","","","","","","",""
"","ISI","","html-keyboard-response","393","443397","0.0-1.0-534.0","0","0","20187","","null","","","null","59","NaN","","","","","","","","","","","","","","",""
"","S2","","html-keyboard-response","394","443649","0.0-1.0-535.0","0","0","20187","","null","","","null","59","","NaN","","","","","","","","","","","","","",""
"","response","","html-keyboard-response","395","444595","0.0-1.0-536.0-0.0","0","0","20187","","946","","","68","59","","","2","59","training","adjacent","ED","5","4","L.jpg","P.jpg","0","0","1","",""
"","feedback","","html-keyboard-response","396","445598","0.0-1.0-537.0-0.0","0","0","20187","","null","","","null","59","","","","","","","","","","","","","","","",""
"","ITI","","html-keyboard-response","397","446600","0.0-1.0-540.0","0","0","20187","","null","","","null","59","","","","","","","","","","","","","","","NaN",""
"","S1","","html-keyboard-response","398","446852","0.0-1.0-542.0","0","0","20187","","null","","","null","60","","","","","","","","","","","","","","","",""
"","ISI","","html-keyboard-response","399","447853","0.0-1.0-543.0","0","0","20187","","null","","","null","60","NaN","","","","","","","","","","","","","","",""
"","S2","","html-keyboard-response","400","448105","0.0-1.0-544.0","0","0","20187","","null","","","null","60","","NaN","","","","","","","","","","","","","",""
"","response","","html-keyboard-response","401","448671","0.0-1.0-545.0-0.0","0","0","20187","","565","","","75","60","","","2","60","training","adjacent","ED","5","4","L.jpg","P.jpg","1","0","0","",""
"","feedback","","html-keyboard-response","402","449674","0.0-1.0-546.0-0.0","0","0","20187","","null","","","null","60","","","","","","","","","","","","","","","",""
"","time_out","","html-keyboard-response","403","451675","0.0-1.0-548.0-0.0","0","0","20187","","null","","","null","60","","","","","","","","","","","","","","","",""
"","ITI","","html-keyboard-response","404","452677","0.0-1.0-549.0","0","0","20187","","null","","","null","60","","","","","","","","","","","","","","","NaN",""
"","S1","","html-keyboard-response","405","452929","0.0-1.0-551.0","0","0","20187","","null","","","null","61","","","","","","","","","","","","","","","",""
"","ISI","","html-keyboard-response","406","453930","0.0-1.0-552.0","0","0","20187","","null","","","null","61","NaN","","","","","","","","","","","","","","",""
"","S2","","html-keyboard-response","407","454182","0.0-1.0-553.0","0","0","20187","","null","","","null","61","","NaN","","","","","","","","","","","","","",""
"","response","","html-keyboard-response","408","454597","0.0-1.0-554.0-0.0","0","0","20187","","415","","","68","61","","","2","61","training","adjacent","AB","1","2","N.jpg","O.jpg","0","1","0","",""
"","feedback","","html-keyboard-response","409","455600","0.0-1.0-555.0-0.0","0","0","20187","","null","","","null","61","","","","","","","","","","","","","","","",""
"","time_out","","html-keyboard-response","410","457601","0.0-1.0-557.0-0.0","0","0","20187","","null","","","null","61","","","","","","","","","","","","","","","",""
"","ITI","","html-keyboard-response","411","458603","0.0-1.0-558.0","0","0","20187","","null","","","null","61","","","","","","","","","","","","","","","NaN",""
"","S1","","html-keyboard-response","412","458855","0.0-1.0-560.0","0","0","20187","","null","","","null","62","","","","","","","","","","","","","","","",""
"","ISI","","html-keyboard-response","413","459856","0.0-1.0-561.0","0","0","20187","","null","","","null","62","NaN","","","","","","","","","","","","","","",""
"","S2","","html-keyboard-response","414","460108","0.0-1.0-562.0","0","0","20187","","null","","","null","62","","NaN","","","","","","","","","","","","","",""
"","response","","html-keyboard-response","415","460700","0.0-1.0-563.0-0.0","0","0","20187","","591","","","68","62","","","2","62","training","adjacent","CD","3","4","M.jpg","P.jpg","0","1","0","",""
"","feedback","","html-keyboard-response","416","461702","0.0-1.0-564.0-0.0","0","0","20187","","null","","","null","62","","","","","","","","","","","","","","","",""
"","time_out","","html-keyboard-response","417","463704","0.0-1.0-566.0-0.0","0","0","20187","","null","","","null","62","","","","","","","","","","","","","","","",""
"","ITI","","html-keyboard-response","418","464706","0.0-1.0-567.0","0","0","20187","","null","","","null","62","","","","","","","","","","","","","","","NaN",""
"","S1","","html-keyboard-response","419","464956","0.0-1.0-569.0","0","0","20187","","null","","","null","63","","","","","","","","","","","","","","","",""
"","ISI","","html-keyboard-response","420","465959","0.0-1.0-570.0","0","0","20187","","null","","","null","63","NaN","","","","","","","","","","","","","","",""
"","S2","","html-keyboard-response","421","466211","0.0-1.0-571.0","0","0","20187","","null","","","null","63","","NaN","","","","","","","","","","","","","",""
"","response","","html-keyboard-response","422","466504","0.0-1.0-572.0-0.0","0","0","20187","","293","","","75","63","","","2","63","training","adjacent","CD","3","4","M.jpg","P.jpg","1","1","1","",""
"","feedback","","html-keyboard-response","423","467507","0.0-1.0-573.0-0.0","0","0","20187","","null","","","null","63","","","","","","","","","","","","","","","",""
"","ITI","","html-keyboard-response","424","468508","0.0-1.0-576.0","0","0","20187","","null","","","null","63","","","","","","","","","","","","","","","NaN",""
"","S1","","html-keyboard-response","425","468761","0.0-1.0-578.0","0","0","20187","","null","","","null","64","","","","","","","","","","","","","","","",""
"","ISI","","html-keyboard-response","426","469762","0.0-1.0-579.0","0","0","20187","","null","","","null","64","NaN","","","","","","","","","","","","","","",""
"","S2","","html-keyboard-response","427","470014","0.0-1.0-580.0","0","0","20187","","null","","","null","64","","NaN","","","","","","","","","","","","","",""
"","response","","html-keyboard-response","428","471401","0.0-1.0-581.0-0.0","0","0","20187","","1387","","","75","64","","","2","64","training","adjacent","CB","3","2","M.jpg","O.jpg","1","0","0","",""
"","feedback","","html-keyboard-response","429","472404","0.0-1.0-582.0-0.0","0","0","20187","","null","","","null","64","","","","","","","","","","","","","","","",""
"","time_out","","html-keyboard-response","430","474405","0.0-1.0-584.0-0.0","0","0","20187","","null","","","null","64","","","","","","","","","","","","","","","",""
"","ITI","","html-keyboard-response","431","475406","0.0-1.0-585.0","0","0","20187","","null","","","null","64","","","","","","","","","","","","","","","NaN",""
"","S1","","html-keyboard-response","432","475657","0.0-1.0-587.0","0","0","20187","","null","","","null","65","","","","","","","","","","","","","","","",""
"","ISI","","html-keyboard-response","433","476658","0.0-1.0-588.0","0","0","20187","","null","","","null","65","NaN","","","","","","","","","","","","","","",""
"","S2","","html-keyboard-response","434","476910","0.0-1.0-589.0","0","0","20187","","null","","","null","65","","NaN","","","","","","","","","","","","","",""
"","response","","html-keyboard-response","435","477499","0.0-1.0-590.0-0.0","0","0","20187","","588","","","75","65","","","2","65","training","adjacent","AB","1","2","N.jpg","O.jpg","1","1","1","",""
"","feedback","","html-keyboard-response","436","478501","0.0-1.0-591.0-0.0","0","0","20187","","null","","","null","65","","","","","","","","","","","","","","","",""
"","ITI","","html-keyboard-response","437","479504","0.0-1.0-594.0","0","0","20187","","null","","","null","65","","","","","","","","","","","","","","","NaN",""
"","S1","","html-keyboard-response","438","479754","0.0-1.0-596.0","0","0","20187","","null","","","null","66","","","","","","","","","","","","","","","",""
"","ISI","","html-keyboard-response","439","480757","0.0-1.0-597.0","0","0","20187","","null","","","null","66","NaN","","","","","","","","","","","","","","",""
"","S2","","html-keyboard-response","440","481008","0.0-1.0-598.0","0","0","20187","","null","","","null","66","","NaN","","","","","","","","","","","","","",""
"","response","","html-keyboard-response","441","481831","0.0-1.0-599.0-0.0","0","0","20187","","821","","","68","66","","","2","66","training","adjacent","FG","6","7","Q.jpg","R.jpg","0","1","0","",""
"","feedback","","html-keyboard-response","442","482833","0.0-1.0-600.0-0.0","0","0","20187","","null","","","null","66","","","","","","","","","","","","","","","",""
"","time_out","","html-keyboard-response","443","484835","0.0-1.0-602.0-0.0","0","0","20187","","null","","","null","66","","","","","","","","","","","","","","","",""
"","ITI","","html-keyboard-response","444","485837","0.0-1.0-603.0","0","0","20187","","null","","","null","66","","","","","","","","","","","","","","","NaN",""
"","S1","","html-keyboard-response","445","486088","0.0-1.0-605.0","0","0","20187","","null","","","null","67","","","","","","","","","","","","","","","",""
"","ISI","","html-keyboard-response","446","487089","0.0-1.0-606.0","0","0","20187","","null","","","null","67","NaN","","","","","","","","","","","","","","",""
"","S2","","html-keyboard-response","447","487342","0.0-1.0-607.0","0","0","20187","","null","","","null","67","","NaN","","","","","","","","","","","","","",""
"","response","","html-keyboard-response","448","487983","0.0-1.0-608.0-0.0","0","0","20187","","640","","","75","67","","","2","67","training","adjacent","BC","2","3","O.jpg","M.jpg","1","1","1","",""
"","feedback","","html-keyboard-response","449","488995","0.0-1.0-609.0-0.0","0","0","20187","","null","","","null","67","","","","","","","","","","","","","","","",""
"","ITI","","html-keyboard-response","450","489997","0.0-1.0-612.0","0","0","20187","","null","","","null","67","","","","","","","","","","","","","","","NaN",""
"","S1","","html-keyboard-response","451","490248","0.0-1.0-614.0","0","0","20187","","null","","","null","68","","","","","","","","","","","","","","","",""
"","ISI","","html-keyboard-response","452","491250","0.0-1.0-615.0","0","0","20187","","null","","","null","68","NaN","","","","","","","","","","","","","","",""
"","S2","","html-keyboard-response","453","491508","0.0-1.0-616.0","0","0","20187","","null","","","null","68","","NaN","","","","","","","","","","","","","",""
"","response","","html-keyboard-response","454","491855","0.0-1.0-617.0-0.0","0","0","20187","","346","","","75","68","","","2","68","training","adjacent","GF","7","6","R.jpg","Q.jpg","1","0","0","",""
"","feedback","","html-keyboard-response","455","492856","0.0-1.0-618.0-0.0","0","0","20187","","null","","","null","68","","","","","","","","","","","","","","","",""
"","time_out","","html-keyboard-response","456","494857","0.0-1.0-620.0-0.0","0","0","20187","","null","","","null","68","","","","","","","","","","","","","","","",""
"","ITI","","html-keyboard-response","457","495859","0.0-1.0-621.0","0","0","20187","","null","","","null","68","","","","","","","","","","","","","","","NaN",""
"","S1","","html-keyboard-response","458","496111","0.0-1.0-623.0","0","0","20187","","null","","","null","69","","","","","","","","","","","","","","","",""
"","ISI","","html-keyboard-response","459","497112","0.0-1.0-624.0","0","0","20187","","null","","","null","69","NaN","","","","","","","","","","","","","","",""
"","S2","","html-keyboard-response","460","497366","0.0-1.0-625.0","0","0","20187","","null","","","null","69","","NaN","","","","","","","","","","","","","",""
"","response","","html-keyboard-response","461","497989","0.0-1.0-626.0-0.0","0","0","20187","","623","","","68","69","","","2","69","training","adjacent","DE","4","5","P.jpg","L.jpg","0","1","0","",""
"","feedback","","html-keyboard-response","462","498997","0.0-1.0-627.0-0.0","0","0","20187","","null","","","null","69","","","","","","","","","","","","","","","",""
"","time_out","","html-keyboard-response","463","500999","0.0-1.0-629.0-0.0","0","0","20187","","null","","","null","69","","","","","","","","","","","","","","","",""
"","ITI","","html-keyboard-response","464","502001","0.0-1.0-630.0","0","0","20187","","null","","","null","69","","","","","","","","","","","","","","","NaN",""
"","S1","","html-keyboard-response","465","502254","0.0-1.0-632.0","0","0","20187","","null","","","null","70","","","","","","","","","","","","","","","",""
"","ISI","","html-keyboard-response","466","503255","0.0-1.0-633.0","0","0","20187","","null","","","null","70","NaN","","","","","","","","","","","","","","",""
"","S2","","html-keyboard-response","467","503506","0.0-1.0-634.0","0","0","20187","","null","","","null","70","","NaN","","","","","","","","","","","","","",""
"","response","","html-keyboard-response","468","503998","0.0-1.0-635.0-0.0","0","0","20187","","490","","","68","70","","","2","70","training","adjacent","BC","2","3","O.jpg","M.jpg","0","1","0","",""
"","feedback","","html-keyboard-response","469","505000","0.0-1.0-636.0-0.0","0","0","20187","","null","","","null","70","","","","","","","","","","","","","","","",""
"","time_out","","html-keyboard-response","470","507003","0.0-1.0-638.0-0.0","0","0","20187","","null","","","null","70","","","","","","","","","","","","","","","",""
"","ITI","","html-keyboard-response","471","508005","0.0-1.0-639.0","0","0","20187","","null","","","null","70","","","","","","","","","","","","","","","NaN",""
"","S1","","html-keyboard-response","472","508257","0.0-1.0-641.0","0","0","20187","","null","","","null","71","","","","","","","","","","","","","","","",""
"","ISI","","html-keyboard-response","473","509257","0.0-1.0-642.0","0","0","20187","","null","","","null","71","NaN","","","","","","","","","","","","","","",""
"","S2","","html-keyboard-response","474","509510","0.0-1.0-643.0","0","0","20187","","null","","","null","71","","NaN","","","","","","","","","","","","","",""
"","response","","html-keyboard-response","475","510172","0.0-1.0-644.0-0.0","0","0","20187","","661","","","68","71","","","2","71","training","adjacent","AB","1","2","N.jpg","O.jpg","0","1","0","",""
"","feedback","","html-keyboard-response","476","511174","0.0-1.0-645.0-0.0","0","0","20187","","null","","","null","71","","","","","","","","","","","","","","","",""
"","time_out","","html-keyboard-response","477","513176","0.0-1.0-647.0-0.0","0","0","20187","","null","","","null","71","","","","","","","","","","","","","","","",""
"","ITI","","html-keyboard-response","478","514177","0.0-1.0-648.0","0","0","20187","","null","","","null","71","","","","","","","","","","","","","","","NaN",""
"","S1","","html-keyboard-response","479","514429","0.0-1.0-650.0","0","0","20187","","null","","","null","72","","","","","","","","","","","","","","","",""
"","ISI","","html-keyboard-response","480","515431","0.0-1.0-651.0","0","0","20187","","null","","","null","72","NaN","","","","","","","","","","","","","","",""
"","S2","","html-keyboard-response","481","515684","0.0-1.0-652.0","0","0","20187","","null","","","null","72","","NaN","","","","","","","","","","","","","",""
"","response","","html-keyboard-response","482","516116","0.0-1.0-653.0-0.0","0","0","20187","","431","","","68","72","","","2","72","training","adjacent","BA","2","1","O.jpg","N.jpg","0","0","1","",""
"","feedback","","html-keyboard-response","483","517117","0.0-1.0-654.0-0.0","0","0","20187","","null","","","null","72","","","","","","","","","","","","","","","",""
"","ITI","","html-keyboard-response","484","518120","0.0-1.0-657.0","0","0","20187","","null","","","null","72","","","","","","","","","","","","","","","NaN",""
"","S1","","html-keyboard-response","485","518383","0.0-1.0-659.0","0","0","20187","","null","","","null","73","","","","","","","","","","","","","","","",""
"","ISI","","html-keyboard-response","486","519385","0.0-1.0-660.0","0","0","20187","","null","","","null","73","NaN","","","","","","","","","","","","","","",""
"","S2","","html-keyboard-response","487","519637","0.0-1.0-661.0","0","0","20187","","null","","","null","73","","NaN","","","","","","","","","","","","","",""
"","response","","html-keyboard-response","488","520071","0.0-1.0-662.0-0.0","0","0","20187","","433","","","75","73","","","2","73","training","adjacent","AB","1","2","N.jpg","O.jpg","1","1","1","",""
"","feedback","","html-keyboard-response","489","521074","0.0-1.0-663.0-0.0","0","0","20187","","null","","","null","73","","","","","","","","","","","","","","","",""
"","ITI","","html-keyboard-response","490","522076","0.0-1.0-666.0","0","0","20187","","null","","","null","73","","","","","","","","","","","","","","","NaN",""
"","S1","","html-keyboard-response","491","522328","0.0-1.0-668.0","0","0","20187","","null","","","null","74","","","","","","","","","","","","","","","",""
"","ISI","","html-keyboard-response","492","523329","0.0-1.0-669.0","0","0","20187","","null","","","null","74","NaN","","","","","","","","","","","","","","",""
"","S2","","html-keyboard-response","493","523581","0.0-1.0-670.0","0","0","20187","","null","","","null","74","","NaN","","","","","","","","","","","","","",""
"","response","","html-keyboard-response","494","524563","0.0-1.0-671.0-0.0","0","0","20187","","982","","","75","74","","","2","74","training","adjacent","BA","2","1","O.jpg","N.jpg","1","0","0","",""
"","feedback","","html-keyboard-response","495","525565","0.0-1.0-672.0-0.0","0","0","20187","","null","","","null","74","","","","","","","","","","","","","","","",""
"","time_out","","html-keyboard-response","496","527567","0.0-1.0-674.0-0.0","0","0","20187","","null","","","null","74","","","","","","","","","","","","","","","",""
"","ITI","","html-keyboard-response","497","528569","0.0-1.0-675.0","0","0","20187","","null","","","null","74","","","","","","","","","","","","","","","NaN",""
"","S1","","html-keyboard-response","498","528821","0.0-1.0-677.0","0","0","20187","","null","","","null","75","","","","","","","","","","","","","","","",""
"","ISI","","html-keyboard-response","499","529824","0.0-1.0-678.0","0","0","20187","","null","","","null","75","NaN","","","","","","","","","","","","","","",""
"","S2","","html-keyboard-response","500","530077","0.0-1.0-679.0","0","0","20187","","null","","","null","75","","NaN","","","","","","","","","","","","","",""
"","response","","html-keyboard-response","501","530982","0.0-1.0-680.0-0.0","0","0","20187","","904","","","68","75","","","2","75","training","adjacent","CB","3","2","M.jpg","O.jpg","0","0","1","",""
"","feedback","","html-keyboard-response","502","531984","0.0-1.0-681.0-0.0","0","0","20187","","null","","","null","75","","","","","","","","","","","","","","","",""
"","ITI","","html-keyboard-response","503","532985","0.0-1.0-684.0","0","0","20187","","null","","","null","75","","","","","","","","","","","","","","","NaN",""
"","S1","","html-keyboard-response","504","533236","0.0-1.0-686.0","0","0","20187","","null","","","null","76","","","","","","","","","","","","","","","",""
"","ISI","","html-keyboard-response","505","534238","0.0-1.0-687.0","0","0","20187","","null","","","null","76","NaN","","","","","","","","","","","","","","",""
"","S2","","html-keyboard-response","506","534505","0.0-1.0-688.0","0","0","20187","","null","","","null","76","","NaN","","","","","","","","","","","","","",""
"","response","","html-keyboard-response","507","535197","0.0-1.0-689.0-0.0","0","0","20187","","690","","","75","76","","","2","76","training","adjacent","FE","6","5","Q.jpg","L.jpg","1","0","0","",""
"","feedback","","html-keyboard-response","508","536199","0.0-1.0-690.0-0.0","0","0","20187","","null","","","null","76","","","","","","","","","","","","","","","",""
"","time_out","","html-keyboard-response","509","538200","0.0-1.0-692.0-0.0","0","0","20187","","null","","","null","76","","","","","","","","","","","","","","","",""
"","ITI","","html-keyboard-response","510","539202","0.0-1.0-693.0","0","0","20187","","null","","","null","76","","","","","","","","","","","","","","","NaN",""
"","S1","","html-keyboard-response","511","539454","0.0-1.0-695.0","0","0","20187","","null","","","null","77","","","","","","","","","","","","","","","",""
"","ISI","","html-keyboard-response","512","540456","0.0-1.0-696.0","0","0","20187","","null","","","null","77","NaN","","","","","","","","","","","","","","",""
"","S2","","html-keyboard-response","513","540709","0.0-1.0-697.0","0","0","20187","","null","","","null","77","","NaN","","","","","","","","","","","","","",""
"","response","","html-keyboard-response","514","541459","0.0-1.0-698.0-0.0","0","0","20187","","748","","","75","77","","","2","77","training","adjacent","DC","4","3","P.jpg","M.jpg","1","0","0","",""
"","feedback","","html-keyboard-response","515","542460","0.0-1.0-699.0-0.0","0","0","20187","","null","","","null","77","","","","","","","","","","","","","","","",""
"","time_out","","html-keyboard-response","516","544463","0.0-1.0-701.0-0.0","0","0","20187","","null","","","null","77","","","","","","","","","","","","","","","",""
"","ITI","","html-keyboard-response","517","545464","0.0-1.0-702.0","0","0","20187","","null","","","null","77","","","","","","","","","","","","","","","NaN",""
"","S1","","html-keyboard-response","518","545715","0.0-1.0-704.0","0","0","20187","","null","","","null","78","","","","","","","","","","","","","","","",""
"","ISI","","html-keyboard-response","519","546716","0.0-1.0-705.0","0","0","20187","","null","","","null","78","NaN","","","","","","","","","","","","","","",""
"","S2","","html-keyboard-response","520","546969","0.0-1.0-706.0","0","0","20187","","null","","","null","78","","NaN","","","","","","","","","","","","","",""
"","response","","html-keyboard-response","521","547515","0.0-1.0-707.0-0.0","0","0","20187","","544","","","68","78","","","2","78","training","adjacent","ED","5","4","L.jpg","P.jpg","0","0","1","",""
"","feedback","","html-keyboard-response","522","548516","0.0-1.0-708.0-0.0","0","0","20187","","null","","","null","78","","","","","","","","","","","","","","","",""
"","ITI","","html-keyboard-response","523","549517","0.0-1.0-711.0","0","0","20187","","null","","","null","78","","","","","","","","","","","","","","","NaN",""
"","S1","","html-keyboard-response","524","549769","0.0-1.0-713.0","0","0","20187","","null","","","null","79","","","","","","","","","","","","","","","",""
"","ISI","","html-keyboard-response","525","550774","0.0-1.0-714.0","0","0","20187","","null","","","null","79","NaN","","","","","","","","","","","","","","",""
"","S2","","html-keyboard-response","526","551027","0.0-1.0-715.0","0","0","20187","","null","","","null","79","","NaN","","","","","","","","","","","","","",""
"","response","","html-keyboard-response","527","551734","0.0-1.0-716.0-0.0","0","0","20187","","707","","","75","79","","","2","79","training","adjacent","FG","6","7","Q.jpg","R.jpg","1","1","1","",""
"","feedback","","html-keyboard-response","528","552737","0.0-1.0-717.0-0.0","0","0","20187","","null","","","null","79","","","","","","","","","","","","","","","",""
"","ITI","","html-keyboard-response","529","553738","0.0-1.0-720.0","0","0","20187","","null","","","null","79","","","","","","","","","","","","","","","NaN",""
"","S1","","html-keyboard-response","530","553990","0.0-1.0-722.0","0","0","20187","","null","","","null","80","","","","","","","","","","","","","","","",""
"","ISI","","html-keyboard-response","531","554993","0.0-1.0-723.0","0","0","20187","","null","","","null","80","NaN","","","","","","","","","","","","","","",""
"","S2","","html-keyboard-response","532","555245","0.0-1.0-724.0","0","0","20187","","null","","","null","80","","NaN","","","","","","","","","","","","","",""
"","response","","html-keyboard-response","533","555778","0.0-1.0-725.0-0.0","0","0","20187","","532","","","68","80","","","2","80","training","adjacent","DC","4","3","P.jpg","M.jpg","0","0","1","",""
"","feedback","","html-keyboard-response","534","556781","0.0-1.0-726.0-0.0","0","0","20187","","null","","","null","80","","","","","","","","","","","","","","","",""
"","ITI","","html-keyboard-response","535","557782","0.0-1.0-729.0","0","0","20187","","null","","","null","80","","","","","","","","","","","","","","","NaN",""
"","S1","","html-keyboard-response","536","558033","0.0-1.0-731.0","0","0","20187","","null","","","null","81","","","","","","","","","","","","","","","",""
"","ISI","","html-keyboard-response","537","559034","0.0-1.0-732.0","0","0","20187","","null","","","null","81","NaN","","","","","","","","","","","","","","",""
"","S2","","html-keyboard-response","538","559287","0.0-1.0-733.0","0","0","20187","","null","","","null","81","","NaN","","","","","","","","","","","","","",""
"","response","","html-keyboard-response","539","559571","0.0-1.0-734.0-0.0","0","0","20187","","283","","","68","81","","","2","81","training","adjacent","CD","3","4","M.jpg","P.jpg","0","1","0","",""
"","feedback","","html-keyboard-response","540","560572","0.0-1.0-735.0-0.0","0","0","20187","","null","","","null","81","","","","","","","","","","","","","","","",""
"","time_out","","html-keyboard-response","541","562574","0.0-1.0-737.0-0.0","0","0","20187","","null","","","null","81","","","","","","","","","","","","","","","",""
"","ITI","","html-keyboard-response","542","563576","0.0-1.0-738.0","0","0","20187","","null","","","null","81","","","","","","","","","","","","","","","NaN",""
"","S1","","html-keyboard-response","543","563827","0.0-1.0-740.0","0","0","20187","","null","","","null","82","","","","","","","","","","","","","","","",""
"","ISI","","html-keyboard-response","544","564828","0.0-1.0-741.0","0","0","20187","","null","","","null","82","NaN","","","","","","","","","","","","","","",""
"","S2","","html-keyboard-response","545","565081","0.0-1.0-742.0","0","0","20187","","null","","","null","82","","NaN","","","","","","","","","","","","","",""
"","response","","html-keyboard-response","546","565488","0.0-1.0-743.0-0.0","0","0","20187","","405","","","75","82","","","2","82","training","adjacent","FG","6","7","Q.jpg","R.jpg","1","1","1","",""
"","feedback","","html-keyboard-response","547","566489","0.0-1.0-744.0-0.0","0","0","20187","","null","","","null","82","","","","","","","","","","","","","","","",""
"","ITI","","html-keyboard-response","548","567491","0.0-1.0-747.0","0","0","20187","","null","","","null","82","","","","","","","","","","","","","","","NaN",""
"","S1","","html-keyboard-response","549","567743","0.0-1.0-749.0","0","0","20187","","null","","","null","83","","","","","","","","","","","","","","","",""
"","ISI","","html-keyboard-response","550","568758","0.0-1.0-750.0","0","0","20187","","null","","","null","83","NaN","","","","","","","","","","","","","","",""
"","S2","","html-keyboard-response","551","569012","0.0-1.0-751.0","0","0","20187","","null","","","null","83","","NaN","","","","","","","","","","","","","",""
"","response","","html-keyboard-response","552","569673","0.0-1.0-752.0-0.0","0","0","20187","","661","","","75","83","","","2","83","training","adjacent","DE","4","5","P.jpg","L.jpg","1","1","1","",""
"","feedback","","html-keyboard-response","553","570676","0.0-1.0-753.0-0.0","0","0","20187","","null","","","null","83","","","","","","","","","","","","","","","",""
"","ITI","","html-keyboard-response","554","571677","0.0-1.0-756.0","0","0","20187","","null","","","null","83","","","","","","","","","","","","","","","NaN",""
"","S1","","html-keyboard-response","555","571928","0.0-1.0-758.0","0","0","20187","","null","","","null","84","","","","","","","","","","","","","","","",""
"","ISI","","html-keyboard-response","556","572929","0.0-1.0-759.0","0","0","20187","","null","","","null","84","NaN","","","","","","","","","","","","","","",""
"","S2","","html-keyboard-response","557","573182","0.0-1.0-760.0","0","0","20187","","null","","","null","84","","NaN","","","","","","","","","","","","","",""
"","response","","html-keyboard-response","558","573542","0.0-1.0-761.0-0.0","0","0","20187","","359","","","68","84","","","2","84","training","adjacent","FE","6","5","Q.jpg","L.jpg","0","0","1","",""
"","feedback","","html-keyboard-response","559","574544","0.0-1.0-762.0-0.0","0","0","20187","","null","","","null","84","","","","","","","","","","","","","","","",""
"","ITI","","html-keyboard-response","560","575546","0.0-1.0-765.0","0","0","20187","","null","","","null","84","","","","","","","","","","","","","","","NaN",""
"","S1","","html-keyboard-response","561","575798","0.0-1.0-767.0","0","0","20187","","null","","","null","85","","","","","","","","","","","","","","","",""
"","ISI","","html-keyboard-response","562","576800","0.0-1.0-768.0","0","0","20187","","null","","","null","85","NaN","","","","","","","","","","","","","","",""
"","S2","","html-keyboard-response","563","577052","0.0-1.0-769.0","0","0","20187","","null","","","null","85","","NaN","","","","","","","","","","","","","",""
"","response","","html-keyboard-response","564","577588","0.0-1.0-770.0-0.0","0","0","20187","","536","","","75","85","","","2","85","training","adjacent","EF","5","6","L.jpg","Q.jpg","1","1","1","",""
"","feedback","","html-keyboard-response","565","578590","0.0-1.0-771.0-0.0","0","0","20187","","null","","","null","85","","","","","","","","","","","","","","","",""
"","ITI","","html-keyboard-response","566","579592","0.0-1.0-774.0","0","0","20187","","null","","","null","85","","","","","","","","","","","","","","","NaN",""
"","S1","","html-keyboard-response","567","579845","0.0-1.0-776.0","0","0","20187","","null","","","null","86","","","","","","","","","","","","","","","",""
"","ISI","","html-keyboard-response","568","580846","0.0-1.0-777.0","0","0","20187","","null","","","null","86","NaN","","","","","","","","","","","","","","",""
"","S2","","html-keyboard-response","569","581099","0.0-1.0-778.0","0","0","20187","","null","","","null","86","","NaN","","","","","","","","","","","","","",""
"","response","","html-keyboard-response","570","582139","0.0-1.0-779.0-0.0","0","0","20187","","1039","","","68","86","","","2","86","training","adjacent","FG","6","7","Q.jpg","R.jpg","0","1","0","",""
"","feedback","","html-keyboard-response","571","583141","0.0-1.0-780.0-0.0","0","0","20187","","null","","","null","86","","","","","","","","","","","","","","","",""
"","time_out","","html-keyboard-response","572","585142","0.0-1.0-782.0-0.0","0","0","20187","","null","","","null","86","","","","","","","","","","","","","","","",""
"","ITI","","html-keyboard-response","573","586144","0.0-1.0-783.0","0","0","20187","","null","","","null","86","","","","","","","","","","","","","","","NaN",""
"","S1","","html-keyboard-response","574","586395","0.0-1.0-785.0","0","0","20187","","null","","","null","87","","","","","","","","","","","","","","","",""
"","ISI","","html-keyboard-response","575","587397","0.0-1.0-786.0","0","0","20187","","null","","","null","87","NaN","","","","","","","","","","","","","","",""
"","S2","","html-keyboard-response","576","587648","0.0-1.0-787.0","0","0","20187","","null","","","null","87","","NaN","","","","","","","","","","","","","",""
"","response","","html-keyboard-response","577","588155","0.0-1.0-788.0-0.0","0","0","20187","","505","","","75","87","","","2","87","training","adjacent","GF","7","6","R.jpg","Q.jpg","1","0","0","",""
"","feedback","","html-keyboard-response","578","589169","0.0-1.0-789.0-0.0","0","0","20187","","null","","","null","87","","","","","","","","","","","","","","","",""
"","time_out","","html-keyboard-response","579","591169","0.0-1.0-791.0-0.0","0","0","20187","","null","","","null","87","","","","","","","","","","","","","","","",""
"","ITI","","html-keyboard-response","580","592171","0.0-1.0-792.0","0","0","20187","","null","","","null","87","","","","","","","","","","","","","","","NaN",""
