"success","ttype","start_time","trial_type","trial_index","time_elapsed","internal_node_id","warning","missed_checkup","PID","view_history","rt","responses","repeat_instructions","key_press","index","keypress_isi","keypress_S2","block","trial_num","phase","group_type","pair_type","S1_stim","S2_stim","S1_img","S2_img","S1_chosen","S1_higher","accuracy","keypress_iti","total_bonus_tally"
"true","full_screen","d08012022hr1348","fullscreen","0","22235","0.0-0.0","0","0","41362","","","","","","","","","","","","","","","","","","","","","",""
"","instructions","","instructions","1","74201","0.0-1.0-0.0-0.0","0","0","41362","[{""page_index"":0,""viewing_time"":7451},{""page_index"":1,""viewing_time"":27008},{""page_index"":2,""viewing_time"":14848},{""page_index"":3,""viewing_time"":2655}]","51963","","","","","","","","","","","","","","","","","","","",""
"","comprehension_check","","survey-multi-choice","2","112113","0.0-1.0-0.0-1.0","0","0","41362","","37909","{""Q0"":""True"",""Q1"":""D"",""Q2"":""While the images are shown"",""Q3"":""Green mark"",""Q4"":""either D or K""}","1","","","","","","","","","","","","","","","","","",""
"","missed_instruction_checkup","","html-keyboard-response","3","115404","0.0-1.0-0.0-2.0-0.0","0","1","41362","","3287","","","32","","","","","","","","","","","","","","","","",""
"","instructions","","instructions","4","139232","0.0-1.0-0.1-0.1","0","0","41362","[{""page_index"":0,""viewing_time"":7634},{""page_index"":1,""viewing_time"":8264},{""page_index"":2,""viewing_time"":6608},{""page_index"":3,""viewing_time"":1320}]","23826","","","","","","","","","","","","","","","","","","","",""
"","comprehension_check","","survey-multi-choice","5","155113","0.0-1.0-0.1-1.1","0","0","41362","","15878","{""Q0"":""True"",""Q1"":""D"",""Q2"":""When you see the prompt 'MAKE A CHOICE' after the second image was presented"",""Q3"":""Green mark"",""Q4"":""either D or K""}","0","","","","","","","","","","","","","","","","","",""
"","start_exp","","html-keyboard-response","6","157320","0.0-1.0-1.0","0","0","41362","","2206","","","32","","","","","","","","","","","","","","","","",""
"","S1","","html-keyboard-response","7","157574","0.0-1.0-2.0","0","0","41362","","null","","","null","0","","","","","","","","","","","","","","","",""
"","ISI","","html-keyboard-response","8","159577","0.0-1.0-3.0","0","0","41362","","null","","","null","0","NaN","","","","","","","","","","","","","","",""
"","S2","","html-keyboard-response","9","159830","0.0-1.0-4.0","0","0","41362","","null","","","null","0","","NaN","","","","","","","","","","","","","",""
"","response","","html-keyboard-response","10","160382","0.0-1.0-5.0","0","0","41362","","550","","","68","0","","","1","0","training","adjacent","BC","2","3","L.jpg","R.jpg","1","1","1","",""
"","feedback","","html-keyboard-response","11","161385","0.0-1.0-6.0-0.0","0","0","41362","","null","","","null","0","","","","","","","","","","","","","","","",""
"","ITI","","html-keyboard-response","12","162388","0.0-1.0-9.0","0","0","41362","","null","","","null","0","","","","","","","","","","","","","","","NaN",""
"","S1","","html-keyboard-response","13","162642","0.0-1.0-11.0","0","0","41362","","null","","","null","1","","","","","","","","","","","","","","","",""
"","ISI","","html-keyboard-response","14","164644","0.0-1.0-12.0","0","0","41362","","null","","","null","1","NaN","","","","","","","","","","","","","","",""
"","S2","","html-keyboard-response","15","164897","0.0-1.0-13.0","0","0","41362","","null","","","null","1","","NaN","","","","","","","","","","","","","",""
"","response","","html-keyboard-response","16","166464","0.0-1.0-14.0","0","0","41362","","1565","","","75","1","","","1","1","training","adjacent","BA","2","1","L.jpg","N.jpg","0","0","1","",""
"","feedback","","html-keyboard-response","17","167467","0.0-1.0-15.0-0.0","0","0","41362","","null","","","null","1","","","","","","","","","","","","","","","",""
"","ITI","","html-keyboard-response","18","168471","0.0-1.0-18.0","0","0","41362","","null","","","null","1","","","","","","","","","","","","","","","NaN",""
"","S1","","html-keyboard-response","19","168724","0.0-1.0-20.0","0","0","41362","","null","","","null","2","","","","","","","","","","","","","","","",""
"","ISI","","html-keyboard-response","20","170726","0.0-1.0-21.0","0","0","41362","","null","","","null","2","NaN","","","","","","","","","","","","","","",""
"","S2","","html-keyboard-response","21","170987","0.0-1.0-22.0","0","0","41362","","null","","","null","2","","NaN","","","","","","","","","","","","","",""
"","response","","html-keyboard-response","22","171683","0.0-1.0-23.0","0","0","41362","","695","","","75","2","","","1","2","training","adjacent","FG","6","7","Q.jpg","O.jpg","0","1","0","",""
"","feedback","","html-keyboard-response","23","172686","0.0-1.0-24.0-0.0","0","0","41362","","null","","","null","2","","","","","","","","","","","","","","","",""
"","time_out","","html-keyboard-response","24","174688","0.0-1.0-26.0-0.0","0","0","41362","","null","","","null","2","","","","","","","","","","","","","","","",""
"","ITI","","html-keyboard-response","25","175692","0.0-1.0-27.0","0","0","41362","","null","","","null","2","","","","","","","","","","","","","","","NaN",""
"","S1","","html-keyboard-response","26","175944","0.0-1.0-29.0","0","0","41362","","null","","","null","3","","","","","","","","","","","","","","","",""
"","ISI","","html-keyboard-response","27","177946","0.0-1.0-30.0","0","0","41362","","null","","","null","3","NaN","","","","","","","","","","","","","","",""
"","S2","","html-keyboard-response","28","178200","0.0-1.0-31.0","0","0","41362","","null","","","null","3","","NaN","","","","","","","","","","","","","",""
"","response","","html-keyboard-response","29","178444","0.0-1.0-32.0","0","0","41362","","242","","","75","3","","","1","3","training","adjacent","BC","2","3","L.jpg","R.jpg","0","1","0","",""
"","feedback","","html-keyboard-response","30","179448","0.0-1.0-33.0-0.0","0","0","41362","","null","","","null","3","","","","","","","","","","","","","","","",""
"","time_out","","html-keyboard-response","31","181451","0.0-1.0-35.0-0.0","0","0","41362","","null","","","null","3","","","","","","","","","","","","","","","",""
"","ITI","","html-keyboard-response","32","182454","0.0-1.0-36.0","0","0","41362","","null","","","null","3","","","","","","","","","","","","","","","NaN",""
"","S1","","html-keyboard-response","33","182706","0.0-1.0-38.0","0","0","41362","","null","","","null","4","","","","","","","","","","","","","","","",""
"","ISI","","html-keyboard-response","34","184708","0.0-1.0-39.0","0","0","41362","","null","","","null","4","NaN","","","","","","","","","","","","","","",""
"","S2","","html-keyboard-response","35","184962","0.0-1.0-40.0","0","0","41362","","null","","","null","4","","NaN","","","","","","","","","","","","","",""
"","response","","html-keyboard-response","36","185850","0.0-1.0-41.0","0","0","41362","","887","","","75","4","","","1","4","training","adjacent","BA","2","1","L.jpg","N.jpg","0","0","1","",""
"","feedback","","html-keyboard-response","37","186853","0.0-1.0-42.0-0.0","0","0","41362","","null","","","null","4","","","","","","","","","","","","","","","",""
"","ITI","","html-keyboard-response","38","187855","0.0-1.0-45.0","0","0","41362","","null","","","null","4","","","","","","","","","","","","","","","NaN",""
"","S1","","html-keyboard-response","39","188108","0.0-1.0-47.0","0","0","41362","","null","","","null","5","","","","","","","","","","","","","","","",""
"","ISI","","html-keyboard-response","40","190111","0.0-1.0-48.0","0","0","41362","","null","","","null","5","NaN","","","","","","","","","","","","","","",""
"","S2","","html-keyboard-response","41","190363","0.0-1.0-49.0","0","0","41362","","null","","","null","5","","NaN","","","","","","","","","","","","","",""
"","response","","html-keyboard-response","42","191098","0.0-1.0-50.0","0","0","41362","","733","","","68","5","","","1","5","training","adjacent","AB","1","2","N.jpg","L.jpg","1","1","1","",""
"","feedback","","html-keyboard-response","43","192102","0.0-1.0-51.0-0.0","0","0","41362","","null","","","null","5","","","","","","","","","","","","","","","",""
"","ITI","","html-keyboard-response","44","193105","0.0-1.0-54.0","0","0","41362","","null","","","null","5","","","","","","","","","","","","","","","NaN",""
"","S1","","html-keyboard-response","45","193359","0.0-1.0-56.0","0","0","41362","","null","","","null","6","","","","","","","","","","","","","","","",""
"","ISI","","html-keyboard-response","46","195361","0.0-1.0-57.0","0","0","41362","","null","","","null","6","NaN","","","","","","","","","","","","","","",""
"","S2","","html-keyboard-response","47","195613","0.0-1.0-58.0","0","0","41362","","null","","","null","6","","NaN","","","","","","","","","","","","","",""
"","response","","html-keyboard-response","48","196183","0.0-1.0-59.0","0","0","41362","","568","","","75","6","","","1","6","training","adjacent","FG","6","7","Q.jpg","O.jpg","0","1","0","",""
"","feedback","","html-keyboard-response","49","197189","0.0-1.0-60.0-0.0","0","0","41362","","null","","","null","6","","","","","","","","","","","","","","","",""
"","time_out","","html-keyboard-response","50","199191","0.0-1.0-62.0-0.0","0","0","41362","","null","","","null","6","","","","","","","","","","","","","","","",""
"","ITI","","html-keyboard-response","51","200193","0.0-1.0-63.0","0","0","41362","","null","","","null","6","","","","","","","","","","","","","","","NaN",""
"","S1","","html-keyboard-response","52","200446","0.0-1.0-65.0","0","0","41362","","null","","","null","7","","","","","","","","","","","","","","","",""
"","ISI","","html-keyboard-response","53","202448","0.0-1.0-66.0","0","0","41362","","null","","","null","7","NaN","","","","","","","","","","","","","","",""
"","S2","","html-keyboard-response","54","202701","0.0-1.0-67.0","0","0","41362","","null","","","null","7","","NaN","","","","","","","","","","","","","",""
"","response","","html-keyboard-response","55","203253","0.0-1.0-68.0","0","0","41362","","551","","","68","7","","","1","7","training","adjacent","CB","3","2","R.jpg","L.jpg","1","0","0","",""
"","feedback","","html-keyboard-response","56","204255","0.0-1.0-69.0-0.0","0","0","41362","","null","","","null","7","","","","","","","","","","","","","","","",""
"","time_out","","html-keyboard-response","57","206257","0.0-1.0-71.0-0.0","0","0","41362","","null","","","null","7","","","","","","","","","","","","","","","",""
"","ITI","","html-keyboard-response","58","207259","0.0-1.0-72.0","0","0","41362","","null","","","null","7","","","","","","","","","","","","","","","NaN",""
"","S1","","html-keyboard-response","59","207511","0.0-1.0-74.0","0","0","41362","","null","","","null","8","","","","","","","","","","","","","","","",""
"","ISI","","html-keyboard-response","60","209514","0.0-1.0-75.0","0","0","41362","","null","","","null","8","NaN","","","","","","","","","","","","","","",""
"","S2","","html-keyboard-response","61","209767","0.0-1.0-76.0","0","0","41362","","null","","","null","8","","NaN","","","","","","","","","","","","","",""
"","response","","html-keyboard-response","62","210286","0.0-1.0-77.0","0","0","41362","","517","","","75","8","","","1","8","training","adjacent","AB","1","2","N.jpg","L.jpg","0","1","0","",""
"","feedback","","html-keyboard-response","63","211288","0.0-1.0-78.0-0.0","0","0","41362","","null","","","null","8","","","","","","","","","","","","","","","",""
"","time_out","","html-keyboard-response","64","213290","0.0-1.0-80.0-0.0","0","0","41362","","null","","","null","8","","","","","","","","","","","","","","","",""
"","ITI","","html-keyboard-response","65","214293","0.0-1.0-81.0","0","0","41362","","null","","","null","8","","","","","","","","","","","","","","","NaN",""
"","S1","","html-keyboard-response","66","214546","0.0-1.0-83.0","0","0","41362","","null","","","null","9","","","","","","","","","","","","","","","",""
"","ISI","","html-keyboard-response","67","216548","0.0-1.0-84.0","0","0","41362","","null","","","null","9","NaN","","","","","","","","","","","","","","",""
"","S2","","html-keyboard-response","68","216801","0.0-1.0-85.0","0","0","41362","","null","","","null","9","","NaN","","","","","","","","","","","","","",""
"","response","","html-keyboard-response","69","217133","0.0-1.0-86.0","0","0","41362","","330","","","75","9","","","1","9","training","adjacent","GF","7","6","O.jpg","Q.jpg","0","0","1","",""
"","feedback","","html-keyboard-response","70","218135","0.0-1.0-87.0-0.0","0","0","41362","","null","","","null","9","","","","","","","","","","","","","","","",""
"","ITI","","html-keyboard-response","71","219138","0.0-1.0-90.0","0","0","41362","","null","","","null","9","","","","","","","","","","","","","","","NaN",""
"","S1","","html-keyboard-response","72","219391","0.0-1.0-92.0","0","0","41362","","null","","","null","10","","","","","","","","","","","","","","","",""
"","ISI","","html-keyboard-response","73","221393","0.0-1.0-93.0","0","0","41362","","null","","","null","10","NaN","","","","","","","","","","","","","","",""
"","S2","","html-keyboard-response","74","221647","0.0-1.0-94.0","0","0","41362","","null","","","null","10","","NaN","","","","","","","","","","","","","",""
"","response","","html-keyboard-response","75","222187","0.0-1.0-95.0","0","0","41362","","539","","","75","10","","","1","10","training","adjacent","DC","4","3","M.jpg","R.jpg","0","0","1","",""
"","feedback","","html-keyboard-response","76","223190","0.0-1.0-96.0-0.0","0","0","41362","","null","","","null","10","","","","","","","","","","","","","","","",""
"","ITI","","html-keyboard-response","77","224193","0.0-1.0-99.0","0","0","41362","","null","","","null","10","","","","","","","","","","","","","","","NaN",""
"","S1","","html-keyboard-response","78","224447","0.0-1.0-101.0","0","0","41362","","null","","","null","11","","","","","","","","","","","","","","","",""
"","ISI","","html-keyboard-response","79","226450","0.0-1.0-102.0","0","0","41362","","null","","","null","11","NaN","","","","","","","","","","","","","","",""
"","S2","","html-keyboard-response","80","226703","0.0-1.0-103.0","0","0","41362","","null","","","null","11","","NaN","","","","","","","","","","","","","",""
"","response","","html-keyboard-response","81","227167","0.0-1.0-104.0","0","0","41362","","462","","","75","11","","","1","11","training","adjacent","DE","4","5","M.jpg","P.jpg","0","1","0","",""
"","feedback","","html-keyboard-response","82","228171","0.0-1.0-105.0-0.0","0","0","41362","","null","","","null","11","","","","","","","","","","","","","","","",""
"","time_out","","html-keyboard-response","83","230173","0.0-1.0-107.0-0.0","0","0","41362","","null","","","null","11","","","","","","","","","","","","","","","",""
"","ITI","","html-keyboard-response","84","231176","0.0-1.0-108.0","0","0","41362","","null","","","null","11","","","","","","","","","","","","","","","NaN",""
"","S1","","html-keyboard-response","85","231429","0.0-1.0-110.0","0","0","41362","","null","","","null","12","","","","","","","","","","","","","","","",""
"","ISI","","html-keyboard-response","86","233446","0.0-1.0-111.0","0","0","41362","","null","","","null","12","NaN","","","","","","","","","","","","","","",""
"","S2","","html-keyboard-response","87","233699","0.0-1.0-112.0","0","0","41362","","null","","","null","12","","NaN","","","","","","","","","","","","","",""
"","response","","html-keyboard-response","88","234285","0.0-1.0-113.0","0","0","41362","","584","","","75","12","","","1","12","training","adjacent","CB","3","2","R.jpg","L.jpg","0","0","1","",""
"","feedback","","html-keyboard-response","89","235287","0.0-1.0-114.0-0.0","0","0","41362","","null","","","null","12","","","","","","","","","","","","","","","",""
"","ITI","","html-keyboard-response","90","236290","0.0-1.0-117.0","0","0","41362","","null","","","null","12","","","","","","","","","","","","","","","NaN",""
"","S1","","html-keyboard-response","91","236542","0.0-1.0-119.0","0","0","41362","","null","","","null","13","","","","","","","","","","","","","","","",""
"","ISI","","html-keyboard-response","92","238545","0.0-1.0-120.0","0","0","41362","","null","","","null","13","NaN","","","","","","","","","","","","","","",""
"","S2","","html-keyboard-response","93","238798","0.0-1.0-121.0","0","0","41362","","null","","","null","13","","NaN","","","","","","","","","","","","","",""
"","response","","html-keyboard-response","94","239235","0.0-1.0-122.0","0","0","41362","","436","","","75","13","","","1","13","training","adjacent","DE","4","5","M.jpg","P.jpg","0","1","0","",""
"","feedback","","html-keyboard-response","95","240238","0.0-1.0-123.0-0.0","0","0","41362","","null","","","null","13","","","","","","","","","","","","","","","",""
"","time_out","","html-keyboard-response","96","242240","0.0-1.0-125.0-0.0","0","0","41362","","null","","","null","13","","","","","","","","","","","","","","","",""
"","ITI","","html-keyboard-response","97","243242","0.0-1.0-126.0","0","0","41362","","null","","","null","13","","","","","","","","","","","","","","","NaN",""
"","S1","","html-keyboard-response","98","243495","0.0-1.0-128.0","0","0","41362","","null","","","null","14","","","","","","","","","","","","","","","",""
"","ISI","","html-keyboard-response","99","245497","0.0-1.0-129.0","0","0","41362","","null","","","null","14","NaN","","","","","","","","","","","","","","",""
"","S2","","html-keyboard-response","100","245750","0.0-1.0-130.0","0","0","41362","","null","","","null","14","","NaN","","","","","","","","","","","","","",""
"","response","","html-keyboard-response","101","246392","0.0-1.0-131.0","0","0","41362","","640","","","68","14","","","1","14","training","adjacent","DC","4","3","M.jpg","R.jpg","1","0","0","",""
"","feedback","","html-keyboard-response","102","247394","0.0-1.0-132.0-0.0","0","0","41362","","null","","","null","14","","","","","","","","","","","","","","","",""
"","time_out","","html-keyboard-response","103","249398","0.0-1.0-134.0-0.0","0","0","41362","","null","","","null","14","","","","","","","","","","","","","","","",""
"","ITI","","html-keyboard-response","104","250400","0.0-1.0-135.0","0","0","41362","","null","","","null","14","","","","","","","","","","","","","","","NaN",""
"","S1","","html-keyboard-response","105","250653","0.0-1.0-137.0","0","0","41362","","null","","","null","15","","","","","","","","","","","","","","","",""
"","ISI","","html-keyboard-response","106","252656","0.0-1.0-138.0","0","0","41362","","null","","","null","15","NaN","","","","","","","","","","","","","","",""
"","S2","","html-keyboard-response","107","252909","0.0-1.0-139.0","0","0","41362","","null","","","null","15","","NaN","","","","","","","","","","","","","",""
"","response","","html-keyboard-response","108","253365","0.0-1.0-140.0","0","0","41362","","455","","","68","15","","","1","15","training","adjacent","EF","5","6","P.jpg","Q.jpg","1","1","1","",""
"","feedback","","html-keyboard-response","109","254368","0.0-1.0-141.0-0.0","0","0","41362","","null","","","null","15","","","","","","","","","","","","","","","",""
"","ITI","","html-keyboard-response","110","255370","0.0-1.0-144.0","0","0","41362","","null","","","null","15","","","","","","","","","","","","","","","NaN",""
"","S1","","html-keyboard-response","111","255623","0.0-1.0-146.0","0","0","41362","","null","","","null","16","","","","","","","","","","","","","","","",""
"","ISI","","html-keyboard-response","112","257626","0.0-1.0-147.0","0","0","41362","","null","","","null","16","NaN","","","","","","","","","","","","","","",""
"","S2","","html-keyboard-response","113","257879","0.0-1.0-148.0","0","0","41362","","null","","","null","16","","NaN","","","","","","","","","","","","","",""
"","response","","html-keyboard-response","114","258129","0.0-1.0-149.0","0","0","41362","","249","","","68","16","","","1","16","training","adjacent","EF","5","6","P.jpg","Q.jpg","1","1","1","",""
"","feedback","","html-keyboard-response","115","259132","0.0-1.0-150.0-0.0","0","0","41362","","null","","","null","16","","","","","","","","","","","","","","","",""
"","ITI","","html-keyboard-response","116","260134","0.0-1.0-153.0","0","0","41362","","null","","","null","16","","","","","","","","","","","","","","","NaN",""
"","S1","","html-keyboard-response","117","260387","0.0-1.0-155.0","0","0","41362","","null","","","null","17","","","","","","","","","","","","","","","",""
"","ISI","","html-keyboard-response","118","262390","0.0-1.0-156.0","0","0","41362","","null","","","null","17","NaN","","","","","","","","","","","","","","",""
"","S2","","html-keyboard-response","119","262642","0.0-1.0-157.0","0","0","41362","","null","","","null","17","","NaN","","","","","","","","","","","","","",""
"","response","","html-keyboard-response","120","263124","0.0-1.0-158.0","0","0","41362","","480","","","75","17","","","1","17","training","adjacent","AB","1","2","N.jpg","L.jpg","0","1","0","",""
"","feedback","","html-keyboard-response","121","264127","0.0-1.0-159.0-0.0","0","0","41362","","null","","","null","17","","","","","","","","","","","","","","","",""
"","time_out","","html-keyboard-response","122","266129","0.0-1.0-161.0-0.0","0","0","41362","","null","","","null","17","","","","","","","","","","","","","","","",""
"","ITI","","html-keyboard-response","123","267132","0.0-1.0-162.0","0","0","41362","","null","","","null","17","","","","","","","","","","","","","","","NaN",""
"","S1","","html-keyboard-response","124","267385","0.0-1.0-164.0","0","0","41362","","null","","","null","18","","","","","","","","","","","","","","","",""
"","ISI","","html-keyboard-response","125","269387","0.0-1.0-165.0","0","0","41362","","null","","","null","18","NaN","","","","","","","","","","","","","","",""
"","S2","","html-keyboard-response","126","269640","0.0-1.0-166.0","0","0","41362","","null","","","null","18","","NaN","","","","","","","","","","","","","",""
"","response","","html-keyboard-response","127","269957","0.0-1.0-167.0","0","0","41362","","315","","","75","18","","","1","18","training","adjacent","FE","6","5","Q.jpg","P.jpg","0","0","1","",""
"","feedback","","html-keyboard-response","128","270960","0.0-1.0-168.0-0.0","0","0","41362","","null","","","null","18","","","","","","","","","","","","","","","",""
"","ITI","","html-keyboard-response","129","271962","0.0-1.0-171.0","0","0","41362","","null","","","null","18","","","","","","","","","","","","","","","NaN",""
"","S1","","html-keyboard-response","130","272215","0.0-1.0-173.0","0","0","41362","","null","","","null","19","","","","","","","","","","","","","","","",""
"","ISI","","html-keyboard-response","131","274217","0.0-1.0-174.0","0","0","41362","","null","","","null","19","NaN","","","","","","","","","","","","","","",""
"","S2","","html-keyboard-response","132","274470","0.0-1.0-175.0","0","0","41362","","null","","","null","19","","NaN","","","","","","","","","","","","","",""
"","response","","html-keyboard-response","133","274932","0.0-1.0-176.0","0","0","41362","","461","","","75","19","","","1","19","training","adjacent","GF","7","6","O.jpg","Q.jpg","0","0","1","",""
"","feedback","","html-keyboard-response","134","275935","0.0-1.0-177.0-0.0","0","0","41362","","null","","","null","19","","","","","","","","","","","","","","","",""
"","ITI","","html-keyboard-response","135","276938","0.0-1.0-180.0","0","0","41362","","null","","","null","19","","","","","","","","","","","","","","","NaN",""
"","S1","","html-keyboard-response","136","277190","0.0-1.0-182.0","0","0","41362","","null","","","null","20","","","","","","","","","","","","","","","",""
"","ISI","","html-keyboard-response","137","279193","0.0-1.0-183.0","0","0","41362","","null","","","null","20","NaN","","","","","","","","","","","","","","",""
"","S2","","html-keyboard-response","138","279446","0.0-1.0-184.0","0","0","41362","","null","","","null","20","","NaN","","","","","","","","","","","","","",""
"","response","","html-keyboard-response","139","279847","0.0-1.0-185.0","0","0","41362","","399","","","75","20","","","1","20","training","adjacent","AB","1","2","N.jpg","L.jpg","0","1","0","",""
"","feedback","","html-keyboard-response","140","280850","0.0-1.0-186.0-0.0","0","0","41362","","null","","","null","20","","","","","","","","","","","","","","","",""
"","time_out","","html-keyboard-response","141","282853","0.0-1.0-188.0-0.0","0","0","41362","","null","","","null","20","","","","","","","","","","","","","","","",""
"","ITI","","html-keyboard-response","142","283855","0.0-1.0-189.0","0","0","41362","","null","","","null","20","","","","","","","","","","","","","","","NaN",""
"","S1","","html-keyboard-response","143","284107","0.0-1.0-191.0","0","0","41362","","null","","","null","21","","","","","","","","","","","","","","","",""
"","ISI","","html-keyboard-response","144","286110","0.0-1.0-192.0","0","0","41362","","null","","","null","21","NaN","","","","","","","","","","","","","","",""
"","S2","","html-keyboard-response","145","286362","0.0-1.0-193.0","0","0","41362","","null","","","null","21","","NaN","","","","","","","","","","","","","",""
"","response","","html-keyboard-response","146","286646","0.0-1.0-194.0","0","0","41362","","281","","","68","21","","","1","21","training","adjacent","ED","5","4","P.jpg","M.jpg","1","0","0","",""
"","feedback","","html-keyboard-response","147","287650","0.0-1.0-195.0-0.0","0","0","41362","","null","","","null","21","","","","","","","","","","","","","","","",""
"","time_out","","html-keyboard-response","148","289652","0.0-1.0-197.0-0.0","0","0","41362","","null","","","null","21","","","","","","","","","","","","","","","",""
"","ITI","","html-keyboard-response","149","290655","0.0-1.0-198.0","0","0","41362","","null","","","null","21","","","","","","","","","","","","","","","NaN",""
"","S1","","html-keyboard-response","150","290907","0.0-1.0-200.0","0","0","41362","","null","","","null","22","","","","","","","","","","","","","","","",""
"","ISI","","html-keyboard-response","151","292910","0.0-1.0-201.0","0","0","41362","","null","","","null","22","NaN","","","","","","","","","","","","","","",""
"","S2","","html-keyboard-response","152","293163","0.0-1.0-202.0","0","0","41362","","null","","","null","22","","NaN","","","","","","","","","","","","","",""
"","response","","html-keyboard-response","153","293707","0.0-1.0-203.0","0","0","41362","","543","","","75","22","","","1","22","training","adjacent","CD","3","4","R.jpg","M.jpg","0","1","0","",""
"","feedback","","html-keyboard-response","154","294710","0.0-1.0-204.0-0.0","0","0","41362","","null","","","null","22","","","","","","","","","","","","","","","",""
"","time_out","","html-keyboard-response","155","296712","0.0-1.0-206.0-0.0","0","0","41362","","null","","","null","22","","","","","","","","","","","","","","","",""
"","ITI","","html-keyboard-response","156","297714","0.0-1.0-207.0","0","0","41362","","null","","","null","22","","","","","","","","","","","","","","","NaN",""
"","S1","","html-keyboard-response","157","297967","0.0-1.0-209.0","0","0","41362","","null","","","null","23","","","","","","","","","","","","","","","",""
"","ISI","","html-keyboard-response","158","299970","0.0-1.0-210.0","0","0","41362","","null","","","null","23","NaN","","","","","","","","","","","","","","",""
"","S2","","html-keyboard-response","159","300222","0.0-1.0-211.0","0","0","41362","","null","","","null","23","","NaN","","","","","","","","","","","","","",""
"","response","","html-keyboard-response","160","300720","0.0-1.0-212.0","0","0","41362","","496","","","68","23","","","1","23","training","adjacent","FE","6","5","Q.jpg","P.jpg","1","0","0","",""
"","feedback","","html-keyboard-response","161","301723","0.0-1.0-213.0-0.0","0","0","41362","","null","","","null","23","","","","","","","","","","","","","","","",""
"","time_out","","html-keyboard-response","162","303726","0.0-1.0-215.0-0.0","0","0","41362","","null","","","null","23","","","","","","","","","","","","","","","",""
"","ITI","","html-keyboard-response","163","304728","0.0-1.0-216.0","0","0","41362","","null","","","null","23","","","","","","","","","","","","","","","NaN",""
"","S1","","html-keyboard-response","164","304981","0.0-1.0-218.0","0","0","41362","","null","","","null","24","","","","","","","","","","","","","","","",""
"","ISI","","html-keyboard-response","165","306983","0.0-1.0-219.0","0","0","41362","","null","","","null","24","NaN","","","","","","","","","","","","","","",""
"","S2","","html-keyboard-response","166","307235","0.0-1.0-220.0","0","0","41362","","null","","","null","24","","NaN","","","","","","","","","","","","","",""
"","response","","html-keyboard-response","167","307529","0.0-1.0-221.0","0","0","41362","","292","","","75","24","","","1","24","training","adjacent","CD","3","4","R.jpg","M.jpg","0","1","0","",""
"","feedback","","html-keyboard-response","168","308532","0.0-1.0-222.0-0.0","0","0","41362","","null","","","null","24","","","","","","","","","","","","","","","",""
"","time_out","","html-keyboard-response","169","310534","0.0-1.0-224.0-0.0","0","0","41362","","null","","","null","24","","","","","","","","","","","","","","","",""
"","ITI","","html-keyboard-response","170","311537","0.0-1.0-225.0","0","0","41362","","null","","","null","24","","","","","","","","","","","","","","","NaN",""
"","S1","","html-keyboard-response","171","311789","0.0-1.0-227.0","0","0","41362","","null","","","null","25","","","","","","","","","","","","","","","",""
"","ISI","","html-keyboard-response","172","313791","0.0-1.0-228.0","0","0","41362","","null","","","null","25","NaN","","","","","","","","","","","","","","",""
"","S2","","html-keyboard-response","173","314044","0.0-1.0-229.0","0","0","41362","","null","","","null","25","","NaN","","","","","","","","","","","","","",""
"","response","","html-keyboard-response","174","314400","0.0-1.0-230.0","0","0","41362","","354","","","68","25","","","1","25","training","adjacent","FG","6","7","Q.jpg","O.jpg","1","1","1","",""
"","feedback","","html-keyboard-response","175","315403","0.0-1.0-231.0-0.0","0","0","41362","","null","","","null","25","","","","","","","","","","","","","","","",""
"","ITI","","html-keyboard-response","176","316405","0.0-1.0-234.0","0","0","41362","","null","","","null","25","","","","","","","","","","","","","","","NaN",""
"","S1","","html-keyboard-response","177","316658","0.0-1.0-236.0","0","0","41362","","null","","","null","26","","","","","","","","","","","","","","","",""
"","ISI","","html-keyboard-response","178","318661","0.0-1.0-237.0","0","0","41362","","null","","","null","26","NaN","","","","","","","","","","","","","","",""
"","S2","","html-keyboard-response","179","318913","0.0-1.0-238.0","0","0","41362","","null","","","null","26","","NaN","","","","","","","","","","","","","",""
"","response","","html-keyboard-response","180","319170","0.0-1.0-239.0","0","0","41362","","255","","","68","26","","","1","26","training","adjacent","EF","5","6","P.jpg","Q.jpg","1","1","1","",""
"","feedback","","html-keyboard-response","181","320172","0.0-1.0-240.0-0.0","0","0","41362","","null","","","null","26","","","","","","","","","","","","","","","",""
"","ITI","","html-keyboard-response","182","321177","0.0-1.0-243.0","0","0","41362","","null","","","null","26","","","","","","","","","","","","","","","NaN",""
"","S1","","html-keyboard-response","183","321430","0.0-1.0-245.0","0","0","41362","","null","","","null","27","","","","","","","","","","","","","","","",""
"","ISI","","html-keyboard-response","184","323433","0.0-1.0-246.0","0","0","41362","","null","","","null","27","NaN","","","","","","","","","","","","","","",""
"","S2","","html-keyboard-response","185","323686","0.0-1.0-247.0","0","0","41362","","null","","","null","27","","NaN","","","","","","","","","","","","","",""
"","response","","html-keyboard-response","186","324245","0.0-1.0-248.0","0","0","41362","","558","","","75","27","","","1","27","training","adjacent","DC","4","3","M.jpg","R.jpg","0","0","1","",""
"","feedback","","html-keyboard-response","187","325247","0.0-1.0-249.0-0.0","0","0","41362","","null","","","null","27","","","","","","","","","","","","","","","",""
"","ITI","","html-keyboard-response","188","326251","0.0-1.0-252.0","0","0","41362","","null","","","null","27","","","","","","","","","","","","","","","NaN",""
"","S1","","html-keyboard-response","189","326504","0.0-1.0-254.0","0","0","41362","","null","","","null","28","","","","","","","","","","","","","","","",""
"","ISI","","html-keyboard-response","190","328506","0.0-1.0-255.0","0","0","41362","","null","","","null","28","NaN","","","","","","","","","","","","","","",""
"","S2","","html-keyboard-response","191","328759","0.0-1.0-256.0","0","0","41362","","null","","","null","28","","NaN","","","","","","","","","","","","","",""
"","response","","html-keyboard-response","192","329334","0.0-1.0-257.0","0","0","41362","","574","","","75","28","","","1","28","training","adjacent","FE","6","5","Q.jpg","P.jpg","0","0","1","",""
"","feedback","","html-keyboard-response","193","330337","0.0-1.0-258.0-0.0","0","0","41362","","null","","","null","28","","","","","","","","","","","","","","","",""
"","ITI","","html-keyboard-response","194","331341","0.0-1.0-261.0","0","0","41362","","null","","","null","28","","","","","","","","","","","","","","","NaN",""
"","S1","","html-keyboard-response","195","331594","0.0-1.0-263.0","0","0","41362","","null","","","null","29","","","","","","","","","","","","","","","",""
"","ISI","","html-keyboard-response","196","333596","0.0-1.0-264.0","0","0","41362","","null","","","null","29","NaN","","","","","","","","","","","","","","",""
"","S2","","html-keyboard-response","197","333848","0.0-1.0-265.0","0","0","41362","","null","","","null","29","","NaN","","","","","","","","","","","","","",""
"","response","","html-keyboard-response","198","334089","0.0-1.0-266.0","0","0","41362","","239","","","75","29","","","1","29","training","adjacent","DC","4","3","M.jpg","R.jpg","0","0","1","",""
"","feedback","","html-keyboard-response","199","335092","0.0-1.0-267.0-0.0","0","0","41362","","null","","","null","29","","","","","","","","","","","","","","","",""
"","ITI","","html-keyboard-response","200","336094","0.0-1.0-270.0","0","0","41362","","null","","","null","29","","","","","","","","","","","","","","","NaN",""
"","S1","","html-keyboard-response","201","336347","0.0-1.0-272.0","0","0","41362","","null","","","null","30","","","","","","","","","","","","","","","",""
"","ISI","","html-keyboard-response","202","338350","0.0-1.0-273.0","0","0","41362","","null","","","null","30","NaN","","","","","","","","","","","","","","",""
"","S2","","html-keyboard-response","203","338603","0.0-1.0-274.0","0","0","41362","","null","","","null","30","","NaN","","","","","","","","","","","","","",""
"","response","","html-keyboard-response","204","338928","0.0-1.0-275.0","0","0","41362","","323","","","75","30","","","1","30","training","adjacent","GF","7","6","O.jpg","Q.jpg","0","0","1","",""
"","feedback","","html-keyboard-response","205","339931","0.0-1.0-276.0-0.0","0","0","41362","","null","","","null","30","","","","","","","","","","","","","","","",""
"","ITI","","html-keyboard-response","206","340934","0.0-1.0-279.0","0","0","41362","","null","","","null","30","","","","","","","","","","","","","","","NaN",""
"","S1","","html-keyboard-response","207","341187","0.0-1.0-281.0","0","0","41362","","null","","","null","31","","","","","","","","","","","","","","","",""
"","ISI","","html-keyboard-response","208","343190","0.0-1.0-282.0","0","0","41362","","null","","","null","31","NaN","","","","","","","","","","","","","","",""
"","S2","","html-keyboard-response","209","343443","0.0-1.0-283.0","0","0","41362","","null","","","null","31","","NaN","","","","","","","","","","","","","",""
"","response","","html-keyboard-response","210","343748","0.0-1.0-284.0","0","0","41362","","303","","","68","31","","","1","31","training","adjacent","CB","3","2","R.jpg","L.jpg","1","0","0","",""
"","feedback","","html-keyboard-response","211","344751","0.0-1.0-285.0-0.0","0","0","41362","","null","","","null","31","","","","","","","","","","","","","","","",""
"","time_out","","html-keyboard-response","212","346753","0.0-1.0-287.0-0.0","0","0","41362","","null","","","null","31","","","","","","","","","","","","","","","",""
"","ITI","","html-keyboard-response","213","347756","0.0-1.0-288.0","0","0","41362","","null","","","null","31","","","","","","","","","","","","","","","NaN",""
"","S1","","html-keyboard-response","214","348021","0.0-1.0-290.0","0","0","41362","","null","","","null","32","","","","","","","","","","","","","","","",""
"","ISI","","html-keyboard-response","215","350023","0.0-1.0-291.0","0","0","41362","","null","","","null","32","NaN","","","","","","","","","","","","","","",""
"","S2","","html-keyboard-response","216","350276","0.0-1.0-292.0","0","0","41362","","null","","","null","32","","NaN","","","","","","","","","","","","","",""
"","response","","html-keyboard-response","217","350547","0.0-1.0-293.0","0","0","41362","","270","","","75","32","","","1","32","training","adjacent","CD","3","4","R.jpg","M.jpg","0","1","0","",""
"","feedback","","html-keyboard-response","218","351551","0.0-1.0-294.0-0.0","0","0","41362","","null","","","null","32","","","","","","","","","","","","","","","",""
"","time_out","","html-keyboard-response","219","353553","0.0-1.0-296.0-0.0","0","0","41362","","null","","","null","32","","","","","","","","","","","","","","","",""
"","ITI","","html-keyboard-response","220","354555","0.0-1.0-297.0","0","0","41362","","null","","","null","32","","","","","","","","","","","","","","","NaN",""
"","S1","","html-keyboard-response","221","354808","0.0-1.0-299.0","0","0","41362","","null","","","null","33","","","","","","","","","","","","","","","",""
"","ISI","","html-keyboard-response","222","356810","0.0-1.0-300.0","0","0","41362","","null","","","null","33","NaN","","","","","","","","","","","","","","",""
"","S2","","html-keyboard-response","223","357063","0.0-1.0-301.0","0","0","41362","","null","","","null","33","","NaN","","","","","","","","","","","","","",""
"","response","","html-keyboard-response","224","357225","0.0-1.0-302.0","0","0","41362","","159","","","75","33","","","1","33","training","adjacent","CB","3","2","R.jpg","L.jpg","0","0","1","",""
"","feedback","","html-keyboard-response","225","358228","0.0-1.0-303.0-0.0","0","0","41362","","null","","","null","33","","","","","","","","","","","","","","","",""
"","ITI","","html-keyboard-response","226","359231","0.0-1.0-306.0","0","0","41362","","null","","","null","33","","","","","","","","","","","","","","","NaN",""
"","S1","","html-keyboard-response","227","359484","0.0-1.0-308.0","0","0","41362","","null","","","null","34","","","","","","","","","","","","","","","",""
"","ISI","","html-keyboard-response","228","361487","0.0-1.0-309.0","0","0","41362","","null","","","null","34","NaN","","","","","","","","","","","","","","",""
"","S2","","html-keyboard-response","229","361752","0.0-1.0-310.0","0","0","41362","","null","","","null","34","","NaN","","","","","","","","","","","","","",""
"","response","","html-keyboard-response","230","361875","0.0-1.0-311.0","0","0","41362","","121","","","75","34","","","1","34","training","adjacent","DE","4","5","M.jpg","P.jpg","0","1","0","",""
"","feedback","","html-keyboard-response","231","362878","0.0-1.0-312.0-0.0","0","0","41362","","null","","","null","34","","","","","","","","","","","","","","","",""
"","time_out","","html-keyboard-response","232","364880","0.0-1.0-314.0-0.0","0","0","41362","","null","","","null","34","","","","","","","","","","","","","","","",""
"","ITI","","html-keyboard-response","233","365883","0.0-1.0-315.0","0","0","41362","","null","","","null","34","","","","","","","","","","","","","","","NaN",""
"","S1","","html-keyboard-response","234","366136","0.0-1.0-317.0","0","0","41362","","null","","","null","35","","","","","","","","","","","","","","","",""
"","ISI","","html-keyboard-response","235","368139","0.0-1.0-318.0","0","0","41362","","null","","","null","35","NaN","","","","","","","","","","","","","","",""
"","S2","","html-keyboard-response","236","368392","0.0-1.0-319.0","0","0","41362","","null","","","null","35","","NaN","","","","","","","","","","","","","",""
"","response","","html-keyboard-response","237","368882","0.0-1.0-320.0","0","0","41362","","488","","","68","35","","","1","35","training","adjacent","FE","6","5","Q.jpg","P.jpg","1","0","0","",""
"","feedback","","html-keyboard-response","238","369885","0.0-1.0-321.0-0.0","0","0","41362","","null","","","null","35","","","","","","","","","","","","","","","",""
"","time_out","","html-keyboard-response","239","371887","0.0-1.0-323.0-0.0","0","0","41362","","null","","","null","35","","","","","","","","","","","","","","","",""
"","ITI","","html-keyboard-response","240","372891","0.0-1.0-324.0","0","0","41362","","null","","","null","35","","","","","","","","","","","","","","","NaN",""
"","S1","","html-keyboard-response","241","373143","0.0-1.0-326.0","0","0","41362","","null","","","null","36","","","","","","","","","","","","","","","",""
"","ISI","","html-keyboard-response","242","375145","0.0-1.0-327.0","0","0","41362","","null","","","null","36","NaN","","","","","","","","","","","","","","",""
"","S2","","html-keyboard-response","243","375397","0.0-1.0-328.0","0","0","41362","","null","","","null","36","","NaN","","","","","","","","","","","","","",""
"","response","","html-keyboard-response","244","376040","0.0-1.0-329.0","0","0","41362","","640","","","75","36","","","1","36","training","adjacent","DE","4","5","M.jpg","P.jpg","0","1","0","",""
"","feedback","","html-keyboard-response","245","377042","0.0-1.0-330.0-0.0","0","0","41362","","null","","","null","36","","","","","","","","","","","","","","","",""
"","time_out","","html-keyboard-response","246","379044","0.0-1.0-332.0-0.0","0","0","41362","","null","","","null","36","","","","","","","","","","","","","","","",""
"","ITI","","html-keyboard-response","247","380047","0.0-1.0-333.0","0","0","41362","","null","","","null","36","","","","","","","","","","","","","","","NaN",""
"","S1","","html-keyboard-response","248","380301","0.0-1.0-335.0","0","0","41362","","null","","","null","37","","","","","","","","","","","","","","","",""
"","ISI","","html-keyboard-response","249","382302","0.0-1.0-336.0","0","0","41362","","null","","","null","37","NaN","","","","","","","","","","","","","","",""
"","S2","","html-keyboard-response","250","382555","0.0-1.0-337.0","0","0","41362","","null","","","null","37","","NaN","","","","","","","","","","","","","",""
"","response","","html-keyboard-response","251","383127","0.0-1.0-338.0","0","0","41362","","571","","","68","37","","","1","37","training","adjacent","BA","2","1","L.jpg","N.jpg","1","0","0","",""
"","feedback","","html-keyboard-response","252","384130","0.0-1.0-339.0-0.0","0","0","41362","","null","","","null","37","","","","","","","","","","","","","","","",""
"","time_out","","html-keyboard-response","253","386133","0.0-1.0-341.0-0.0","0","0","41362","","null","","","null","37","","","","","","","","","","","","","","","",""
"","ITI","","html-keyboard-response","254","387136","0.0-1.0-342.0","0","0","41362","","null","","","null","37","","","","","","","","","","","","","","","NaN",""
"","S1","","html-keyboard-response","255","387388","0.0-1.0-344.0","0","0","41362","","null","","","null","38","","","","","","","","","","","","","","","",""
"","ISI","","html-keyboard-response","256","389390","0.0-1.0-345.0","0","0","41362","","null","","","null","38","NaN","","","","","","","","","","","","","","",""
"","S2","","html-keyboard-response","257","389643","0.0-1.0-346.0","0","0","41362","","null","","","null","38","","NaN","","","","","","","","","","","","","",""
"","response","","html-keyboard-response","258","390204","0.0-1.0-347.0","0","0","41362","","559","","","75","38","","","1","38","training","adjacent","ED","5","4","P.jpg","M.jpg","0","0","1","",""
"","feedback","","html-keyboard-response","259","391207","0.0-1.0-348.0-0.0","0","0","41362","","null","","","null","38","","","","","","","","","","","","","","","",""
"","ITI","","html-keyboard-response","260","392211","0.0-1.0-351.0","0","0","41362","","null","","","null","38","","","","","","","","","","","","","","","NaN",""
"","S1","","html-keyboard-response","261","392463","0.0-1.0-353.0","0","0","41362","","null","","","null","39","","","","","","","","","","","","","","","",""
"","ISI","","html-keyboard-response","262","394466","0.0-1.0-354.0","0","0","41362","","null","","","null","39","NaN","","","","","","","","","","","","","","",""
"","S2","","html-keyboard-response","263","394719","0.0-1.0-355.0","0","0","41362","","null","","","null","39","","NaN","","","","","","","","","","","","","",""
"","response","","html-keyboard-response","264","395169","0.0-1.0-356.0","0","0","41362","","449","","","75","39","","","1","39","training","adjacent","FG","6","7","Q.jpg","O.jpg","0","1","0","",""
"","feedback","","html-keyboard-response","265","396173","0.0-1.0-357.0-0.0","0","0","41362","","null","","","null","39","","","","","","","","","","","","","","","",""
"","time_out","","html-keyboard-response","266","398175","0.0-1.0-359.0-0.0","0","0","41362","","null","","","null","39","","","","","","","","","","","","","","","",""
"","ITI","","html-keyboard-response","267","399178","0.0-1.0-360.0","0","0","41362","","null","","","null","39","","","","","","","","","","","","","","","NaN",""
"","S1","","html-keyboard-response","268","399436","0.0-1.0-362.0","0","0","41362","","null","","","null","40","","","","","","","","","","","","","","","",""
"","ISI","","html-keyboard-response","269","401438","0.0-1.0-363.0","0","0","41362","","null","","","null","40","NaN","","","","","","","","","","","","","","",""
"","S2","","html-keyboard-response","270","401691","0.0-1.0-364.0","0","0","41362","","null","","","null","40","","NaN","","","","","","","","","","","","","",""
"","response","","html-keyboard-response","271","402296","0.0-1.0-365.0","0","0","41362","","603","","","68","40","","","1","40","training","adjacent","BC","2","3","L.jpg","R.jpg","1","1","1","",""
"","feedback","","html-keyboard-response","272","403299","0.0-1.0-366.0-0.0","0","0","41362","","null","","","null","40","","","","","","","","","","","","","","","",""
"","ITI","","html-keyboard-response","273","404303","0.0-1.0-369.0","0","0","41362","","null","","","null","40","","","","","","","","","","","","","","","NaN",""
"","S1","","html-keyboard-response","274","404556","0.0-1.0-371.0","0","0","41362","","null","","","null","41","","","","","","","","","","","","","","","",""
"","ISI","","html-keyboard-response","275","406559","0.0-1.0-372.0","0","0","41362","","null","","","null","41","NaN","","","","","","","","","","","","","","",""
"","S2","","html-keyboard-response","276","406812","0.0-1.0-373.0","0","0","41362","","null","","","null","41","","NaN","","","","","","","","","","","","","",""
"","response","","html-keyboard-response","277","407246","0.0-1.0-374.0","0","0","41362","","433","","","75","41","","","1","41","training","adjacent","EF","5","6","P.jpg","Q.jpg","0","1","0","",""
"","feedback","","html-keyboard-response","278","408250","0.0-1.0-375.0-0.0","0","0","41362","","null","","","null","41","","","","","","","","","","","","","","","",""
"","time_out","","html-keyboard-response","279","410253","0.0-1.0-377.0-0.0","0","0","41362","","null","","","null","41","","","","","","","","","","","","","","","",""
"","ITI","","html-keyboard-response","280","411255","0.0-1.0-378.0","0","0","41362","","null","","","null","41","","","","","","","","","","","","","","","NaN",""
"","S1","","html-keyboard-response","281","411508","0.0-1.0-380.0","0","0","41362","","null","","","null","42","","","","","","","","","","","","","","","",""
"","ISI","","html-keyboard-response","282","413511","0.0-1.0-381.0","0","0","41362","","null","","","null","42","NaN","","","","","","","","","","","","","","",""
"","S2","","html-keyboard-response","283","413764","0.0-1.0-382.0","0","0","41362","","null","","","null","42","","NaN","","","","","","","","","","","","","",""
"","response","","html-keyboard-response","284","414138","0.0-1.0-383.0","0","0","41362","","373","","","68","42","","","1","42","training","adjacent","GF","7","6","O.jpg","Q.jpg","1","0","0","",""
"","feedback","","html-keyboard-response","285","415141","0.0-1.0-384.0-0.0","0","0","41362","","null","","","null","42","","","","","","","","","","","","","","","",""
"","time_out","","html-keyboard-response","286","417144","0.0-1.0-386.0-0.0","0","0","41362","","null","","","null","42","","","","","","","","","","","","","","","",""
"","ITI","","html-keyboard-response","287","418146","0.0-1.0-387.0","0","0","41362","","null","","","null","42","","","","","","","","","","","","","","","NaN",""
"","S1","","html-keyboard-response","288","418398","0.0-1.0-389.0","0","0","41362","","null","","","null","43","","","","","","","","","","","","","","","",""
"","ISI","","html-keyboard-response","289","420400","0.0-1.0-390.0","0","0","41362","","null","","","null","43","NaN","","","","","","","","","","","","","","",""
"","S2","","html-keyboard-response","290","420654","0.0-1.0-391.0","0","0","41362","","null","","","null","43","","NaN","","","","","","","","","","","","","",""
"","response","","html-keyboard-response","291","420941","0.0-1.0-392.0","0","0","41362","","286","","","75","43","","","1","43","training","adjacent","ED","5","4","P.jpg","M.jpg","0","0","1","",""
"","feedback","","html-keyboard-response","292","421944","0.0-1.0-393.0-0.0","0","0","41362","","null","","","null","43","","","","","","","","","","","","","","","",""
"","ITI","","html-keyboard-response","293","422946","0.0-1.0-396.0","0","0","41362","","null","","","null","43","","","","","","","","","","","","","","","NaN",""
"","S1","","html-keyboard-response","294","423199","0.0-1.0-398.0","0","0","41362","","null","","","null","44","","","","","","","","","","","","","","","",""
"","ISI","","html-keyboard-response","295","425201","0.0-1.0-399.0","0","0","41362","","null","","","null","44","NaN","","","","","","","","","","","","","","",""
"","S2","","html-keyboard-response","296","425454","0.0-1.0-400.0","0","0","41362","","null","","","null","44","","NaN","","","","","","","","","","","","","",""
"","response","","html-keyboard-response","297","425966","0.0-1.0-401.0","0","0","41362","","510","","","75","44","","","1","44","training","adjacent","BC","2","3","L.jpg","R.jpg","0","1","0","",""
"","feedback","","html-keyboard-response","298","426970","0.0-1.0-402.0-0.0","0","0","41362","","null","","","null","44","","","","","","","","","","","","","","","",""
"","time_out","","html-keyboard-response","299","428973","0.0-1.0-404.0-0.0","0","0","41362","","null","","","null","44","","","","","","","","","","","","","","","",""
"","ITI","","html-keyboard-response","300","429976","0.0-1.0-405.0","0","0","41362","","null","","","null","44","","","","","","","","","","","","","","","NaN",""
"","S1","","html-keyboard-response","301","430228","0.0-1.0-407.0","0","0","41362","","null","","","null","45","","","","","","","","","","","","","","","",""
"","ISI","","html-keyboard-response","302","432231","0.0-1.0-408.0","0","0","41362","","null","","","null","45","NaN","","","","","","","","","","","","","","",""
"","S2","","html-keyboard-response","303","432484","0.0-1.0-409.0","0","0","41362","","null","","","null","45","","NaN","","","","","","","","","","","","","",""
"","response","","html-keyboard-response","304","432824","0.0-1.0-410.0","0","0","41362","","339","","","68","45","","","1","45","training","adjacent","BA","2","1","L.jpg","N.jpg","1","0","0","",""
"","feedback","","html-keyboard-response","305","433828","0.0-1.0-411.0-0.0","0","0","41362","","null","","","null","45","","","","","","","","","","","","","","","",""
"","time_out","","html-keyboard-response","306","435830","0.0-1.0-413.0-0.0","0","0","41362","","null","","","null","45","","","","","","","","","","","","","","","",""
"","ITI","","html-keyboard-response","307","436833","0.0-1.0-414.0","0","0","41362","","null","","","null","45","","","","","","","","","","","","","","","NaN",""
"","S1","","html-keyboard-response","308","437087","0.0-1.0-416.0","0","0","41362","","null","","","null","46","","","","","","","","","","","","","","","",""
"","ISI","","html-keyboard-response","309","439090","0.0-1.0-417.0","0","0","41362","","null","","","null","46","NaN","","","","","","","","","","","","","","",""
"","S2","","html-keyboard-response","310","439343","0.0-1.0-418.0","0","0","41362","","null","","","null","46","","NaN","","","","","","","","","","","","","",""
"","response","","html-keyboard-response","311","439612","0.0-1.0-419.0","0","0","41362","","266","","","75","46","","","1","46","training","adjacent","ED","5","4","P.jpg","M.jpg","0","0","1","",""
"","feedback","","html-keyboard-response","312","440614","0.0-1.0-420.0-0.0","0","0","41362","","null","","","null","46","","","","","","","","","","","","","","","",""
"","ITI","","html-keyboard-response","313","441618","0.0-1.0-423.0","0","0","41362","","null","","","null","46","","","","","","","","","","","","","","","NaN",""
"","S1","","html-keyboard-response","314","441870","0.0-1.0-425.0","0","0","41362","","null","","","null","47","","","","","","","","","","","","","","","",""
"","ISI","","html-keyboard-response","315","443872","0.0-1.0-426.0","0","0","41362","","null","","","null","47","NaN","","","","","","","","","","","","","","",""
"","S2","","html-keyboard-response","316","444125","0.0-1.0-427.0","0","0","41362","","null","","","null","47","","NaN","","","","","","","","","","","","","",""
"","response","","html-keyboard-response","317","444387","0.0-1.0-428.0","0","0","41362","","260","","","75","47","","","1","47","training","adjacent","CD","3","4","R.jpg","M.jpg","0","1","0","",""
"","feedback","","html-keyboard-response","318","445391","0.0-1.0-429.0-0.0","0","0","41362","","null","","","null","47","","","","","","","","","","","","","","","",""
"","time_out","","html-keyboard-response","319","447393","0.0-1.0-431.0-0.0","0","0","41362","","null","","","null","47","","","","","","","","","","","","","","","",""
"","ITI","","html-keyboard-response","320","448396","0.0-1.0-432.0","0","0","41362","","null","","","null","47","","","","","","","","","","","","","","","NaN",""
"","block_over","","html-keyboard-response","321","568611","0.0-1.0-433.0-0.0","0","0","41362","","120212","","","32","47","","","","","","","","","","","","","","","",""
"","S1","","html-keyboard-response","322","568864","0.0-1.0-434.0","0","0","41362","","null","","","null","48","","","","","","","","","","","","","","","",""
"","ISI","","html-keyboard-response","323","570867","0.0-1.0-435.0","0","0","41362","","null","","","null","48","NaN","","","","","","","","","","","","","","",""
"","S2","","html-keyboard-response","324","571120","0.0-1.0-436.0","0","0","41362","","null","","","null","48","","NaN","","","","","","","","","","","","","",""
"","response","","html-keyboard-response","325","571613","0.0-1.0-437.0","0","0","41362","","491","","","75","48","","","2","48","training","adjacent","ED","5","4","P.jpg","M.jpg","0","0","1","",""
"","feedback","","html-keyboard-response","326","572616","0.0-1.0-438.0-0.0","0","0","41362","","null","","","null","48","","","","","","","","","","","","","","","",""
"","ITI","","html-keyboard-response","327","573620","0.0-1.0-441.0","0","0","41362","","null","","","null","48","","","","","","","","","","","","","","","NaN",""
"","S1","","html-keyboard-response","328","573873","0.0-1.0-443.0","0","0","41362","","null","","","null","49","","","","","","","","","","","","","","","",""
"","ISI","","html-keyboard-response","329","575875","0.0-1.0-444.0","0","0","41362","","null","","","null","49","NaN","","","","","","","","","","","","","","",""
"","S2","","html-keyboard-response","330","576128","0.0-1.0-445.0","0","0","41362","","null","","","null","49","","NaN","","","","","","","","","","","","","",""
"","response","","html-keyboard-response","331","576418","0.0-1.0-446.0","0","0","41362","","287","","","68","49","","","2","49","training","adjacent","FG","6","7","Q.jpg","O.jpg","1","1","1","",""
"","feedback","","html-keyboard-response","332","577421","0.0-1.0-447.0-0.0","0","0","41362","","null","","","null","49","","","","","","","","","","","","","","","",""
"","ITI","","html-keyboard-response","333","578424","0.0-1.0-450.0","0","0","41362","","null","","","null","49","","","","","","","","","","","","","","","NaN",""
"","S1","","html-keyboard-response","334","578677","0.0-1.0-452.0","0","0","41362","","null","","","null","50","","","","","","","","","","","","","","","",""
"","ISI","","html-keyboard-response","335","580679","0.0-1.0-453.0","0","0","41362","","null","","","null","50","NaN","","","","","","","","","","","","","","",""
"","S2","","html-keyboard-response","336","580932","0.0-1.0-454.0","0","0","41362","","null","","","null","50","","NaN","","","","","","","","","","","","","",""
"","response","","html-keyboard-response","337","581902","0.0-1.0-455.0","0","0","41362","","969","","","68","50","","","2","50","training","adjacent","FE","6","5","Q.jpg","P.jpg","1","0","0","",""
"","feedback","","html-keyboard-response","338","582906","0.0-1.0-456.0-0.0","0","0","41362","","null","","","null","50","","","","","","","","","","","","","","","",""
"","time_out","","html-keyboard-response","339","584909","0.0-1.0-458.0-0.0","0","0","41362","","null","","","null","50","","","","","","","","","","","","","","","",""
"","ITI","","html-keyboard-response","340","585912","0.0-1.0-459.0","0","0","41362","","null","","","null","50","","","","","","","","","","","","","","","NaN",""
"","S1","","html-keyboard-response","341","586165","0.0-1.0-461.0","0","0","41362","","null","","","null","51","","","","","","","","","","","","","","","",""
"","ISI","","html-keyboard-response","342","588168","0.0-1.0-462.0","0","0","41362","","null","","","null","51","NaN","","","","","","","","","","","","","","",""
"","S2","","html-keyboard-response","343","588421","0.0-1.0-463.0","0","0","41362","","null","","","null","51","","NaN","","","","","","","","","","","","","",""
"","response","","html-keyboard-response","344","588915","0.0-1.0-464.0","0","0","41362","","492","","","75","51","","","2","51","training","adjacent","CD","3","4","R.jpg","M.jpg","0","1","0","",""
"","feedback","","html-keyboard-response","345","589918","0.0-1.0-465.0-0.0","0","0","41362","","null","","","null","51","","","","","","","","","","","","","","","",""
"","time_out","","html-keyboard-response","346","591921","0.0-1.0-467.0-0.0","0","0","41362","","null","","","null","51","","","","","","","","","","","","","","","",""
"","ITI","","html-keyboard-response","347","592926","0.0-1.0-468.0","0","0","41362","","null","","","null","51","","","","","","","","","","","","","","","NaN",""
"","S1","","html-keyboard-response","348","593179","0.0-1.0-470.0","0","0","41362","","null","","","null","52","","","","","","","","","","","","","","","",""
"","ISI","","html-keyboard-response","349","595182","0.0-1.0-471.0","0","0","41362","","null","","","null","52","NaN","","","","","","","","","","","","","","",""
"","S2","","html-keyboard-response","350","595435","0.0-1.0-472.0","0","0","41362","","null","","","null","52","","NaN","","","","","","","","","","","","","",""
"","response","","html-keyboard-response","351","595753","0.0-1.0-473.0","0","0","41362","","317","","","68","52","","","2","52","training","adjacent","BC","2","3","L.jpg","R.jpg","1","1","1","",""
"","feedback","","html-keyboard-response","352","596756","0.0-1.0-474.0-0.0","0","0","41362","","null","","","null","52","","","","","","","","","","","","","","","",""
"","ITI","","html-keyboard-response","353","597760","0.0-1.0-477.0","0","0","41362","","null","","","null","52","","","","","","","","","","","","","","","NaN",""
"","S1","","html-keyboard-response","354","598013","0.0-1.0-479.0","0","0","41362","","null","","","null","53","","","","","","","","","","","","","","","",""
"","ISI","","html-keyboard-response","355","600016","0.0-1.0-480.0","0","0","41362","","null","","","null","53","NaN","","","","","","","","","","","","","","",""
"","S2","","html-keyboard-response","356","600269","0.0-1.0-481.0","0","0","41362","","null","","","null","53","","NaN","","","","","","","","","","","","","",""
"","response","","html-keyboard-response","357","600662","0.0-1.0-482.0","0","0","41362","","392","","","75","53","","","2","53","training","adjacent","GF","7","6","O.jpg","Q.jpg","0","0","1","",""
"","feedback","","html-keyboard-response","358","601665","0.0-1.0-483.0-0.0","0","0","41362","","null","","","null","53","","","","","","","","","","","","","","","",""
"","ITI","","html-keyboard-response","359","602668","0.0-1.0-486.0","0","0","41362","","null","","","null","53","","","","","","","","","","","","","","","NaN",""
"","S1","","html-keyboard-response","360","602921","0.0-1.0-488.0","0","0","41362","","null","","","null","54","","","","","","","","","","","","","","","",""
"","ISI","","html-keyboard-response","361","604923","0.0-1.0-489.0","0","0","41362","","null","","","null","54","NaN","","","","","","","","","","","","","","",""
"","S2","","html-keyboard-response","362","605175","0.0-1.0-490.0","0","0","41362","","null","","","null","54","","NaN","","","","","","","","","","","","","",""
"","response","","html-keyboard-response","363","605642","0.0-1.0-491.0","0","0","41362","","465","","","68","54","","","2","54","training","adjacent","AB","1","2","N.jpg","L.jpg","1","1","1","",""
"","feedback","","html-keyboard-response","364","606645","0.0-1.0-492.0-0.0","0","0","41362","","null","","","null","54","","","","","","","","","","","","","","","",""
"","ITI","","html-keyboard-response","365","607648","0.0-1.0-495.0","0","0","41362","","null","","","null","54","","","","","","","","","","","","","","","NaN",""
"","S1","","html-keyboard-response","366","607900","0.0-1.0-497.0","0","0","41362","","null","","","null","55","","","","","","","","","","","","","","","",""
"","ISI","","html-keyboard-response","367","609903","0.0-1.0-498.0","0","0","41362","","null","","","null","55","NaN","","","","","","","","","","","","","","",""
"","S2","","html-keyboard-response","368","610156","0.0-1.0-499.0","0","0","41362","","null","","","null","55","","NaN","","","","","","","","","","","","","",""
"","response","","html-keyboard-response","369","611097","0.0-1.0-500.0","0","0","41362","","939","","","75","55","","","2","55","training","adjacent","AB","1","2","N.jpg","L.jpg","0","1","0","",""
"","feedback","","html-keyboard-response","370","612100","0.0-1.0-501.0-0.0","0","0","41362","","null","","","null","55","","","","","","","","","","","","","","","",""
"","time_out","","html-keyboard-response","371","614102","0.0-1.0-503.0-0.0","0","0","41362","","null","","","null","55","","","","","","","","","","","","","","","",""
"","ITI","","html-keyboard-response","372","615105","0.0-1.0-504.0","0","0","41362","","null","","","null","55","","","","","","","","","","","","","","","NaN",""
"","S1","","html-keyboard-response","373","615358","0.0-1.0-506.0","0","0","41362","","null","","","null","56","","","","","","","","","","","","","","","",""
"","ISI","","html-keyboard-response","374","617360","0.0-1.0-507.0","0","0","41362","","null","","","null","56","NaN","","","","","","","","","","","","","","",""
"","S2","","html-keyboard-response","375","617613","0.0-1.0-508.0","0","0","41362","","null","","","null","56","","NaN","","","","","","","","","","","","","",""
"","response","","html-keyboard-response","376","617984","0.0-1.0-509.0","0","0","41362","","369","","","75","56","","","2","56","training","adjacent","FE","6","5","Q.jpg","P.jpg","0","0","1","",""
"","feedback","","html-keyboard-response","377","618987","0.0-1.0-510.0-0.0","0","0","41362","","null","","","null","56","","","","","","","","","","","","","","","",""
"","ITI","","html-keyboard-response","378","619990","0.0-1.0-513.0","0","0","41362","","null","","","null","56","","","","","","","","","","","","","","","NaN",""
"","S1","","html-keyboard-response","379","620242","0.0-1.0-515.0","0","0","41362","","null","","","null","57","","","","","","","","","","","","","","","",""
"","ISI","","html-keyboard-response","380","622245","0.0-1.0-516.0","0","0","41362","","null","","","null","57","NaN","","","","","","","","","","","","","","",""
"","S2","","html-keyboard-response","381","622498","0.0-1.0-517.0","0","0","41362","","null","","","null","57","","NaN","","","","","","","","","","","","","",""
"","response","","html-keyboard-response","382","622844","0.0-1.0-518.0","0","0","41362","","345","","","68","57","","","2","57","training","adjacent","ED","5","4","P.jpg","M.jpg","1","0","0","",""
"","feedback","","html-keyboard-response","383","623847","0.0-1.0-519.0-0.0","0","0","41362","","null","","","null","57","","","","","","","","","","","","","","","",""
"","time_out","","html-keyboard-response","384","625850","0.0-1.0-521.0-0.0","0","0","41362","","null","","","null","57","","","","","","","","","","","","","","","",""
"","ITI","","html-keyboard-response","385","626852","0.0-1.0-522.0","0","0","41362","","null","","","null","57","","","","","","","","","","","","","","","NaN",""
"","S1","","html-keyboard-response","386","627105","0.0-1.0-524.0","0","0","41362","","null","","","null","58","","","","","","","","","","","","","","","",""
"","ISI","","html-keyboard-response","387","629107","0.0-1.0-525.0","0","0","41362","","null","","","null","58","NaN","","","","","","","","","","","","","","",""
"","S2","","html-keyboard-response","388","629359","0.0-1.0-526.0","0","0","41362","","null","","","null","58","","NaN","","","","","","","","","","","","","",""
"","response","","html-keyboard-response","389","631362","0.0-1.0-527.0","0","0","41362","","null","","","null","58","","","2","58","training","adjacent","EF","5","6","P.jpg","Q.jpg","NaN","1","0","",""
"","too_slow_prompt","","html-keyboard-response","390","632364","0.0-1.0-529.0-0.0","1","0","41362","","null","","","null","","","","","","","","","","","","","","","","",""
"","time_out","","html-keyboard-response","391","634367","0.0-1.0-530.0-0.0","0","0","41362","","null","","","null","58","","","","","","","","","","","","","","","",""
"","ITI","","html-keyboard-response","392","635369","0.0-1.0-531.0","0","0","41362","","null","","","null","58","","","","","","","","","","","","","","","NaN",""
"","S1","","html-keyboard-response","393","635622","0.0-1.0-533.0","0","0","41362","","null","","","null","59","","","","","","","","","","","","","","","",""
"","ISI","","html-keyboard-response","394","637625","0.0-1.0-534.0","0","0","41362","","null","","","null","59","NaN","","","","","","","","","","","","","","",""
"","S2","","html-keyboard-response","395","637878","0.0-1.0-535.0","0","0","41362","","null","","","null","59","","NaN","","","","","","","","","","","","","",""
"","response","","html-keyboard-response","396","638142","0.0-1.0-536.0","0","0","41362","","263","","","75","59","","","2","59","training","adjacent","DC","4","3","M.jpg","R.jpg","0","0","1","",""
"","feedback","","html-keyboard-response","397","639145","0.0-1.0-537.0-0.0","0","0","41362","","null","","","null","59","","","","","","","","","","","","","","","",""
"","ITI","","html-keyboard-response","398","640148","0.0-1.0-540.0","0","0","41362","","null","","","null","59","","","","","","","","","","","","","","","NaN",""
"","S1","","html-keyboard-response","399","640401","0.0-1.0-542.0","0","0","41362","","null","","","null","60","","","","","","","","","","","","","","","",""
"","ISI","","html-keyboard-response","400","642403","0.0-1.0-543.0","0","0","41362","","null","","","null","60","NaN","","","","","","","","","","","","","","",""
"","S2","","html-keyboard-response","401","642656","0.0-1.0-544.0","0","0","41362","","null","","","null","60","","NaN","","","","","","","","","","","","","",""
"","response","","html-keyboard-response","402","642837","0.0-1.0-545.0","0","0","41362","","179","","","68","60","","","2","60","training","adjacent","EF","5","6","P.jpg","Q.jpg","1","1","1","",""
"","feedback","","html-keyboard-response","403","643840","0.0-1.0-546.0-0.0","0","0","41362","","null","","","null","60","","","","","","","","","","","","","","","",""
"","ITI","","html-keyboard-response","404","644842","0.0-1.0-549.0","0","0","41362","","null","","","null","60","","","","","","","","","","","","","","","NaN",""
"","S1","","html-keyboard-response","405","645095","0.0-1.0-551.0","0","0","41362","","null","","","null","61","","","","","","","","","","","","","","","",""
"","ISI","","html-keyboard-response","406","647098","0.0-1.0-552.0","0","0","41362","","null","","","null","61","NaN","","","","","","","","","","","","","","",""
"","S2","","html-keyboard-response","407","647351","0.0-1.0-553.0","0","0","41362","","null","","","null","61","","NaN","","","","","","","","","","","","","",""
"","response","","html-keyboard-response","408","647572","0.0-1.0-554.0","0","0","41362","","219","","","68","61","","","2","61","training","adjacent","BA","2","1","L.jpg","N.jpg","1","0","0","",""
"","feedback","","html-keyboard-response","409","648575","0.0-1.0-555.0-0.0","0","0","41362","","null","","","null","61","","","","","","","","","","","","","","","",""
"","time_out","","html-keyboard-response","410","650577","0.0-1.0-557.0-0.0","0","0","41362","","null","","","null","61","","","","","","","","","","","","","","","",""
"","ITI","","html-keyboard-response","411","651580","0.0-1.0-558.0","0","0","41362","","null","","","null","61","","","","","","","","","","","","","","","NaN",""
"","S1","","html-keyboard-response","412","651833","0.0-1.0-560.0","0","0","41362","","null","","","null","62","","","","","","","","","","","","","","","",""
"","ISI","","html-keyboard-response","413","653836","0.0-1.0-561.0","0","0","41362","","null","","","null","62","NaN","","","","","","","","","","","","","","",""
"","S2","","html-keyboard-response","414","654088","0.0-1.0-562.0","0","0","41362","","null","","","null","62","","NaN","","","","","","","","","","","","","",""
"","response","","html-keyboard-response","415","654226","0.0-1.0-563.0","0","0","41362","","136","","","75","62","","","2","62","training","adjacent","DE","4","5","M.jpg","P.jpg","0","1","0","",""
"","feedback","","html-keyboard-response","416","655229","0.0-1.0-564.0-0.0","0","0","41362","","null","","","null","62","","","","","","","","","","","","","","","",""
"","time_out","","html-keyboard-response","417","657231","0.0-1.0-566.0-0.0","0","0","41362","","null","","","null","62","","","","","","","","","","","","","","","",""
"","ITI","","html-keyboard-response","418","658234","0.0-1.0-567.0","0","0","41362","","null","","","null","62","","","","","","","","","","","","","","","NaN",""
"","S1","","html-keyboard-response","419","658487","0.0-1.0-569.0","0","0","41362","","null","","","null","63","","","","","","","","","","","","","","","",""
"","ISI","","html-keyboard-response","420","660491","0.0-1.0-570.0","0","0","41362","","null","","","null","63","NaN","","","","","","","","","","","","","","",""
"","S2","","html-keyboard-response","421","660743","0.0-1.0-571.0","0","0","41362","","null","","","null","63","","NaN","","","","","","","","","","","","","",""
"","response","","html-keyboard-response","422","660863","0.0-1.0-572.0","0","0","41362","","118","","","75","63","","","2","63","training","adjacent","CD","3","4","R.jpg","M.jpg","0","1","0","",""
"","feedback","","html-keyboard-response","423","661867","0.0-1.0-573.0-0.0","0","0","41362","","null","","","null","63","","","","","","","","","","","","","","","",""
"","time_out","","html-keyboard-response","424","663869","0.0-1.0-575.0-0.0","0","0","41362","","null","","","null","63","","","","","","","","","","","","","","","",""
"","ITI","","html-keyboard-response","425","664872","0.0-1.0-576.0","0","0","41362","","null","","","null","63","","","","","","","","","","","","","","","NaN",""
"","S1","","html-keyboard-response","426","665124","0.0-1.0-578.0","0","0","41362","","null","","","null","64","","","","","","","","","","","","","","","",""
"","ISI","","html-keyboard-response","427","667128","0.0-1.0-579.0","0","0","41362","","null","","","null","64","NaN","","","","","","","","","","","","","","",""
"","S2","","html-keyboard-response","428","667381","0.0-1.0-580.0","0","0","41362","","null","","","null","64","","NaN","","","","","","","","","","","","","",""
"","response","","html-keyboard-response","429","667441","0.0-1.0-581.0","0","0","41362","","59","","","68","64","","","2","64","training","adjacent","CD","3","4","R.jpg","M.jpg","1","1","1","",""
"","feedback","","html-keyboard-response","430","668444","0.0-1.0-582.0-0.0","0","0","41362","","null","","","null","64","","","","","","","","","","","","","","","",""
"","ITI","","html-keyboard-response","431","669447","0.0-1.0-585.0","0","0","41362","","null","","","null","64","","","","","","","","","","","","","","","NaN",""
"","S1","","html-keyboard-response","432","669700","0.0-1.0-587.0","0","0","41362","","null","","","null","65","","","","","","","","","","","","","","","",""
"","ISI","","html-keyboard-response","433","671702","0.0-1.0-588.0","0","0","41362","","null","","","null","65","NaN","","","","","","","","","","","","","","",""
"","S2","","html-keyboard-response","434","671955","0.0-1.0-589.0","0","0","41362","","null","","","null","65","","NaN","","","","","","","","","","","","","",""
"","response","","html-keyboard-response","435","672311","0.0-1.0-590.0","0","0","41362","","354","","","75","65","","","2","65","training","adjacent","CB","3","2","R.jpg","L.jpg","0","0","1","",""
"","feedback","","html-keyboard-response","436","673314","0.0-1.0-591.0-0.0","0","0","41362","","null","","","null","65","","","","","","","","","","","","","","","",""
"","ITI","","html-keyboard-response","437","674317","0.0-1.0-594.0","0","0","41362","","null","","","null","65","","","","","","","","","","","","","","","NaN",""
"","S1","","html-keyboard-response","438","674570","0.0-1.0-596.0","0","0","41362","","null","","","null","66","","","","","","","","","","","","","","","",""
"","ISI","","html-keyboard-response","439","676573","0.0-1.0-597.0","0","0","41362","","null","","","null","66","NaN","","","","","","","","","","","","","","",""
"","S2","","html-keyboard-response","440","676826","0.0-1.0-598.0","0","0","41362","","null","","","null","66","","NaN","","","","","","","","","","","","","",""
"","response","","html-keyboard-response","441","676927","0.0-1.0-599.0","0","0","41362","","99","","","68","66","","","2","66","training","adjacent","DC","4","3","M.jpg","R.jpg","1","0","0","",""
"","feedback","","html-keyboard-response","442","677929","0.0-1.0-600.0-0.0","0","0","41362","","null","","","null","66","","","","","","","","","","","","","","","",""
"","time_out","","html-keyboard-response","443","679933","0.0-1.0-602.0-0.0","0","0","41362","","null","","","null","66","","","","","","","","","","","","","","","",""
"","ITI","","html-keyboard-response","444","680935","0.0-1.0-603.0","0","0","41362","","null","","","null","66","","","","","","","","","","","","","","","NaN",""
"","S1","","html-keyboard-response","445","681188","0.0-1.0-605.0","0","0","41362","","null","","","null","67","","","","","","","","","","","","","","","",""
"","ISI","","html-keyboard-response","446","683190","0.0-1.0-606.0","0","0","41362","","null","","","null","67","NaN","","","","","","","","","","","","","","",""
"","S2","","html-keyboard-response","447","683443","0.0-1.0-607.0","0","0","41362","","null","","","null","67","","NaN","","","","","","","","","","","","","",""
"","response","","html-keyboard-response","448","683479","0.0-1.0-608.0","0","0","41362","","34","","","68","67","","","2","67","training","adjacent","DC","4","3","M.jpg","R.jpg","1","0","0","",""
"","feedback","","html-keyboard-response","449","684482","0.0-1.0-609.0-0.0","0","0","41362","","null","","","null","67","","","","","","","","","","","","","","","",""
"","time_out","","html-keyboard-response","450","686484","0.0-1.0-611.0-0.0","0","0","41362","","null","","","null","67","","","","","","","","","","","","","","","",""
"","ITI","","html-keyboard-response","451","687487","0.0-1.0-612.0","0","0","41362","","null","","","null","67","","","","","","","","","","","","","","","NaN",""
"","S1","","html-keyboard-response","452","687740","0.0-1.0-614.0","0","0","41362","","null","","","null","68","","","","","","","","","","","","","","","",""
"","ISI","","html-keyboard-response","453","689742","0.0-1.0-615.0","0","0","41362","","null","","","null","68","NaN","","","","","","","","","","","","","","",""
"","S2","","html-keyboard-response","454","689995","0.0-1.0-616.0","0","0","41362","","null","","","null","68","","NaN","","","","","","","","","","","","","",""
"","response","","html-keyboard-response","455","690048","0.0-1.0-617.0","0","0","41362","","50","","","75","68","","","2","68","training","adjacent","DE","4","5","M.jpg","P.jpg","0","1","0","",""
"","feedback","","html-keyboard-response","456","691051","0.0-1.0-618.0-0.0","0","0","41362","","null","","","null","68","","","","","","","","","","","","","","","",""
"","time_out","","html-keyboard-response","457","693053","0.0-1.0-620.0-0.0","0","0","41362","","null","","","null","68","","","","","","","","","","","","","","","",""
"","ITI","","html-keyboard-response","458","694056","0.0-1.0-621.0","0","0","41362","","null","","","null","68","","","","","","","","","","","","","","","NaN",""
"","S1","","html-keyboard-response","459","694308","0.0-1.0-623.0","0","0","41362","","null","","","null","69","","","","","","","","","","","","","","","",""
"","ISI","","html-keyboard-response","460","696311","0.0-1.0-624.0","0","0","41362","","null","","","null","69","NaN","","","","","","","","","","","","","","",""
"","S2","","html-keyboard-response","461","696564","0.0-1.0-625.0","0","0","41362","","null","","","null","69","","NaN","","","","","","","","","","","","","",""
"","response","","html-keyboard-response","462","696686","0.0-1.0-626.0","0","0","41362","","120","","","68","69","","","2","69","training","adjacent","BA","2","1","L.jpg","N.jpg","1","0","0","",""
"","feedback","","html-keyboard-response","463","697690","0.0-1.0-627.0-0.0","0","0","41362","","null","","","null","69","","","","","","","","","","","","","","","",""
"","time_out","","html-keyboard-response","464","699692","0.0-1.0-629.0-0.0","0","0","41362","","null","","","null","69","","","","","","","","","","","","","","","",""
"","ITI","","html-keyboard-response","465","700694","0.0-1.0-630.0","0","0","41362","","null","","","null","69","","","","","","","","","","","","","","","NaN",""
"","S1","","html-keyboard-response","466","700947","0.0-1.0-632.0","0","0","41362","","null","","","null","70","","","","","","","","","","","","","","","",""
"","ISI","","html-keyboard-response","467","702951","0.0-1.0-633.0","0","0","41362","","null","","","null","70","NaN","","","","","","","","","","","","","","",""
"","S2","","html-keyboard-response","468","703204","0.0-1.0-634.0","0","0","41362","","null","","","null","70","","NaN","","","","","","","","","","","","","",""
"","response","","html-keyboard-response","469","703224","0.0-1.0-635.0","0","0","41362","","19","","","68","70","","","2","70","training","adjacent","EF","5","6","P.jpg","Q.jpg","1","1","1","",""
"","feedback","","html-keyboard-response","470","704227","0.0-1.0-636.0-0.0","0","0","41362","","null","","","null","70","","","","","","","","","","","","","","","",""
"","ITI","","html-keyboard-response","471","705230","0.0-1.0-639.0","0","0","41362","","null","","","null","70","","","","","","","","","","","","","","","NaN",""
"","S1","","html-keyboard-response","472","705483","0.0-1.0-641.0","0","0","41362","","null","","","null","71","","","","","","","","","","","","","","","",""
"","ISI","","html-keyboard-response","473","707486","0.0-1.0-642.0","0","0","41362","","null","","","null","71","NaN","","","","","","","","","","","","","","",""
"","S2","","html-keyboard-response","474","707739","0.0-1.0-643.0","0","0","41362","","null","","","null","71","","NaN","","","","","","","","","","","","","",""
"","response","","html-keyboard-response","475","708249","0.0-1.0-644.0","0","0","41362","","508","","","75","71","","","2","71","training","adjacent","ED","5","4","P.jpg","M.jpg","0","0","1","",""
"","feedback","","html-keyboard-response","476","709253","0.0-1.0-645.0-0.0","0","0","41362","","null","","","null","71","","","","","","","","","","","","","","","",""
"","ITI","","html-keyboard-response","477","710256","0.0-1.0-648.0","0","0","41362","","null","","","null","71","","","","","","","","","","","","","","","NaN",""
"","S1","","html-keyboard-response","478","710509","0.0-1.0-650.0","0","0","41362","","null","","","null","72","","","","","","","","","","","","","","","",""
"","ISI","","html-keyboard-response","479","712512","0.0-1.0-651.0","0","0","41362","","null","","","null","72","NaN","","","","","","","","","","","","","","",""
"","S2","","html-keyboard-response","480","712764","0.0-1.0-652.0","0","0","41362","","null","","","null","72","","NaN","","","","","","","","","","","","","",""
"","response","","html-keyboard-response","481","713463","0.0-1.0-653.0","0","0","41362","","697","","","68","72","","","2","72","training","adjacent","CD","3","4","R.jpg","M.jpg","1","1","1","",""
"","feedback","","html-keyboard-response","482","714467","0.0-1.0-654.0-0.0","0","0","41362","","null","","","null","72","","","","","","","","","","","","","","","",""
"","ITI","","html-keyboard-response","483","715470","0.0-1.0-657.0","0","0","41362","","null","","","null","72","","","","","","","","","","","","","","","NaN",""
"","S1","","html-keyboard-response","484","715723","0.0-1.0-659.0","0","0","41362","","null","","","null","73","","","","","","","","","","","","","","","",""
"","ISI","","html-keyboard-response","485","717725","0.0-1.0-660.0","0","0","41362","","null","","","null","73","NaN","","","","","","","","","","","","","","",""
"","S2","","html-keyboard-response","486","717978","0.0-1.0-661.0","0","0","41362","","null","","","null","73","","NaN","","","","","","","","","","","","","",""
"","response","","html-keyboard-response","487","718644","0.0-1.0-662.0","0","0","41362","","664","","","75","73","","","2","73","training","adjacent","CB","3","2","R.jpg","L.jpg","0","0","1","",""
"","feedback","","html-keyboard-response","488","719647","0.0-1.0-663.0-0.0","0","0","41362","","null","","","null","73","","","","","","","","","","","","","","","",""
"","ITI","","html-keyboard-response","489","720650","0.0-1.0-666.0","0","0","41362","","null","","","null","73","","","","","","","","","","","","","","","NaN",""
"","S1","","html-keyboard-response","490","720902","0.0-1.0-668.0","0","0","41362","","null","","","null","74","","","","","","","","","","","","","","","",""
"","ISI","","html-keyboard-response","491","722905","0.0-1.0-669.0","0","0","41362","","null","","","null","74","NaN","","","","","","","","","","","","","","",""
"","S2","","html-keyboard-response","492","723158","0.0-1.0-670.0","0","0","41362","","null","","","null","74","","NaN","","","","","","","","","","","","","",""
"","response","","html-keyboard-response","493","723733","0.0-1.0-671.0","0","0","41362","","573","","","68","74","","","2","74","training","adjacent","ED","5","4","P.jpg","M.jpg","1","0","0","",""
"","feedback","","html-keyboard-response","494","724736","0.0-1.0-672.0-0.0","0","0","41362","","null","","","null","74","","","","","","","","","","","","","","","",""
"","time_out","","html-keyboard-response","495","726739","0.0-1.0-674.0-0.0","0","0","41362","","null","","","null","74","","","","","","","","","","","","","","","",""
"","ITI","","html-keyboard-response","496","727742","0.0-1.0-675.0","0","0","41362","","null","","","null","74","","","","","","","","","","","","","","","NaN",""
"","S1","","html-keyboard-response","497","727995","0.0-1.0-677.0","0","0","41362","","null","","","null","75","","","","","","","","","","","","","","","",""
"","ISI","","html-keyboard-response","498","729997","0.0-1.0-678.0","0","0","41362","","null","","","null","75","NaN","","","","","","","","","","","","","","",""
"","S2","","html-keyboard-response","499","730250","0.0-1.0-679.0","0","0","41362","","null","","","null","75","","NaN","","","","","","","","","","","","","",""
"","response","","html-keyboard-response","500","730311","0.0-1.0-680.0","0","0","41362","","59","","","75","75","","","2","75","training","adjacent","BA","2","1","L.jpg","N.jpg","0","0","1","",""
"","feedback","","html-keyboard-response","501","731314","0.0-1.0-681.0-0.0","0","0","41362","","null","","","null","75","","","","","","","","","","","","","","","",""
"","ITI","","html-keyboard-response","502","732318","0.0-1.0-684.0","0","0","41362","","null","","","null","75","","","","","","","","","","","","","","","NaN",""
"","S1","","html-keyboard-response","503","732571","0.0-1.0-686.0","0","0","41362","","null","","","null","76","","","","","","","","","","","","","","","",""
"","ISI","","html-keyboard-response","504","734573","0.0-1.0-687.0","0","0","41362","","null","","","null","76","NaN","","","","","","","","","","","","","","",""
"","S2","","html-keyboard-response","505","734826","0.0-1.0-688.0","0","0","41362","","null","","","null","76","","NaN","","","","","","","","","","","","","",""
"","response","","html-keyboard-response","506","734931","0.0-1.0-689.0","0","0","41362","","104","","","68","76","","","2","76","training","adjacent","DC","4","3","M.jpg","R.jpg","1","0","0","",""
"","feedback","","html-keyboard-response","507","735935","0.0-1.0-690.0-0.0","0","0","41362","","null","","","null","76","","","","","","","","","","","","","","","",""
"","time_out","","html-keyboard-response","508","737938","0.0-1.0-692.0-0.0","0","0","41362","","null","","","null","76","","","","","","","","","","","","","","","",""
"","ITI","","html-keyboard-response","509","738941","0.0-1.0-693.0","0","0","41362","","null","","","null","76","","","","","","","","","","","","","","","NaN",""
"","S1","","html-keyboard-response","510","739193","0.0-1.0-695.0","0","0","41362","","null","","","null","77","","","","","","","","","","","","","","","",""
"","ISI","","html-keyboard-response","511","741195","0.0-1.0-696.0","0","0","41362","","null","","","null","77","NaN","","","","","","","","","","","","","","",""
"","S2","","html-keyboard-response","512","741448","0.0-1.0-697.0","0","0","41362","","null","","","null","77","","NaN","","","","","","","","","","","","","",""
"","response","","html-keyboard-response","513","741774","0.0-1.0-698.0","0","0","41362","","325","","","75","77","","","2","77","training","adjacent","BC","2","3","L.jpg","R.jpg","0","1","0","",""
"","feedback","","html-keyboard-response","514","742777","0.0-1.0-699.0-0.0","0","0","41362","","null","","","null","77","","","","","","","","","","","","","","","",""
"","time_out","","html-keyboard-response","515","744779","0.0-1.0-701.0-0.0","0","0","41362","","null","","","null","77","","","","","","","","","","","","","","","",""
"","ITI","","html-keyboard-response","516","745782","0.0-1.0-702.0","0","0","41362","","null","","","null","77","","","","","","","","","","","","","","","NaN",""
"","S1","","html-keyboard-response","517","746035","0.0-1.0-704.0","0","0","41362","","null","","","null","78","","","","","","","","","","","","","","","",""
"","ISI","","html-keyboard-response","518","748039","0.0-1.0-705.0","0","0","41362","","null","","","null","78","NaN","","","","","","","","","","","","","","",""
"","S2","","html-keyboard-response","519","748291","0.0-1.0-706.0","0","0","41362","","null","","","null","78","","NaN","","","","","","","","","","","","","",""
"","response","","html-keyboard-response","520","748392","0.0-1.0-707.0","0","0","41362","","99","","","68","78","","","2","78","training","adjacent","BC","2","3","L.jpg","R.jpg","1","1","1","",""
"","feedback","","html-keyboard-response","521","749395","0.0-1.0-708.0-0.0","0","0","41362","","null","","","null","78","","","","","","","","","","","","","","","",""
"","ITI","","html-keyboard-response","522","750398","0.0-1.0-711.0","0","0","41362","","null","","","null","78","","","","","","","","","","","","","","","NaN",""
"","S1","","html-keyboard-response","523","750652","0.0-1.0-713.0","0","0","41362","","null","","","null","79","","","","","","","","","","","","","","","",""
"","ISI","","html-keyboard-response","524","752654","0.0-1.0-714.0","0","0","41362","","null","","","null","79","NaN","","","","","","","","","","","","","","",""
"","S2","","html-keyboard-response","525","752907","0.0-1.0-715.0","0","0","41362","","null","","","null","79","","NaN","","","","","","","","","","","","","",""
"","response","","html-keyboard-response","526","752932","0.0-1.0-716.0","0","0","41362","","23","","","75","79","","","2","79","training","adjacent","EF","5","6","P.jpg","Q.jpg","0","1","0","",""
"","feedback","","html-keyboard-response","527","753935","0.0-1.0-717.0-0.0","0","0","41362","","null","","","null","79","","","","","","","","","","","","","","","",""
"","time_out","","html-keyboard-response","528","755937","0.0-1.0-719.0-0.0","0","0","41362","","null","","","null","79","","","","","","","","","","","","","","","",""
"","ITI","","html-keyboard-response","529","756940","0.0-1.0-720.0","0","0","41362","","null","","","null","79","","","","","","","","","","","","","","","NaN",""
"","S1","","html-keyboard-response","530","757193","0.0-1.0-722.0","0","0","41362","","null","","","null","80","","","","","","","","","","","","","","","",""
"","ISI","","html-keyboard-response","531","759196","0.0-1.0-723.0","0","0","41362","","null","","","null","80","NaN","","","","","","","","","","","","","","",""
"","S2","","html-keyboard-response","532","759449","0.0-1.0-724.0","0","0","41362","","null","","","null","80","","NaN","","","","","","","","","","","","","",""
"","response","","html-keyboard-response","533","759456","0.0-1.0-725.0","0","0","41362","","5","","","75","80","","","2","80","training","adjacent","AB","1","2","N.jpg","L.jpg","0","1","0","",""
"","feedback","","html-keyboard-response","534","760459","0.0-1.0-726.0-0.0","0","0","41362","","null","","","null","80","","","","","","","","","","","","","","","",""
"","time_out","","html-keyboard-response","535","762462","0.0-1.0-728.0-0.0","0","0","41362","","null","","","null","80","","","","","","","","","","","","","","","",""
"","ITI","","html-keyboard-response","536","763464","0.0-1.0-729.0","0","0","41362","","null","","","null","80","","","","","","","","","","","","","","","NaN",""
"","S1","","html-keyboard-response","537","763718","0.0-1.0-731.0","0","0","41362","","null","","","null","81","","","","","","","","","","","","","","","",""
"","ISI","","html-keyboard-response","538","765720","0.0-1.0-732.0","0","0","41362","","null","","","null","81","NaN","","","","","","","","","","","","","","",""
"","S2","","html-keyboard-response","539","765973","0.0-1.0-733.0","0","0","41362","","null","","","null","81","","NaN","","","","","","","","","","","","","",""
"","response","","html-keyboard-response","540","766065","0.0-1.0-734.0","0","0","41362","","90","","","75","81","","","2","81","training","adjacent","GF","7","6","O.jpg","Q.jpg","0","0","1","",""
"","feedback","","html-keyboard-response","541","767069","0.0-1.0-735.0-0.0","0","0","41362","","null","","","null","81","","","","","","","","","","","","","","","",""
"","ITI","","html-keyboard-response","542","768071","0.0-1.0-738.0","0","0","41362","","null","","","null","81","","","","","","","","","","","","","","","NaN",""
"","S1","","html-keyboard-response","543","768324","0.0-1.0-740.0","0","0","41362","","null","","","null","82","","","","","","","","","","","","","","","",""
"","ISI","","html-keyboard-response","544","770326","0.0-1.0-741.0","0","0","41362","","null","","","null","82","NaN","","","","","","","","","","","","","","",""
"","S2","","html-keyboard-response","545","770579","0.0-1.0-742.0","0","0","41362","","null","","","null","82","","NaN","","","","","","","","","","","","","",""
"","response","","html-keyboard-response","546","770729","0.0-1.0-743.0","0","0","41362","","149","","","75","82","","","2","82","training","adjacent","GF","7","6","O.jpg","Q.jpg","0","0","1","",""
"","feedback","","html-keyboard-response","547","771733","0.0-1.0-744.0-0.0","0","0","41362","","null","","","null","82","","","","","","","","","","","","","","","",""
"","ITI","","html-keyboard-response","548","772736","0.0-1.0-747.0","0","0","41362","","null","","","null","82","","","","","","","","","","","","","","","NaN",""
"","S1","","html-keyboard-response","549","772988","0.0-1.0-749.0","0","0","41362","","null","","","null","83","","","","","","","","","","","","","","","",""
"","ISI","","html-keyboard-response","550","774991","0.0-1.0-750.0","0","0","41362","","null","","","null","83","NaN","","","","","","","","","","","","","","",""
"","S2","","html-keyboard-response","551","775244","0.0-1.0-751.0","0","0","41362","","null","","","null","83","","NaN","","","","","","","","","","","","","",""
"","response","","html-keyboard-response","552","775269","0.0-1.0-752.0","0","0","41362","","23","","","68","83","","","2","83","training","adjacent","CB","3","2","R.jpg","L.jpg","1","0","0","",""
"","feedback","","html-keyboard-response","553","776272","0.0-1.0-753.0-0.0","0","0","41362","","null","","","null","83","","","","","","","","","","","","","","","",""
"","time_out","","html-keyboard-response","554","778275","0.0-1.0-755.0-0.0","0","0","41362","","null","","","null","83","","","","","","","","","","","","","","","",""
"","ITI","","html-keyboard-response","555","779277","0.0-1.0-756.0","0","0","41362","","null","","","null","83","","","","","","","","","","","","","","","NaN",""
"","S1","","html-keyboard-response","556","779531","0.0-1.0-758.0","0","0","41362","","null","","","null","84","","","","","","","","","","","","","","","",""
"","ISI","","html-keyboard-response","557","781534","0.0-1.0-759.0","0","0","41362","","null","","","null","84","NaN","","","","","","","","","","","","","","",""
"","S2","","html-keyboard-response","558","781787","0.0-1.0-760.0","0","0","41362","","null","","","null","84","","NaN","","","","","","","","","","","","","",""
"","response","","html-keyboard-response","559","781804","0.0-1.0-761.0","0","0","41362","","16","","","75","84","","","2","84","training","adjacent","FG","6","7","Q.jpg","O.jpg","0","1","0","",""
"","feedback","","html-keyboard-response","560","782807","0.0-1.0-762.0-0.0","0","0","41362","","null","","","null","84","","","","","","","","","","","","","","","",""
"","time_out","","html-keyboard-response","561","784810","0.0-1.0-764.0-0.0","0","0","41362","","null","","","null","84","","","","","","","","","","","","","","","",""
"","ITI","","html-keyboard-response","562","785813","0.0-1.0-765.0","0","0","41362","","null","","","null","84","","","","","","","","","","","","","","","NaN",""
"","S1","","html-keyboard-response","563","786065","0.0-1.0-767.0","0","0","41362","","null","","","null","85","","","","","","","","","","","","","","","",""
"","ISI","","html-keyboard-response","564","788068","0.0-1.0-768.0","0","0","41362","","223","","","68","85","d","","","","","","","","","","","","","","",""
"","S2","","html-keyboard-response","565","788321","0.0-1.0-769.0","0","0","41362","","null","","","null","85","","NaN","","","","","","","","","","","","","",""
"","response","","html-keyboard-response","566","788437","0.0-1.0-770.0","0","0","41362","","114","","","68","85","","","2","85","training","adjacent","AB","1","2","N.jpg","L.jpg","1","1","1","",""
"","feedback","","html-keyboard-response","567","789440","0.0-1.0-771.0-0.0","0","0","41362","","null","","","null","85","","","","","","","","","","","","","","","",""
"","ITI","","html-keyboard-response","568","790441","0.0-1.0-774.0","0","0","41362","","null","","","null","85","","","","","","","","","","","","","","","NaN",""
"","S1","","html-keyboard-response","569","790695","0.0-1.0-776.0","0","0","41362","","null","","","null","86","","","","","","","","","","","","","","","",""
"","ISI","","html-keyboard-response","570","792697","0.0-1.0-777.0","0","0","41362","","null","","","null","86","NaN","","","","","","","","","","","","","","",""
"","S2","","html-keyboard-response","571","792950","0.0-1.0-778.0","0","0","41362","","null","","","null","86","","NaN","","","","","","","","","","","","","",""
"","response","","html-keyboard-response","572","793014","0.0-1.0-779.0","0","0","41362","","63","","","68","86","","","2","86","training","adjacent","GF","7","6","O.jpg","Q.jpg","1","0","0","",""
"","feedback","","html-keyboard-response","573","794017","0.0-1.0-780.0-0.0","0","0","41362","","null","","","null","86","","","","","","","","","","","","","","","",""
"","time_out","","html-keyboard-response","574","796020","0.0-1.0-782.0-0.0","0","0","41362","","null","","","null","86","","","","","","","","","","","","","","","",""
"","ITI","","html-keyboard-response","575","797023","0.0-1.0-783.0","0","0","41362","","null","","","null","86","","","","","","","","","","","","","","","NaN",""
"","S1","","html-keyboard-response","576","797275","0.0-1.0-785.0","0","0","41362","","null","","","null","87","","","","","","","","","","","","","","","",""
"","ISI","","html-keyboard-response","577","799278","0.0-1.0-786.0","0","0","41362","","null","","","null","87","NaN","","","","","","","","","","","","","","",""
"","S2","","html-keyboard-response","578","799530","0.0-1.0-787.0","0","0","41362","","null","","","null","87","","NaN","","","","","","","","","","","","","",""
"","response","","html-keyboard-response","579","800470","0.0-1.0-788.0","0","0","41362","","938","","","75","87","","","2","87","training","adjacent","FE","6","5","Q.jpg","P.jpg","0","0","1","",""
"","feedback","","html-keyboard-response","580","801473","0.0-1.0-789.0-0.0","0","0","41362","","null","","","null","87","","","","","","","","","","","","","","","",""
"","ITI","","html-keyboard-response","581","802476","0.0-1.0-792.0","0","0","41362","","null","","","null","87","","","","","","","","","","","","","","","NaN",""
"","S1","","html-keyboard-response","582","802729","0.0-1.0-794.0","0","0","41362","","null","","","null","88","","","","","","","","","","","","","","","",""
"","ISI","","html-keyboard-response","583","804732","0.0-1.0-795.0","0","0","41362","","null","","","null","88","NaN","","","","","","","","","","","","","","",""
