"success","ttype","start_time","trial_type","trial_index","time_elapsed","internal_node_id","warning","missed_checkup","PID","view_history","rt","responses","repeat_instructions","key_press","index","keypress_isi","keypress_S2","block","trial_num","phase","group_type","pair_type","S1_stim","S2_stim","S1_img","S2_img","S1_chosen","S1_higher","accuracy","keypress_iti","total_bonus_tally"
"true","full_screen","d08052022hr1237","fullscreen","0","13871","0.0-0.0","0","0","56422","","","","","","","","","","","","","","","","","","","","","",""
"","instructions","","instructions","1","52087","0.0-1.0-0.0-0.0","0","0","56422","[{""page_index"":0,""viewing_time"":6320},{""page_index"":1,""viewing_time"":18824},{""page_index"":2,""viewing_time"":10592},{""page_index"":3,""viewing_time"":2478}]","38214","","","","","","","","","","","","","","","","","","","",""
"","comprehension_check","","survey-multi-choice","2","78369","0.0-1.0-0.0-1.0","0","0","56422","","26279","{""Q0"":""True"",""Q1"":""D"",""Q2"":""Once the second image appears and while the screen 'MAKE A CHOICE' is shown"",""Q3"":""Green mark"",""Q4"":""either D or K""}","0","","","","","","","","","","","","","","","","","",""
"","start_exp","","html-keyboard-response","3","80446","0.0-1.0-1.0","0","0","56422","","2075","","","32","","","","","","","","","","","","","","","","",""
"","S1","","html-keyboard-response","4","80700","0.0-1.0-2.0","0","0","56422","","null","","","null","0","","","","","","","","","","","","","","","",""
"","ISI","","html-keyboard-response","5","82705","0.0-1.0-3.0","0","0","56422","","null","","","null","0","NaN","","","","","","","","","","","","","","",""
"","S2","","html-keyboard-response","6","82959","0.0-1.0-4.0","0","0","56422","","null","","","null","0","","NaN","","","","","","","","","","","","","",""
"","response","","html-keyboard-response","7","83605","0.0-1.0-5.0-0.0","0","0","56422","","642","","","75","0","","","1","0","training","adjacent","CB","3","2","R.jpg","Q.jpg","0","0","1","",""
"","feedback","","html-keyboard-response","8","84610","0.0-1.0-6.0-0.0","0","0","56422","","null","","","null","0","","","","","","","","","","","","","","","",""
"","ITI","","html-keyboard-response","9","85616","0.0-1.0-9.0","0","0","56422","","null","","","null","0","","","","","","","","","","","","","","","NaN",""
"","S1","","html-keyboard-response","10","85871","0.0-1.0-11.0","0","0","56422","","null","","","null","1","","","","","","","","","","","","","","","",""
"","ISI","","html-keyboard-response","11","87875","0.0-1.0-12.0","0","0","56422","","null","","","null","1","NaN","","","","","","","","","","","","","","",""
"","S2","","html-keyboard-response","12","88129","0.0-1.0-13.0","0","0","56422","","null","","","null","1","","NaN","","","","","","","","","","","","","",""
"","response","","html-keyboard-response","13","88552","0.0-1.0-14.0-0.0","0","0","56422","","422","","","75","1","","","1","1","training","adjacent","AB","1","2","L.jpg","Q.jpg","0","1","0","",""
"","feedback","","html-keyboard-response","14","89556","0.0-1.0-15.0-0.0","0","0","56422","","null","","","null","1","","","","","","","","","","","","","","","",""
"","time_out","","html-keyboard-response","15","91561","0.0-1.0-17.0-0.0","0","0","56422","","null","","","null","1","","","","","","","","","","","","","","","",""
"","ITI","","html-keyboard-response","16","92566","0.0-1.0-18.0","0","0","56422","","null","","","null","1","","","","","","","","","","","","","","","NaN",""
"","S1","","html-keyboard-response","17","92819","0.0-1.0-20.0","0","0","56422","","null","","","null","2","","","","","","","","","","","","","","","",""
"","ISI","","html-keyboard-response","18","94823","0.0-1.0-21.0","0","0","56422","","null","","","null","2","NaN","","","","","","","","","","","","","","",""
"","S2","","html-keyboard-response","19","95077","0.0-1.0-22.0","0","0","56422","","null","","","null","2","","NaN","","","","","","","","","","","","","",""
"","response","","html-keyboard-response","20","96033","0.0-1.0-23.0-0.0","0","0","56422","","953","","","68","2","","","1","2","training","adjacent","DE","4","5","O.jpg","N.jpg","1","1","1","",""
"","feedback","","html-keyboard-response","21","97038","0.0-1.0-24.0-0.0","0","0","56422","","null","","","null","2","","","","","","","","","","","","","","","",""
"","ITI","","html-keyboard-response","22","98040","0.0-1.0-27.0","0","0","56422","","null","","","null","2","","","","","","","","","","","","","","","NaN",""
"","S1","","html-keyboard-response","23","98295","0.0-1.0-29.0","0","0","56422","","null","","","null","3","","","","","","","","","","","","","","","",""
"","ISI","","html-keyboard-response","24","100298","0.0-1.0-30.0","0","0","56422","","null","","","null","3","NaN","","","","","","","","","","","","","","",""
"","S2","","html-keyboard-response","25","100552","0.0-1.0-31.0","0","0","56422","","null","","","null","3","","NaN","","","","","","","","","","","","","",""
"","response","","html-keyboard-response","26","101316","0.0-1.0-32.0-0.0","0","0","56422","","762","","","75","3","","","1","3","training","adjacent","GF","7","6","M.jpg","P.jpg","0","0","1","",""
"","feedback","","html-keyboard-response","27","102319","0.0-1.0-33.0-0.0","0","0","56422","","null","","","null","3","","","","","","","","","","","","","","","",""
"","ITI","","html-keyboard-response","28","103321","0.0-1.0-36.0","0","0","56422","","null","","","null","3","","","","","","","","","","","","","","","NaN",""
"","S1","","html-keyboard-response","29","103575","0.0-1.0-38.0","0","0","56422","","null","","","null","4","","","","","","","","","","","","","","","",""
"","ISI","","html-keyboard-response","30","105579","0.0-1.0-39.0","0","0","56422","","null","","","null","4","NaN","","","","","","","","","","","","","","",""
"","S2","","html-keyboard-response","31","105835","0.0-1.0-40.0","0","0","56422","","null","","","null","4","","NaN","","","","","","","","","","","","","",""
"","response","","html-keyboard-response","32","106653","0.0-1.0-41.0-0.0","0","0","56422","","814","","","75","4","","","1","4","training","adjacent","BC","2","3","Q.jpg","R.jpg","0","1","0","",""
"","feedback","","html-keyboard-response","33","107658","0.0-1.0-42.0-0.0","0","0","56422","","null","","","null","4","","","","","","","","","","","","","","","",""
"","time_out","","html-keyboard-response","34","109663","0.0-1.0-44.0-0.0","0","0","56422","","null","","","null","4","","","","","","","","","","","","","","","",""
"","ITI","","html-keyboard-response","35","110668","0.0-1.0-45.0","0","0","56422","","null","","","null","4","","","","","","","","","","","","","","","NaN",""
"","S1","","html-keyboard-response","36","110923","0.0-1.0-47.0","0","0","56422","","null","","","null","5","","","","","","","","","","","","","","","",""
"","ISI","","html-keyboard-response","37","112928","0.0-1.0-48.0","0","0","56422","","null","","","null","5","NaN","","","","","","","","","","","","","","",""
"","S2","","html-keyboard-response","38","113181","0.0-1.0-49.0","0","0","56422","","null","","","null","5","","NaN","","","","","","","","","","","","","",""
"","response","","html-keyboard-response","39","113566","0.0-1.0-50.0-0.0","0","0","56422","","381","","","75","5","","","1","5","training","adjacent","FE","6","5","P.jpg","N.jpg","0","0","1","",""
"","feedback","","html-keyboard-response","40","114570","0.0-1.0-51.0-0.0","0","0","56422","","null","","","null","5","","","","","","","","","","","","","","","",""
"","ITI","","html-keyboard-response","41","115574","0.0-1.0-54.0","0","0","56422","","null","","","null","5","","","","","","","","","","","","","","","NaN",""
"","S1","","html-keyboard-response","42","115829","0.0-1.0-56.0","0","0","56422","","null","","","null","6","","","","","","","","","","","","","","","",""
"","ISI","","html-keyboard-response","43","117834","0.0-1.0-57.0","0","0","56422","","null","","","null","6","NaN","","","","","","","","","","","","","","",""
"","S2","","html-keyboard-response","44","118090","0.0-1.0-58.0","0","0","56422","","null","","","null","6","","NaN","","","","","","","","","","","","","",""
"","response","","html-keyboard-response","45","118460","0.0-1.0-59.0-0.0","0","0","56422","","368","","","68","6","","","1","6","training","adjacent","DE","4","5","O.jpg","N.jpg","1","1","1","",""
"","feedback","","html-keyboard-response","46","119463","0.0-1.0-60.0-0.0","0","0","56422","","null","","","null","6","","","","","","","","","","","","","","","",""
"","ITI","","html-keyboard-response","47","120465","0.0-1.0-63.0","0","0","56422","","null","","","null","6","","","","","","","","","","","","","","","NaN",""
"","S1","","html-keyboard-response","48","120719","0.0-1.0-65.0","0","0","56422","","null","","","null","7","","","","","","","","","","","","","","","",""
"","ISI","","html-keyboard-response","49","122734","0.0-1.0-66.0","0","0","56422","","null","","","null","7","NaN","","","","","","","","","","","","","","",""
"","S2","","html-keyboard-response","50","122989","0.0-1.0-67.0","0","0","56422","","null","","","null","7","","NaN","","","","","","","","","","","","","",""
"","response","","html-keyboard-response","51","123303","0.0-1.0-68.0-0.0","0","0","56422","","312","","","68","7","","","1","7","training","adjacent","DC","4","3","O.jpg","R.jpg","1","0","0","",""
"","feedback","","html-keyboard-response","52","124308","0.0-1.0-69.0-0.0","0","0","56422","","null","","","null","7","","","","","","","","","","","","","","","",""
"","time_out","","html-keyboard-response","53","126312","0.0-1.0-71.0-0.0","0","0","56422","","null","","","null","7","","","","","","","","","","","","","","","",""
"","ITI","","html-keyboard-response","54","127313","0.0-1.0-72.0","0","0","56422","","null","","","null","7","","","","","","","","","","","","","","","NaN",""
"","S1","","html-keyboard-response","55","127566","0.0-1.0-74.0","0","0","56422","","null","","","null","8","","","","","","","","","","","","","","","",""
"","ISI","","html-keyboard-response","56","129570","0.0-1.0-75.0","0","0","56422","","null","","","null","8","NaN","","","","","","","","","","","","","","",""
"","S2","","html-keyboard-response","57","129826","0.0-1.0-76.0","0","0","56422","","null","","","null","8","","NaN","","","","","","","","","","","","","",""
"","response","","html-keyboard-response","58","130374","0.0-1.0-77.0-0.0","0","0","56422","","544","","","75","8","","","1","8","training","adjacent","DC","4","3","O.jpg","R.jpg","0","0","1","",""
"","feedback","","html-keyboard-response","59","131378","0.0-1.0-78.0-0.0","0","0","56422","","null","","","null","8","","","","","","","","","","","","","","","",""
"","ITI","","html-keyboard-response","60","132382","0.0-1.0-81.0","0","0","56422","","null","","","null","8","","","","","","","","","","","","","","","NaN",""
"","S1","","html-keyboard-response","61","132638","0.0-1.0-83.0","0","0","56422","","null","","","null","9","","","","","","","","","","","","","","","",""
"","ISI","","html-keyboard-response","62","134642","0.0-1.0-84.0","0","0","56422","","null","","","null","9","NaN","","","","","","","","","","","","","","",""
"","S2","","html-keyboard-response","63","134910","0.0-1.0-85.0","0","0","56422","","null","","","null","9","","NaN","","","","","","","","","","","","","",""
"","response","","html-keyboard-response","64","135065","0.0-1.0-86.0-0.0","0","0","56422","","151","","","75","9","","","1","9","training","adjacent","DC","4","3","O.jpg","R.jpg","0","0","1","",""
"","feedback","","html-keyboard-response","65","136072","0.0-1.0-87.0-0.0","0","0","56422","","null","","","null","9","","","","","","","","","","","","","","","",""
"","ITI","","html-keyboard-response","66","137077","0.0-1.0-90.0","0","0","56422","","null","","","null","9","","","","","","","","","","","","","","","NaN",""
"","S1","","html-keyboard-response","67","137330","0.0-1.0-92.0","0","0","56422","","null","","","null","10","","","","","","","","","","","","","","","",""
"","ISI","","html-keyboard-response","68","139333","0.0-1.0-93.0","0","0","56422","","null","","","null","10","NaN","","","","","","","","","","","","","","",""
"","S2","","html-keyboard-response","69","139586","0.0-1.0-94.0","0","0","56422","","null","","","null","10","","NaN","","","","","","","","","","","","","",""
"","response","","html-keyboard-response","70","139926","0.0-1.0-95.0-0.0","0","0","56422","","337","","","75","10","","","1","10","training","adjacent","FG","6","7","P.jpg","M.jpg","0","1","0","",""
"","feedback","","html-keyboard-response","71","140930","0.0-1.0-96.0-0.0","0","0","56422","","null","","","null","10","","","","","","","","","","","","","","","",""
"","time_out","","html-keyboard-response","72","142933","0.0-1.0-98.0-0.0","0","0","56422","","null","","","null","10","","","","","","","","","","","","","","","",""
"","ITI","","html-keyboard-response","73","143936","0.0-1.0-99.0","0","0","56422","","null","","","null","10","","","","","","","","","","","","","","","NaN",""
"","S1","","html-keyboard-response","74","144191","0.0-1.0-101.0","0","0","56422","","null","","","null","11","","","","","","","","","","","","","","","",""
"","ISI","","html-keyboard-response","75","146195","0.0-1.0-102.0","0","0","56422","","null","","","null","11","NaN","","","","","","","","","","","","","","",""
"","S2","","html-keyboard-response","76","146448","0.0-1.0-103.0","0","0","56422","","null","","","null","11","","NaN","","","","","","","","","","","","","",""
"","response","","html-keyboard-response","77","146769","0.0-1.0-104.0-0.0","0","0","56422","","318","","","68","11","","","1","11","training","adjacent","FE","6","5","P.jpg","N.jpg","1","0","0","",""
"","feedback","","html-keyboard-response","78","147773","0.0-1.0-105.0-0.0","0","0","56422","","null","","","null","11","","","","","","","","","","","","","","","",""
"","time_out","","html-keyboard-response","79","149778","0.0-1.0-107.0-0.0","0","0","56422","","null","","","null","11","","","","","","","","","","","","","","","",""
"","ITI","","html-keyboard-response","80","150782","0.0-1.0-108.0","0","0","56422","","null","","","null","11","","","","","","","","","","","","","","","NaN",""
"","S1","","html-keyboard-response","81","151037","0.0-1.0-110.0","0","0","56422","","null","","","null","12","","","","","","","","","","","","","","","",""
"","ISI","","html-keyboard-response","82","153041","0.0-1.0-111.0","0","0","56422","","null","","","null","12","NaN","","","","","","","","","","","","","","",""
"","S2","","html-keyboard-response","83","153294","0.0-1.0-112.0","0","0","56422","","null","","","null","12","","NaN","","","","","","","","","","","","","",""
"","response","","html-keyboard-response","84","153600","0.0-1.0-113.0-0.0","0","0","56422","","304","","","68","12","","","1","12","training","adjacent","BA","2","1","Q.jpg","L.jpg","1","0","0","",""
"","feedback","","html-keyboard-response","85","154616","0.0-1.0-114.0-0.0","0","0","56422","","null","","","null","12","","","","","","","","","","","","","","","",""
"","time_out","","html-keyboard-response","86","156619","0.0-1.0-116.0-0.0","0","0","56422","","null","","","null","12","","","","","","","","","","","","","","","",""
"","ITI","","html-keyboard-response","87","157621","0.0-1.0-117.0","0","0","56422","","null","","","null","12","","","","","","","","","","","","","","","NaN",""
"","S1","","html-keyboard-response","88","157876","0.0-1.0-119.0","0","0","56422","","null","","","null","13","","","","","","","","","","","","","","","",""
"","ISI","","html-keyboard-response","89","159880","0.0-1.0-120.0","0","0","56422","","null","","","null","13","NaN","","","","","","","","","","","","","","",""
"","S2","","html-keyboard-response","90","160134","0.0-1.0-121.0","0","0","56422","","null","","","null","13","","NaN","","","","","","","","","","","","","",""
"","response","","html-keyboard-response","91","160778","0.0-1.0-122.0-0.0","0","0","56422","","638","","","68","13","","","1","13","training","adjacent","EF","5","6","N.jpg","P.jpg","1","1","1","",""
"","feedback","","html-keyboard-response","92","161784","0.0-1.0-123.0-0.0","0","0","56422","","null","","","null","13","","","","","","","","","","","","","","","",""
"","ITI","","html-keyboard-response","93","162788","0.0-1.0-126.0","0","0","56422","","null","","","null","13","","","","","","","","","","","","","","","NaN",""
"","S1","","html-keyboard-response","94","163044","0.0-1.0-128.0","0","0","56422","","null","","","null","14","","","","","","","","","","","","","","","",""
"","ISI","","html-keyboard-response","95","165048","0.0-1.0-129.0","0","0","56422","","null","","","null","14","NaN","","","","","","","","","","","","","","",""
"","S2","","html-keyboard-response","96","165302","0.0-1.0-130.0","0","0","56422","","null","","","null","14","","NaN","","","","","","","","","","","","","",""
"","response","","html-keyboard-response","97","165950","0.0-1.0-131.0-0.0","0","0","56422","","645","","","68","14","","","1","14","training","adjacent","BC","2","3","Q.jpg","R.jpg","1","1","1","",""
"","feedback","","html-keyboard-response","98","166955","0.0-1.0-132.0-0.0","0","0","56422","","null","","","null","14","","","","","","","","","","","","","","","",""
"","ITI","","html-keyboard-response","99","167960","0.0-1.0-135.0","0","0","56422","","null","","","null","14","","","","","","","","","","","","","","","NaN",""
"","S1","","html-keyboard-response","100","168213","0.0-1.0-137.0","0","0","56422","","null","","","null","15","","","","","","","","","","","","","","","",""
"","ISI","","html-keyboard-response","101","170217","0.0-1.0-138.0","0","0","56422","","null","","","null","15","NaN","","","","","","","","","","","","","","",""
"","S2","","html-keyboard-response","102","170471","0.0-1.0-139.0","0","0","56422","","null","","","null","15","","NaN","","","","","","","","","","","","","",""
"","response","","html-keyboard-response","103","171211","0.0-1.0-140.0-0.0","0","0","56422","","736","","","68","15","","","1","15","training","adjacent","BC","2","3","Q.jpg","R.jpg","1","1","1","",""
"","feedback","","html-keyboard-response","104","172216","0.0-1.0-141.0-0.0","0","0","56422","","null","","","null","15","","","","","","","","","","","","","","","",""
"","ITI","","html-keyboard-response","105","173220","0.0-1.0-144.0","0","0","56422","","null","","","null","15","","","","","","","","","","","","","","","NaN",""
"","S1","","html-keyboard-response","106","173473","0.0-1.0-146.0","0","0","56422","","null","","","null","16","","","","","","","","","","","","","","","",""
"","ISI","","html-keyboard-response","107","175476","0.0-1.0-147.0","0","0","56422","","null","","","null","16","NaN","","","","","","","","","","","","","","",""
"","S2","","html-keyboard-response","108","175728","0.0-1.0-148.0","0","0","56422","","null","","","null","16","","NaN","","","","","","","","","","","","","",""
"","response","","html-keyboard-response","109","176013","0.0-1.0-149.0-0.0","0","0","56422","","282","","","68","16","","","1","16","training","adjacent","BA","2","1","Q.jpg","L.jpg","1","0","0","",""
"","feedback","","html-keyboard-response","110","177018","0.0-1.0-150.0-0.0","0","0","56422","","null","","","null","16","","","","","","","","","","","","","","","",""
"","time_out","","html-keyboard-response","111","179023","0.0-1.0-152.0-0.0","0","0","56422","","null","","","null","16","","","","","","","","","","","","","","","",""
"","ITI","","html-keyboard-response","112","180027","0.0-1.0-153.0","0","0","56422","","null","","","null","16","","","","","","","","","","","","","","","NaN",""
"","S1","","html-keyboard-response","113","180282","0.0-1.0-155.0","0","0","56422","","null","","","null","17","","","","","","","","","","","","","","","",""
"","ISI","","html-keyboard-response","114","182287","0.0-1.0-156.0","0","0","56422","","null","","","null","17","NaN","","","","","","","","","","","","","","",""
"","S2","","html-keyboard-response","115","182542","0.0-1.0-157.0","0","0","56422","","null","","","null","17","","NaN","","","","","","","","","","","","","",""
"","response","","html-keyboard-response","116","182965","0.0-1.0-158.0-0.0","0","0","56422","","420","","","68","17","","","1","17","training","adjacent","CD","3","4","R.jpg","O.jpg","1","1","1","",""
"","feedback","","html-keyboard-response","117","183970","0.0-1.0-159.0-0.0","0","0","56422","","null","","","null","17","","","","","","","","","","","","","","","",""
"","ITI","","html-keyboard-response","118","184975","0.0-1.0-162.0","0","0","56422","","null","","","null","17","","","","","","","","","","","","","","","NaN",""
"","S1","","html-keyboard-response","119","185230","0.0-1.0-164.0","0","0","56422","","null","","","null","18","","","","","","","","","","","","","","","",""
"","ISI","","html-keyboard-response","120","187233","0.0-1.0-165.0","0","0","56422","","null","","","null","18","NaN","","","","","","","","","","","","","","",""
"","S2","","html-keyboard-response","121","187497","0.0-1.0-166.0","0","0","56422","","null","","","null","18","","NaN","","","","","","","","","","","","","",""
"","response","","html-keyboard-response","122","188050","0.0-1.0-167.0-0.0","0","0","56422","","550","","","68","18","","","1","18","training","adjacent","ED","5","4","N.jpg","O.jpg","1","0","0","",""
"","feedback","","html-keyboard-response","123","189055","0.0-1.0-168.0-0.0","0","0","56422","","null","","","null","18","","","","","","","","","","","","","","","",""
"","time_out","","html-keyboard-response","124","191060","0.0-1.0-170.0-0.0","0","0","56422","","null","","","null","18","","","","","","","","","","","","","","","",""
"","ITI","","html-keyboard-response","125","192064","0.0-1.0-171.0","0","0","56422","","null","","","null","18","","","","","","","","","","","","","","","NaN",""
"","S1","","html-keyboard-response","126","192320","0.0-1.0-173.0","0","0","56422","","null","","","null","19","","","","","","","","","","","","","","","",""
"","ISI","","html-keyboard-response","127","194324","0.0-1.0-174.0","0","0","56422","","null","","","null","19","NaN","","","","","","","","","","","","","","",""
"","S2","","html-keyboard-response","128","194579","0.0-1.0-175.0","0","0","56422","","null","","","null","19","","NaN","","","","","","","","","","","","","",""
"","response","","html-keyboard-response","129","195229","0.0-1.0-176.0-0.0","0","0","56422","","647","","","75","19","","","1","19","training","adjacent","FG","6","7","P.jpg","M.jpg","0","1","0","",""
"","feedback","","html-keyboard-response","130","196235","0.0-1.0-177.0-0.0","0","0","56422","","null","","","null","19","","","","","","","","","","","","","","","",""
"","time_out","","html-keyboard-response","131","198240","0.0-1.0-179.0-0.0","0","0","56422","","null","","","null","19","","","","","","","","","","","","","","","",""
"","ITI","","html-keyboard-response","132","199242","0.0-1.0-180.0","0","0","56422","","null","","","null","19","","","","","","","","","","","","","","","NaN",""
"","S1","","html-keyboard-response","133","199496","0.0-1.0-182.0","0","0","56422","","null","","","null","20","","","","","","","","","","","","","","","",""
"","ISI","","html-keyboard-response","134","201499","0.0-1.0-183.0","0","0","56422","","null","","","null","20","NaN","","","","","","","","","","","","","","",""
"","S2","","html-keyboard-response","135","201754","0.0-1.0-184.0","0","0","56422","","null","","","null","20","","NaN","","","","","","","","","","","","","",""
"","response","","html-keyboard-response","136","202127","0.0-1.0-185.0-0.0","0","0","56422","","371","","","68","20","","","1","20","training","adjacent","DE","4","5","O.jpg","N.jpg","1","1","1","",""
"","feedback","","html-keyboard-response","137","203132","0.0-1.0-186.0-0.0","0","0","56422","","null","","","null","20","","","","","","","","","","","","","","","",""
"","ITI","","html-keyboard-response","138","204135","0.0-1.0-189.0","0","0","56422","","null","","","null","20","","","","","","","","","","","","","","","NaN",""
"","S1","","html-keyboard-response","139","204390","0.0-1.0-191.0","0","0","56422","","null","","","null","21","","","","","","","","","","","","","","","",""
"","ISI","","html-keyboard-response","140","206394","0.0-1.0-192.0","0","0","56422","","null","","","null","21","NaN","","","","","","","","","","","","","","",""
"","S2","","html-keyboard-response","141","206655","0.0-1.0-193.0","0","0","56422","","null","","","null","21","","NaN","","","","","","","","","","","","","",""
"","response","","html-keyboard-response","142","207018","0.0-1.0-194.0-0.0","0","0","56422","","361","","","68","21","","","1","21","training","adjacent","EF","5","6","N.jpg","P.jpg","1","1","1","",""
"","feedback","","html-keyboard-response","143","208024","0.0-1.0-195.0-0.0","0","0","56422","","null","","","null","21","","","","","","","","","","","","","","","",""
"","ITI","","html-keyboard-response","144","209028","0.0-1.0-198.0","0","0","56422","","null","","","null","21","","","","","","","","","","","","","","","NaN",""
"","S1","","html-keyboard-response","145","209283","0.0-1.0-200.0","0","0","56422","","null","","","null","22","","","","","","","","","","","","","","","",""
"","ISI","","html-keyboard-response","146","211288","0.0-1.0-201.0","0","0","56422","","null","","","null","22","NaN","","","","","","","","","","","","","","",""
"","S2","","html-keyboard-response","147","211542","0.0-1.0-202.0","0","0","56422","","null","","","null","22","","NaN","","","","","","","","","","","","","",""
"","response","","html-keyboard-response","148","211931","0.0-1.0-203.0-0.0","0","0","56422","","385","","","75","22","","","1","22","training","adjacent","FG","6","7","P.jpg","M.jpg","0","1","0","",""
"","feedback","","html-keyboard-response","149","212936","0.0-1.0-204.0-0.0","0","0","56422","","null","","","null","22","","","","","","","","","","","","","","","",""
"","time_out","","html-keyboard-response","150","214943","0.0-1.0-206.0-0.0","0","0","56422","","null","","","null","22","","","","","","","","","","","","","","","",""
"","ITI","","html-keyboard-response","151","215947","0.0-1.0-207.0","0","0","56422","","null","","","null","22","","","","","","","","","","","","","","","NaN",""
"","S1","","html-keyboard-response","152","216200","0.0-1.0-209.0","0","0","56422","","null","","","null","23","","","","","","","","","","","","","","","",""
"","ISI","","html-keyboard-response","153","218202","0.0-1.0-210.0","0","0","56422","","null","","","null","23","NaN","","","","","","","","","","","","","","",""
"","S2","","html-keyboard-response","154","218457","0.0-1.0-211.0","0","0","56422","","null","","","null","23","","NaN","","","","","","","","","","","","","",""
"","response","","html-keyboard-response","155","218962","0.0-1.0-212.0-0.0","0","0","56422","","501","","","68","23","","","1","23","training","adjacent","ED","5","4","N.jpg","O.jpg","1","0","0","",""
"","feedback","","html-keyboard-response","156","219968","0.0-1.0-213.0-0.0","0","0","56422","","null","","","null","23","","","","","","","","","","","","","","","",""
"","time_out","","html-keyboard-response","157","221972","0.0-1.0-215.0-0.0","0","0","56422","","null","","","null","23","","","","","","","","","","","","","","","",""
"","ITI","","html-keyboard-response","158","222976","0.0-1.0-216.0","0","0","56422","","null","","","null","23","","","","","","","","","","","","","","","NaN",""
"","S1","","html-keyboard-response","159","223232","0.0-1.0-218.0","0","0","56422","","null","","","null","24","","","","","","","","","","","","","","","",""
"","ISI","","html-keyboard-response","160","225237","0.0-1.0-219.0","0","0","56422","","null","","","null","24","NaN","","","","","","","","","","","","","","",""
"","S2","","html-keyboard-response","161","225493","0.0-1.0-220.0","0","0","56422","","null","","","null","24","","NaN","","","","","","","","","","","","","",""
"","response","","html-keyboard-response","162","226065","0.0-1.0-221.0-0.0","0","0","56422","","570","","","75","24","","","1","24","training","adjacent","CD","3","4","R.jpg","O.jpg","0","1","0","",""
"","feedback","","html-keyboard-response","163","227067","0.0-1.0-222.0-0.0","0","0","56422","","null","","","null","24","","","","","","","","","","","","","","","",""
"","time_out","","html-keyboard-response","164","229070","0.0-1.0-224.0-0.0","0","0","56422","","null","","","null","24","","","","","","","","","","","","","","","",""
"","ITI","","html-keyboard-response","165","230073","0.0-1.0-225.0","0","0","56422","","null","","","null","24","","","","","","","","","","","","","","","NaN",""
"","S1","","html-keyboard-response","166","230328","0.0-1.0-227.0","0","0","56422","","null","","","null","25","","","","","","","","","","","","","","","",""
"","ISI","","html-keyboard-response","167","232333","0.0-1.0-228.0","0","0","56422","","null","","","null","25","NaN","","","","","","","","","","","","","","",""
"","S2","","html-keyboard-response","168","232589","0.0-1.0-229.0","0","0","56422","","null","","","null","25","","NaN","","","","","","","","","","","","","",""
"","response","","html-keyboard-response","169","233210","0.0-1.0-230.0-0.0","0","0","56422","","617","","","68","25","","","1","25","training","adjacent","FE","6","5","P.jpg","N.jpg","1","0","0","",""
"","feedback","","html-keyboard-response","170","234215","0.0-1.0-231.0-0.0","0","0","56422","","null","","","null","25","","","","","","","","","","","","","","","",""
"","time_out","","html-keyboard-response","171","236220","0.0-1.0-233.0-0.0","0","0","56422","","null","","","null","25","","","","","","","","","","","","","","","",""
"","ITI","","html-keyboard-response","172","237225","0.0-1.0-234.0","0","0","56422","","null","","","null","25","","","","","","","","","","","","","","","NaN",""
"","S1","","html-keyboard-response","173","237478","0.0-1.0-236.0","0","0","56422","","null","","","null","26","","","","","","","","","","","","","","","",""
"","ISI","","html-keyboard-response","174","239481","0.0-1.0-237.0","0","0","56422","","null","","","null","26","NaN","","","","","","","","","","","","","","",""
"","S2","","html-keyboard-response","175","239735","0.0-1.0-238.0","0","0","56422","","null","","","null","26","","NaN","","","","","","","","","","","","","",""
"","response","","html-keyboard-response","176","240297","0.0-1.0-239.0-0.0","0","0","56422","","559","","","75","26","","","1","26","training","adjacent","CD","3","4","R.jpg","O.jpg","0","1","0","",""
"","feedback","","html-keyboard-response","177","241300","0.0-1.0-240.0-0.0","0","0","56422","","null","","","null","26","","","","","","","","","","","","","","","",""
"","time_out","","html-keyboard-response","178","243305","0.0-1.0-242.0-0.0","0","0","56422","","null","","","null","26","","","","","","","","","","","","","","","",""
"","ITI","","html-keyboard-response","179","244310","0.0-1.0-243.0","0","0","56422","","null","","","null","26","","","","","","","","","","","","","","","NaN",""
"","S1","","html-keyboard-response","180","244565","0.0-1.0-245.0","0","0","56422","","null","","","null","27","","","","","","","","","","","","","","","",""
"","ISI","","html-keyboard-response","181","246570","0.0-1.0-246.0","0","0","56422","","null","","","null","27","NaN","","","","","","","","","","","","","","",""
"","S2","","html-keyboard-response","182","246825","0.0-1.0-247.0","0","0","56422","","null","","","null","27","","NaN","","","","","","","","","","","","","",""
"","response","","html-keyboard-response","183","247305","0.0-1.0-248.0-0.0","0","0","56422","","477","","","75","27","","","1","27","training","adjacent","AB","1","2","L.jpg","Q.jpg","0","1","0","",""
"","feedback","","html-keyboard-response","184","248308","0.0-1.0-249.0-0.0","0","0","56422","","null","","","null","27","","","","","","","","","","","","","","","",""
"","time_out","","html-keyboard-response","185","250311","0.0-1.0-251.0-0.0","0","0","56422","","null","","","null","27","","","","","","","","","","","","","","","",""
"","ITI","","html-keyboard-response","186","251313","0.0-1.0-252.0","0","0","56422","","null","","","null","27","","","","","","","","","","","","","","","NaN",""
"","S1","","html-keyboard-response","187","251565","0.0-1.0-254.0","0","0","56422","","null","","","null","28","","","","","","","","","","","","","","","",""
"","ISI","","html-keyboard-response","188","253569","0.0-1.0-255.0","0","0","56422","","null","","","null","28","NaN","","","","","","","","","","","","","","",""
"","S2","","html-keyboard-response","189","253825","0.0-1.0-256.0","0","0","56422","","null","","","null","28","","NaN","","","","","","","","","","","","","",""
"","response","","html-keyboard-response","190","254254","0.0-1.0-257.0-0.0","0","0","56422","","425","","","75","28","","","1","28","training","adjacent","ED","5","4","N.jpg","O.jpg","0","0","1","",""
"","feedback","","html-keyboard-response","191","255257","0.0-1.0-258.0-0.0","0","0","56422","","null","","","null","28","","","","","","","","","","","","","","","",""
"","ITI","","html-keyboard-response","192","256261","0.0-1.0-261.0","0","0","56422","","null","","","null","28","","","","","","","","","","","","","","","NaN",""
"","S1","","html-keyboard-response","193","256517","0.0-1.0-263.0","0","0","56422","","null","","","null","29","","","","","","","","","","","","","","","",""
"","ISI","","html-keyboard-response","194","258521","0.0-1.0-264.0","0","0","56422","","null","","","null","29","NaN","","","","","","","","","","","","","","",""
"","S2","","html-keyboard-response","195","258777","0.0-1.0-265.0","0","0","56422","","null","","","null","29","","NaN","","","","","","","","","","","","","",""
"","response","","html-keyboard-response","196","259344","0.0-1.0-266.0-0.0","0","0","56422","","565","","","75","29","","","1","29","training","adjacent","BC","2","3","Q.jpg","R.jpg","0","1","0","",""
"","feedback","","html-keyboard-response","197","260358","0.0-1.0-267.0-0.0","0","0","56422","","null","","","null","29","","","","","","","","","","","","","","","",""
"","time_out","","html-keyboard-response","198","262361","0.0-1.0-269.0-0.0","0","0","56422","","null","","","null","29","","","","","","","","","","","","","","","",""
"","ITI","","html-keyboard-response","199","263364","0.0-1.0-270.0","0","0","56422","","null","","","null","29","","","","","","","","","","","","","","","NaN",""
"","S1","","html-keyboard-response","200","263620","0.0-1.0-272.0","0","0","56422","","null","","","null","30","","","","","","","","","","","","","","","",""
"","ISI","","html-keyboard-response","201","265625","0.0-1.0-273.0","0","0","56422","","null","","","null","30","NaN","","","","","","","","","","","","","","",""
"","S2","","html-keyboard-response","202","265880","0.0-1.0-274.0","0","0","56422","","null","","","null","30","","NaN","","","","","","","","","","","","","",""
"","response","","html-keyboard-response","203","266356","0.0-1.0-275.0-0.0","0","0","56422","","473","","","75","30","","","1","30","training","adjacent","EF","5","6","N.jpg","P.jpg","0","1","0","",""
"","feedback","","html-keyboard-response","204","267359","0.0-1.0-276.0-0.0","0","0","56422","","null","","","null","30","","","","","","","","","","","","","","","",""
"","time_out","","html-keyboard-response","205","269361","0.0-1.0-278.0-0.0","0","0","56422","","null","","","null","30","","","","","","","","","","","","","","","",""
"","ITI","","html-keyboard-response","206","270363","0.0-1.0-279.0","0","0","56422","","null","","","null","30","","","","","","","","","","","","","","","NaN",""
"","S1","","html-keyboard-response","207","270617","0.0-1.0-281.0","0","0","56422","","null","","","null","31","","","","","","","","","","","","","","","",""
"","ISI","","html-keyboard-response","208","272621","0.0-1.0-282.0","0","0","56422","","null","","","null","31","NaN","","","","","","","","","","","","","","",""
"","S2","","html-keyboard-response","209","272875","0.0-1.0-283.0","0","0","56422","","null","","","null","31","","NaN","","","","","","","","","","","","","",""
"","response","","html-keyboard-response","210","273472","0.0-1.0-284.0-0.0","0","0","56422","","593","","","68","31","","","1","31","training","adjacent","FG","6","7","P.jpg","M.jpg","1","1","1","",""
"","feedback","","html-keyboard-response","211","274476","0.0-1.0-285.0-0.0","0","0","56422","","null","","","null","31","","","","","","","","","","","","","","","",""
"","ITI","","html-keyboard-response","212","275479","0.0-1.0-288.0","0","0","56422","","null","","","null","31","","","","","","","","","","","","","","","NaN",""
"","S1","","html-keyboard-response","213","275732","0.0-1.0-290.0","0","0","56422","","null","","","null","32","","","","","","","","","","","","","","","",""
"","ISI","","html-keyboard-response","214","277736","0.0-1.0-291.0","0","0","56422","","null","","","null","32","NaN","","","","","","","","","","","","","","",""
"","S2","","html-keyboard-response","215","277991","0.0-1.0-292.0","0","0","56422","","null","","","null","32","","NaN","","","","","","","","","","","","","",""
"","response","","html-keyboard-response","216","278752","0.0-1.0-293.0-0.0","0","0","56422","","759","","","75","32","","","1","32","training","adjacent","GF","7","6","M.jpg","P.jpg","0","0","1","",""
"","feedback","","html-keyboard-response","217","279755","0.0-1.0-294.0-0.0","0","0","56422","","null","","","null","32","","","","","","","","","","","","","","","",""
"","ITI","","html-keyboard-response","218","280759","0.0-1.0-297.0","0","0","56422","","null","","","null","32","","","","","","","","","","","","","","","NaN",""
"","S1","","html-keyboard-response","219","281014","0.0-1.0-299.0","0","0","56422","","null","","","null","33","","","","","","","","","","","","","","","",""
"","ISI","","html-keyboard-response","220","283019","0.0-1.0-300.0","0","0","56422","","null","","","null","33","NaN","","","","","","","","","","","","","","",""
"","S2","","html-keyboard-response","221","283275","0.0-1.0-301.0","0","0","56422","","null","","","null","33","","NaN","","","","","","","","","","","","","",""
"","response","","html-keyboard-response","222","283880","0.0-1.0-302.0-0.0","0","0","56422","","603","","","75","33","","","1","33","training","adjacent","EF","5","6","N.jpg","P.jpg","0","1","0","",""
"","feedback","","html-keyboard-response","223","284886","0.0-1.0-303.0-0.0","0","0","56422","","null","","","null","33","","","","","","","","","","","","","","","",""
"","time_out","","html-keyboard-response","224","286889","0.0-1.0-305.0-0.0","0","0","56422","","null","","","null","33","","","","","","","","","","","","","","","",""
"","ITI","","html-keyboard-response","225","287894","0.0-1.0-306.0","0","0","56422","","null","","","null","33","","","","","","","","","","","","","","","NaN",""
"","S1","","html-keyboard-response","226","288149","0.0-1.0-308.0","0","0","56422","","null","","","null","34","","","","","","","","","","","","","","","",""
"","ISI","","html-keyboard-response","227","290154","0.0-1.0-309.0","0","0","56422","","null","","","null","34","NaN","","","","","","","","","","","","","","",""
"","S2","","html-keyboard-response","228","290408","0.0-1.0-310.0","0","0","56422","","null","","","null","34","","NaN","","","","","","","","","","","","","",""
"","response","","html-keyboard-response","229","290880","0.0-1.0-311.0-0.0","0","0","56422","","469","","","68","34","","","1","34","training","adjacent","CB","3","2","R.jpg","Q.jpg","1","0","0","",""
"","feedback","","html-keyboard-response","230","291882","0.0-1.0-312.0-0.0","0","0","56422","","null","","","null","34","","","","","","","","","","","","","","","",""
"","time_out","","html-keyboard-response","231","293886","0.0-1.0-314.0-0.0","0","0","56422","","null","","","null","34","","","","","","","","","","","","","","","",""
"","ITI","","html-keyboard-response","232","294890","0.0-1.0-315.0","0","0","56422","","null","","","null","34","","","","","","","","","","","","","","","NaN",""
"","S1","","html-keyboard-response","233","295146","0.0-1.0-317.0","0","0","56422","","null","","","null","35","","","","","","","","","","","","","","","",""
"","ISI","","html-keyboard-response","234","297150","0.0-1.0-318.0","0","0","56422","","null","","","null","35","NaN","","","","","","","","","","","","","","",""
"","S2","","html-keyboard-response","235","297404","0.0-1.0-319.0","0","0","56422","","null","","","null","35","","NaN","","","","","","","","","","","","","",""
"","response","","html-keyboard-response","236","298198","0.0-1.0-320.0-0.0","0","0","56422","","790","","","68","35","","","1","35","training","adjacent","AB","1","2","L.jpg","Q.jpg","1","1","1","",""
"","feedback","","html-keyboard-response","237","299203","0.0-1.0-321.0-0.0","0","0","56422","","null","","","null","35","","","","","","","","","","","","","","","",""
"","ITI","","html-keyboard-response","238","300208","0.0-1.0-324.0","0","0","56422","","null","","","null","35","","","","","","","","","","","","","","","NaN",""
"","S1","","html-keyboard-response","239","300463","0.0-1.0-326.0","0","0","56422","","null","","","null","36","","","","","","","","","","","","","","","",""
"","ISI","","html-keyboard-response","240","302468","0.0-1.0-327.0","0","0","56422","","null","","","null","36","NaN","","","","","","","","","","","","","","",""
"","S2","","html-keyboard-response","241","302722","0.0-1.0-328.0","0","0","56422","","null","","","null","36","","NaN","","","","","","","","","","","","","",""
"","response","","html-keyboard-response","242","303170","0.0-1.0-329.0-0.0","0","0","56422","","444","","","68","36","","","1","36","training","adjacent","GF","7","6","M.jpg","P.jpg","1","0","0","",""
"","feedback","","html-keyboard-response","243","304176","0.0-1.0-330.0-0.0","0","0","56422","","null","","","null","36","","","","","","","","","","","","","","","",""
"","time_out","","html-keyboard-response","244","306181","0.0-1.0-332.0-0.0","0","0","56422","","null","","","null","36","","","","","","","","","","","","","","","",""
"","ITI","","html-keyboard-response","245","307186","0.0-1.0-333.0","0","0","56422","","null","","","null","36","","","","","","","","","","","","","","","NaN",""
"","S1","","html-keyboard-response","246","307442","0.0-1.0-335.0","0","0","56422","","null","","","null","37","","","","","","","","","","","","","","","",""
"","ISI","","html-keyboard-response","247","309444","0.0-1.0-336.0","0","0","56422","","null","","","null","37","NaN","","","","","","","","","","","","","","",""
"","S2","","html-keyboard-response","248","309697","0.0-1.0-337.0","0","0","56422","","null","","","null","37","","NaN","","","","","","","","","","","","","",""
"","response","","html-keyboard-response","249","310359","0.0-1.0-338.0-0.0","0","0","56422","","659","","","75","37","","","1","37","training","adjacent","CD","3","4","R.jpg","O.jpg","0","1","0","",""
"","feedback","","html-keyboard-response","250","311364","0.0-1.0-339.0-0.0","0","0","56422","","null","","","null","37","","","","","","","","","","","","","","","",""
"","time_out","","html-keyboard-response","251","313366","0.0-1.0-341.0-0.0","0","0","56422","","null","","","null","37","","","","","","","","","","","","","","","",""
"","ITI","","html-keyboard-response","252","314370","0.0-1.0-342.0","0","0","56422","","null","","","null","37","","","","","","","","","","","","","","","NaN",""
"","S1","","html-keyboard-response","253","314626","0.0-1.0-344.0","0","0","56422","","null","","","null","38","","","","","","","","","","","","","","","",""
"","ISI","","html-keyboard-response","254","316631","0.0-1.0-345.0","0","0","56422","","null","","","null","38","NaN","","","","","","","","","","","","","","",""
"","S2","","html-keyboard-response","255","316884","0.0-1.0-346.0","0","0","56422","","null","","","null","38","","NaN","","","","","","","","","","","","","",""
"","response","","html-keyboard-response","256","317448","0.0-1.0-347.0-0.0","0","0","56422","","561","","","75","38","","","1","38","training","adjacent","ED","5","4","N.jpg","O.jpg","0","0","1","",""
"","feedback","","html-keyboard-response","257","318453","0.0-1.0-348.0-0.0","0","0","56422","","null","","","null","38","","","","","","","","","","","","","","","",""
"","ITI","","html-keyboard-response","258","319457","0.0-1.0-351.0","0","0","56422","","null","","","null","38","","","","","","","","","","","","","","","NaN",""
"","S1","","html-keyboard-response","259","319711","0.0-1.0-353.0","0","0","56422","","null","","","null","39","","","","","","","","","","","","","","","",""
"","ISI","","html-keyboard-response","260","321715","0.0-1.0-354.0","0","0","56422","","null","","","null","39","NaN","","","","","","","","","","","","","","",""
"","S2","","html-keyboard-response","261","321970","0.0-1.0-355.0","0","0","56422","","null","","","null","39","","NaN","","","","","","","","","","","","","",""
"","response","","html-keyboard-response","262","322648","0.0-1.0-356.0-0.0","0","0","56422","","676","","","75","39","","","1","39","training","adjacent","BA","2","1","Q.jpg","L.jpg","0","0","1","",""
"","feedback","","html-keyboard-response","263","323652","0.0-1.0-357.0-0.0","0","0","56422","","null","","","null","39","","","","","","","","","","","","","","","",""
"","ITI","","html-keyboard-response","264","324656","0.0-1.0-360.0","0","0","56422","","null","","","null","39","","","","","","","","","","","","","","","NaN",""
"","S1","","html-keyboard-response","265","324912","0.0-1.0-362.0","0","0","56422","","null","","","null","40","","","","","","","","","","","","","","","",""
"","ISI","","html-keyboard-response","266","326916","0.0-1.0-363.0","0","0","56422","","null","","","null","40","NaN","","","","","","","","","","","","","","",""
"","S2","","html-keyboard-response","267","327171","0.0-1.0-364.0","0","0","56422","","null","","","null","40","","NaN","","","","","","","","","","","","","",""
"","response","","html-keyboard-response","268","328257","0.0-1.0-365.0-0.0","0","0","56422","","1083","","","68","40","","","1","40","training","adjacent","CB","3","2","R.jpg","Q.jpg","1","0","0","",""
"","feedback","","html-keyboard-response","269","329261","0.0-1.0-366.0-0.0","0","0","56422","","null","","","null","40","","","","","","","","","","","","","","","",""
"","time_out","","html-keyboard-response","270","331263","0.0-1.0-368.0-0.0","0","0","56422","","null","","","null","40","","","","","","","","","","","","","","","",""
"","ITI","","html-keyboard-response","271","332278","0.0-1.0-369.0","0","0","56422","","null","","","null","40","","","","","","","","","","","","","","","NaN",""
"","S1","","html-keyboard-response","272","332532","0.0-1.0-371.0","0","0","56422","","null","","","null","41","","","","","","","","","","","","","","","",""
"","ISI","","html-keyboard-response","273","334536","0.0-1.0-372.0","0","0","56422","","null","","","null","41","NaN","","","","","","","","","","","","","","",""
"","S2","","html-keyboard-response","274","334791","0.0-1.0-373.0","0","0","56422","","null","","","null","41","","NaN","","","","","","","","","","","","","",""
"","response","","html-keyboard-response","275","335534","0.0-1.0-374.0-0.0","0","0","56422","","740","","","75","41","","","1","41","training","adjacent","DE","4","5","O.jpg","N.jpg","0","1","0","",""
"","feedback","","html-keyboard-response","276","336540","0.0-1.0-375.0-0.0","0","0","56422","","null","","","null","41","","","","","","","","","","","","","","","",""
"","time_out","","html-keyboard-response","277","338545","0.0-1.0-377.0-0.0","0","0","56422","","null","","","null","41","","","","","","","","","","","","","","","",""
"","ITI","","html-keyboard-response","278","339549","0.0-1.0-378.0","0","0","56422","","null","","","null","41","","","","","","","","","","","","","","","NaN",""
"","S1","","html-keyboard-response","279","339804","0.0-1.0-380.0","0","0","56422","","null","","","null","42","","","","","","","","","","","","","","","",""
"","ISI","","html-keyboard-response","280","341808","0.0-1.0-381.0","0","0","56422","","null","","","null","42","NaN","","","","","","","","","","","","","","",""
"","S2","","html-keyboard-response","281","342062","0.0-1.0-382.0","0","0","56422","","null","","","null","42","","NaN","","","","","","","","","","","","","",""
"","response","","html-keyboard-response","282","342475","0.0-1.0-383.0-0.0","0","0","56422","","411","","","68","42","","","1","42","training","adjacent","BA","2","1","Q.jpg","L.jpg","1","0","0","",""
"","feedback","","html-keyboard-response","283","343478","0.0-1.0-384.0-0.0","0","0","56422","","null","","","null","42","","","","","","","","","","","","","","","",""
"","time_out","","html-keyboard-response","284","345481","0.0-1.0-386.0-0.0","0","0","56422","","null","","","null","42","","","","","","","","","","","","","","","",""
"","ITI","","html-keyboard-response","285","346483","0.0-1.0-387.0","0","0","56422","","null","","","null","42","","","","","","","","","","","","","","","NaN",""
"","S1","","html-keyboard-response","286","346737","0.0-1.0-389.0","0","0","56422","","null","","","null","43","","","","","","","","","","","","","","","",""
"","ISI","","html-keyboard-response","287","348741","0.0-1.0-390.0","0","0","56422","","null","","","null","43","NaN","","","","","","","","","","","","","","",""
"","S2","","html-keyboard-response","288","348995","0.0-1.0-391.0","0","0","56422","","null","","","null","43","","NaN","","","","","","","","","","","","","",""
"","response","","html-keyboard-response","289","349445","0.0-1.0-392.0-0.0","0","0","56422","","446","","","68","43","","","1","43","training","adjacent","DC","4","3","O.jpg","R.jpg","1","0","0","",""
"","feedback","","html-keyboard-response","290","350449","0.0-1.0-393.0-0.0","0","0","56422","","null","","","null","43","","","","","","","","","","","","","","","",""
"","time_out","","html-keyboard-response","291","352455","0.0-1.0-395.0-0.0","0","0","56422","","null","","","null","43","","","","","","","","","","","","","","","",""
"","ITI","","html-keyboard-response","292","353460","0.0-1.0-396.0","0","0","56422","","null","","","null","43","","","","","","","","","","","","","","","NaN",""
"","S1","","html-keyboard-response","293","353714","0.0-1.0-398.0","0","0","56422","","null","","","null","44","","","","","","","","","","","","","","","",""
"","ISI","","html-keyboard-response","294","355719","0.0-1.0-399.0","0","0","56422","","null","","","null","44","NaN","","","","","","","","","","","","","","",""
"","S2","","html-keyboard-response","295","355973","0.0-1.0-400.0","0","0","56422","","null","","","null","44","","NaN","","","","","","","","","","","","","",""
"","response","","html-keyboard-response","296","356857","0.0-1.0-401.0-0.0","0","0","56422","","882","","","68","44","","","1","44","training","adjacent","GF","7","6","M.jpg","P.jpg","1","0","0","",""
"","feedback","","html-keyboard-response","297","357862","0.0-1.0-402.0-0.0","0","0","56422","","null","","","null","44","","","","","","","","","","","","","","","",""
"","time_out","","html-keyboard-response","298","359865","0.0-1.0-404.0-0.0","0","0","56422","","null","","","null","44","","","","","","","","","","","","","","","",""
"","ITI","","html-keyboard-response","299","360869","0.0-1.0-405.0","0","0","56422","","null","","","null","44","","","","","","","","","","","","","","","NaN",""
"","S1","","html-keyboard-response","300","361123","0.0-1.0-407.0","0","0","56422","","null","","","null","45","","","","","","","","","","","","","","","",""
"","ISI","","html-keyboard-response","301","363126","0.0-1.0-408.0","0","0","56422","","null","","","null","45","NaN","","","","","","","","","","","","","","",""
"","S2","","html-keyboard-response","302","363379","0.0-1.0-409.0","0","0","56422","","null","","","null","45","","NaN","","","","","","","","","","","","","",""
"","response","","html-keyboard-response","303","364057","0.0-1.0-410.0-0.0","0","0","56422","","674","","","75","45","","","1","45","training","adjacent","AB","1","2","L.jpg","Q.jpg","0","1","0","",""
"","feedback","","html-keyboard-response","304","365062","0.0-1.0-411.0-0.0","0","0","56422","","null","","","null","45","","","","","","","","","","","","","","","",""
"","time_out","","html-keyboard-response","305","367068","0.0-1.0-413.0-0.0","0","0","56422","","null","","","null","45","","","","","","","","","","","","","","","",""
"","ITI","","html-keyboard-response","306","368072","0.0-1.0-414.0","0","0","56422","","null","","","null","45","","","","","","","","","","","","","","","NaN",""
"","S1","","html-keyboard-response","307","368329","0.0-1.0-416.0","0","0","56422","","null","","","null","46","","","","","","","","","","","","","","","",""
"","ISI","","html-keyboard-response","308","370333","0.0-1.0-417.0","0","0","56422","","null","","","null","46","NaN","","","","","","","","","","","","","","",""
"","S2","","html-keyboard-response","309","370588","0.0-1.0-418.0","0","0","56422","","null","","","null","46","","NaN","","","","","","","","","","","","","",""
"","response","","html-keyboard-response","310","371293","0.0-1.0-419.0-0.0","0","0","56422","","703","","","75","46","","","1","46","training","adjacent","FE","6","5","P.jpg","N.jpg","0","0","1","",""
"","feedback","","html-keyboard-response","311","372298","0.0-1.0-420.0-0.0","0","0","56422","","null","","","null","46","","","","","","","","","","","","","","","",""
"","ITI","","html-keyboard-response","312","373302","0.0-1.0-423.0","0","0","56422","","null","","","null","46","","","","","","","","","","","","","","","NaN",""
"","S1","","html-keyboard-response","313","373557","0.0-1.0-425.0","0","0","56422","","null","","","null","47","","","","","","","","","","","","","","","",""
"","ISI","","html-keyboard-response","314","375562","0.0-1.0-426.0","0","0","56422","","null","","","null","47","NaN","","","","","","","","","","","","","","",""
"","S2","","html-keyboard-response","315","375817","0.0-1.0-427.0","0","0","56422","","null","","","null","47","","NaN","","","","","","","","","","","","","",""
"","response","","html-keyboard-response","316","376697","0.0-1.0-428.0-0.0","0","0","56422","","877","","","75","47","","","1","47","training","adjacent","CB","3","2","R.jpg","Q.jpg","0","0","1","",""
"","feedback","","html-keyboard-response","317","377702","0.0-1.0-429.0-0.0","0","0","56422","","null","","","null","47","","","","","","","","","","","","","","","",""
"","ITI","","html-keyboard-response","318","378708","0.0-1.0-432.0","0","0","56422","","null","","","null","47","","","","","","","","","","","","","","","NaN",""
"","block_over","","html-keyboard-response","319","383613","0.0-1.0-433.0-0.0","0","0","56422","","4903","","","32","47","","","","","","","","","","","","","","","",""
"","S1","","html-keyboard-response","320","383869","0.0-1.0-434.0","0","0","56422","","null","","","null","48","","","","","","","","","","","","","","","",""
"","ISI","","html-keyboard-response","321","385873","0.0-1.0-435.0","0","0","56422","","null","","","null","48","NaN","","","","","","","","","","","","","","",""
"","S2","","html-keyboard-response","322","386128","0.0-1.0-436.0","0","0","56422","","null","","","null","48","","NaN","","","","","","","","","","","","","",""
"","response","","html-keyboard-response","323","386589","0.0-1.0-437.0-0.0","0","0","56422","","457","","","75","48","","","2","48","training","adjacent","ED","5","4","N.jpg","O.jpg","0","0","1","",""
"","feedback","","html-keyboard-response","324","387594","0.0-1.0-438.0-0.0","0","0","56422","","null","","","null","48","","","","","","","","","","","","","","","",""
"","ITI","","html-keyboard-response","325","388598","0.0-1.0-441.0","0","0","56422","","null","","","null","48","","","","","","","","","","","","","","","NaN",""
"","S1","","html-keyboard-response","326","388852","0.0-1.0-443.0","0","0","56422","","null","","","null","49","","","","","","","","","","","","","","","",""
"","ISI","","html-keyboard-response","327","390856","0.0-1.0-444.0","0","0","56422","","null","","","null","49","NaN","","","","","","","","","","","","","","",""
"","S2","","html-keyboard-response","328","391110","0.0-1.0-445.0","0","0","56422","","null","","","null","49","","NaN","","","","","","","","","","","","","",""
"","response","","html-keyboard-response","329","391811","0.0-1.0-446.0-0.0","0","0","56422","","698","","","75","49","","","2","49","training","adjacent","ED","5","4","N.jpg","O.jpg","0","0","1","",""
"","feedback","","html-keyboard-response","330","392817","0.0-1.0-447.0-0.0","0","0","56422","","null","","","null","49","","","","","","","","","","","","","","","",""
"","ITI","","html-keyboard-response","331","393820","0.0-1.0-450.0","0","0","56422","","null","","","null","49","","","","","","","","","","","","","","","NaN",""
"","S1","","html-keyboard-response","332","394074","0.0-1.0-452.0","0","0","56422","","null","","","null","50","","","","","","","","","","","","","","","",""
"","ISI","","html-keyboard-response","333","396078","0.0-1.0-453.0","0","0","56422","","null","","","null","50","NaN","","","","","","","","","","","","","","",""
"","S2","","html-keyboard-response","334","396332","0.0-1.0-454.0","0","0","56422","","null","","","null","50","","NaN","","","","","","","","","","","","","",""
"","response","","html-keyboard-response","335","397199","0.0-1.0-455.0-0.0","0","0","56422","","863","","","75","50","","","2","50","training","adjacent","CB","3","2","R.jpg","Q.jpg","0","0","1","",""
"","feedback","","html-keyboard-response","336","398204","0.0-1.0-456.0-0.0","0","0","56422","","null","","","null","50","","","","","","","","","","","","","","","",""
"","ITI","","html-keyboard-response","337","399209","0.0-1.0-459.0","0","0","56422","","null","","","null","50","","","","","","","","","","","","","","","NaN",""
"","S1","","html-keyboard-response","338","399464","0.0-1.0-461.0","0","0","56422","","null","","","null","51","","","","","","","","","","","","","","","",""
"","ISI","","html-keyboard-response","339","401466","0.0-1.0-462.0","0","0","56422","","null","","","null","51","NaN","","","","","","","","","","","","","","",""
"","S2","","html-keyboard-response","340","401720","0.0-1.0-463.0","0","0","56422","","null","","","null","51","","NaN","","","","","","","","","","","","","",""
"","response","","html-keyboard-response","341","402040","0.0-1.0-464.0-0.0","0","0","56422","","316","","","75","51","","","2","51","training","adjacent","CB","3","2","R.jpg","Q.jpg","0","0","1","",""
"","feedback","","html-keyboard-response","342","403046","0.0-1.0-465.0-0.0","0","0","56422","","null","","","null","51","","","","","","","","","","","","","","","",""
"","ITI","","html-keyboard-response","343","404050","0.0-1.0-468.0","0","0","56422","","null","","","null","51","","","","","","","","","","","","","","","NaN",""
"","S1","","html-keyboard-response","344","404304","0.0-1.0-470.0","0","0","56422","","null","","","null","52","","","","","","","","","","","","","","","",""
"","ISI","","html-keyboard-response","345","406308","0.0-1.0-471.0","0","0","56422","","null","","","null","52","NaN","","","","","","","","","","","","","","",""
"","S2","","html-keyboard-response","346","406562","0.0-1.0-472.0","0","0","56422","","null","","","null","52","","NaN","","","","","","","","","","","","","",""
"","response","","html-keyboard-response","347","407446","0.0-1.0-473.0-0.0","0","0","56422","","882","","","68","52","","","2","52","training","adjacent","DC","4","3","O.jpg","R.jpg","1","0","0","",""
"","feedback","","html-keyboard-response","348","408455","0.0-1.0-474.0-0.0","0","0","56422","","null","","","null","52","","","","","","","","","","","","","","","",""
"","time_out","","html-keyboard-response","349","410459","0.0-1.0-476.0-0.0","0","0","56422","","null","","","null","52","","","","","","","","","","","","","","","",""
"","ITI","","html-keyboard-response","350","411463","0.0-1.0-477.0","0","0","56422","","null","","","null","52","","","","","","","","","","","","","","","NaN",""
"","S1","","html-keyboard-response","351","411727","0.0-1.0-479.0","0","0","56422","","null","","","null","53","","","","","","","","","","","","","","","",""
"","ISI","","html-keyboard-response","352","413732","0.0-1.0-480.0","0","0","56422","","null","","","null","53","NaN","","","","","","","","","","","","","","",""
"","S2","","html-keyboard-response","353","413987","0.0-1.0-481.0","0","0","56422","","null","","","null","53","","NaN","","","","","","","","","","","","","",""
"","response","","html-keyboard-response","354","414502","0.0-1.0-482.0-0.0","0","0","56422","","511","","","75","53","","","2","53","training","adjacent","FG","6","7","P.jpg","M.jpg","0","1","0","",""
"","feedback","","html-keyboard-response","355","415505","0.0-1.0-483.0-0.0","0","0","56422","","null","","","null","53","","","","","","","","","","","","","","","",""
"","time_out","","html-keyboard-response","356","417508","0.0-1.0-485.0-0.0","0","0","56422","","null","","","null","53","","","","","","","","","","","","","","","",""
"","ITI","","html-keyboard-response","357","418513","0.0-1.0-486.0","0","0","56422","","null","","","null","53","","","","","","","","","","","","","","","NaN",""
"","S1","","html-keyboard-response","358","418766","0.0-1.0-488.0","0","0","56422","","null","","","null","54","","","","","","","","","","","","","","","",""
"","ISI","","html-keyboard-response","359","420770","0.0-1.0-489.0","0","0","56422","","null","","","null","54","NaN","","","","","","","","","","","","","","",""
"","S2","","html-keyboard-response","360","421025","0.0-1.0-490.0","0","0","56422","","null","","","null","54","","NaN","","","","","","","","","","","","","",""
"","response","","html-keyboard-response","361","421345","0.0-1.0-491.0-0.0","0","0","56422","","318","","","75","54","","","2","54","training","adjacent","AB","1","2","L.jpg","Q.jpg","0","1","0","",""
"","feedback","","html-keyboard-response","362","422349","0.0-1.0-492.0-0.0","0","0","56422","","null","","","null","54","","","","","","","","","","","","","","","",""
"","time_out","","html-keyboard-response","363","424355","0.0-1.0-494.0-0.0","0","0","56422","","null","","","null","54","","","","","","","","","","","","","","","",""
"","ITI","","html-keyboard-response","364","425358","0.0-1.0-495.0","0","0","56422","","null","","","null","54","","","","","","","","","","","","","","","NaN",""
"","S1","","html-keyboard-response","365","425613","0.0-1.0-497.0","0","0","56422","","null","","","null","55","","","","","","","","","","","","","","","",""
"","ISI","","html-keyboard-response","366","427615","0.0-1.0-498.0","0","0","56422","","null","","","null","55","NaN","","","","","","","","","","","","","","",""
"","S2","","html-keyboard-response","367","427870","0.0-1.0-499.0","0","0","56422","","null","","","null","55","","NaN","","","","","","","","","","","","","",""
"","response","","html-keyboard-response","368","428591","0.0-1.0-500.0-0.0","0","0","56422","","717","","","68","55","","","2","55","training","adjacent","BA","2","1","Q.jpg","L.jpg","1","0","0","",""
"","feedback","","html-keyboard-response","369","429596","0.0-1.0-501.0-0.0","0","0","56422","","null","","","null","55","","","","","","","","","","","","","","","",""
"","time_out","","html-keyboard-response","370","431601","0.0-1.0-503.0-0.0","0","0","56422","","null","","","null","55","","","","","","","","","","","","","","","",""
"","ITI","","html-keyboard-response","371","432604","0.0-1.0-504.0","0","0","56422","","null","","","null","55","","","","","","","","","","","","","","","NaN",""
"","S1","","html-keyboard-response","372","432859","0.0-1.0-506.0","0","0","56422","","null","","","null","56","","","","","","","","","","","","","","","",""
"","ISI","","html-keyboard-response","373","434863","0.0-1.0-507.0","0","0","56422","","null","","","null","56","NaN","","","","","","","","","","","","","","",""
"","S2","","html-keyboard-response","374","435117","0.0-1.0-508.0","0","0","56422","","null","","","null","56","","NaN","","","","","","","","","","","","","",""
"","response","","html-keyboard-response","375","436156","0.0-1.0-509.0-0.0","0","0","56422","","1038","","","75","56","","","2","56","training","adjacent","EF","5","6","N.jpg","P.jpg","0","1","0","",""
"","feedback","","html-keyboard-response","376","437159","0.0-1.0-510.0-0.0","0","0","56422","","null","","","null","56","","","","","","","","","","","","","","","",""
"","time_out","","html-keyboard-response","377","439163","0.0-1.0-512.0-0.0","0","0","56422","","null","","","null","56","","","","","","","","","","","","","","","",""
"","ITI","","html-keyboard-response","378","440165","0.0-1.0-513.0","0","0","56422","","null","","","null","56","","","","","","","","","","","","","","","NaN",""
"","S1","","html-keyboard-response","379","440419","0.0-1.0-515.0","0","0","56422","","null","","","null","57","","","","","","","","","","","","","","","",""
"","ISI","","html-keyboard-response","380","442423","0.0-1.0-516.0","0","0","56422","","null","","","null","57","NaN","","","","","","","","","","","","","","",""
"","S2","","html-keyboard-response","381","442679","0.0-1.0-517.0","0","0","56422","","null","","","null","57","","NaN","","","","","","","","","","","","","",""
"","response","","html-keyboard-response","382","443609","0.0-1.0-518.0-0.0","0","0","56422","","926","","","68","57","","","2","57","training","adjacent","FE","6","5","P.jpg","N.jpg","1","0","0","",""
"","feedback","","html-keyboard-response","383","444614","0.0-1.0-519.0-0.0","0","0","56422","","null","","","null","57","","","","","","","","","","","","","","","",""
"","time_out","","html-keyboard-response","384","446620","0.0-1.0-521.0-0.0","0","0","56422","","null","","","null","57","","","","","","","","","","","","","","","",""
"","ITI","","html-keyboard-response","385","447624","0.0-1.0-522.0","0","0","56422","","null","","","null","57","","","","","","","","","","","","","","","NaN",""
"","S1","","html-keyboard-response","386","447878","0.0-1.0-524.0","0","0","56422","","null","","","null","58","","","","","","","","","","","","","","","",""
"","ISI","","html-keyboard-response","387","449880","0.0-1.0-525.0","0","0","56422","","null","","","null","58","NaN","","","","","","","","","","","","","","",""
"","S2","","html-keyboard-response","388","450134","0.0-1.0-526.0","0","0","56422","","null","","","null","58","","NaN","","","","","","","","","","","","","",""
"","response","","html-keyboard-response","389","450887","0.0-1.0-527.0-0.0","0","0","56422","","749","","","68","58","","","2","58","training","adjacent","CD","3","4","R.jpg","O.jpg","1","1","1","",""
"","feedback","","html-keyboard-response","390","451891","0.0-1.0-528.0-0.0","0","0","56422","","null","","","null","58","","","","","","","","","","","","","","","",""
"","ITI","","html-keyboard-response","391","452894","0.0-1.0-531.0","0","0","56422","","null","","","null","58","","","","","","","","","","","","","","","NaN",""
"","S1","","html-keyboard-response","392","453157","0.0-1.0-533.0","0","0","56422","","null","","","null","59","","","","","","","","","","","","","","","",""
"","ISI","","html-keyboard-response","393","455161","0.0-1.0-534.0","0","0","56422","","null","","","null","59","NaN","","","","","","","","","","","","","","",""
"","S2","","html-keyboard-response","394","455417","0.0-1.0-535.0","0","0","56422","","null","","","null","59","","NaN","","","","","","","","","","","","","",""
"","response","","html-keyboard-response","395","456311","0.0-1.0-536.0-0.0","0","0","56422","","892","","","75","59","","","2","59","training","adjacent","DE","4","5","O.jpg","N.jpg","0","1","0","",""
"","feedback","","html-keyboard-response","396","457315","0.0-1.0-537.0-0.0","0","0","56422","","null","","","null","59","","","","","","","","","","","","","","","",""
"","time_out","","html-keyboard-response","397","459319","0.0-1.0-539.0-0.0","0","0","56422","","null","","","null","59","","","","","","","","","","","","","","","",""
"","ITI","","html-keyboard-response","398","460322","0.0-1.0-540.0","0","0","56422","","null","","","null","59","","","","","","","","","","","","","","","NaN",""
"","S1","","html-keyboard-response","399","460576","0.0-1.0-542.0","0","0","56422","","null","","","null","60","","","","","","","","","","","","","","","",""
"","ISI","","html-keyboard-response","400","462583","0.0-1.0-543.0","0","0","56422","","null","","","null","60","NaN","","","","","","","","","","","","","","",""
"","S2","","html-keyboard-response","401","462837","0.0-1.0-544.0","0","0","56422","","null","","","null","60","","NaN","","","","","","","","","","","","","",""
"","response","","html-keyboard-response","402","463445","0.0-1.0-545.0-0.0","0","0","56422","","605","","","68","60","","","2","60","training","adjacent","FE","6","5","P.jpg","N.jpg","1","0","0","",""
"","feedback","","html-keyboard-response","403","464449","0.0-1.0-546.0-0.0","0","0","56422","","null","","","null","60","","","","","","","","","","","","","","","",""
"","time_out","","html-keyboard-response","404","466453","0.0-1.0-548.0-0.0","0","0","56422","","null","","","null","60","","","","","","","","","","","","","","","",""
"","ITI","","html-keyboard-response","405","467458","0.0-1.0-549.0","0","0","56422","","null","","","null","60","","","","","","","","","","","","","","","NaN",""
"","S1","","html-keyboard-response","406","467711","0.0-1.0-551.0","0","0","56422","","null","","","null","61","","","","","","","","","","","","","","","",""
"","ISI","","html-keyboard-response","407","469713","0.0-1.0-552.0","0","0","56422","","null","","","null","61","NaN","","","","","","","","","","","","","","",""
"","S2","","html-keyboard-response","408","469965","0.0-1.0-553.0","0","0","56422","","null","","","null","61","","NaN","","","","","","","","","","","","","",""
"","response","","html-keyboard-response","409","470547","0.0-1.0-554.0-0.0","0","0","56422","","579","","","75","61","","","2","61","training","adjacent","CD","3","4","R.jpg","O.jpg","0","1","0","",""
"","feedback","","html-keyboard-response","410","471553","0.0-1.0-555.0-0.0","0","0","56422","","null","","","null","61","","","","","","","","","","","","","","","",""
"","time_out","","html-keyboard-response","411","473558","0.0-1.0-557.0-0.0","0","0","56422","","null","","","null","61","","","","","","","","","","","","","","","",""
"","ITI","","html-keyboard-response","412","474562","0.0-1.0-558.0","0","0","56422","","null","","","null","61","","","","","","","","","","","","","","","NaN",""
"","S1","","html-keyboard-response","413","474815","0.0-1.0-560.0","0","0","56422","","null","","","null","62","","","","","","","","","","","","","","","",""
"","ISI","","html-keyboard-response","414","476820","0.0-1.0-561.0","0","0","56422","","null","","","null","62","NaN","","","","","","","","","","","","","","",""
"","S2","","html-keyboard-response","415","477074","0.0-1.0-562.0","0","0","56422","","null","","","null","62","","NaN","","","","","","","","","","","","","",""
"","response","","html-keyboard-response","416","477732","0.0-1.0-563.0-0.0","0","0","56422","","652","","","68","62","","","2","62","training","adjacent","BC","2","3","Q.jpg","R.jpg","1","1","1","",""
"","feedback","","html-keyboard-response","417","478737","0.0-1.0-564.0-0.0","0","0","56422","","null","","","null","62","","","","","","","","","","","","","","","",""
"","ITI","","html-keyboard-response","418","479741","0.0-1.0-567.0","0","0","56422","","null","","","null","62","","","","","","","","","","","","","","","NaN",""
"","S1","","html-keyboard-response","419","479997","0.0-1.0-569.0","0","0","56422","","null","","","null","63","","","","","","","","","","","","","","","",""
"","ISI","","html-keyboard-response","420","482000","0.0-1.0-570.0","0","0","56422","","null","","","null","63","NaN","","","","","","","","","","","","","","",""
"","S2","","html-keyboard-response","421","482254","0.0-1.0-571.0","0","0","56422","","null","","","null","63","","NaN","","","","","","","","","","","","","",""
"","response","","html-keyboard-response","422","482737","0.0-1.0-572.0-0.0","0","0","56422","","479","","","68","63","","","2","63","training","adjacent","GF","7","6","M.jpg","P.jpg","1","0","0","",""
"","feedback","","html-keyboard-response","423","483743","0.0-1.0-573.0-0.0","0","0","56422","","null","","","null","63","","","","","","","","","","","","","","","",""
"","time_out","","html-keyboard-response","424","485750","0.0-1.0-575.0-0.0","0","0","56422","","null","","","null","63","","","","","","","","","","","","","","","",""
"","ITI","","html-keyboard-response","425","486754","0.0-1.0-576.0","0","0","56422","","null","","","null","63","","","","","","","","","","","","","","","NaN",""
"","S1","","html-keyboard-response","426","487009","0.0-1.0-578.0","0","0","56422","","null","","","null","64","","","","","","","","","","","","","","","",""
"","ISI","","html-keyboard-response","427","489013","0.0-1.0-579.0","0","0","56422","","null","","","null","64","NaN","","","","","","","","","","","","","","",""
"","S2","","html-keyboard-response","428","489268","0.0-1.0-580.0","0","0","56422","","null","","","null","64","","NaN","","","","","","","","","","","","","",""
"","response","","html-keyboard-response","429","489842","0.0-1.0-581.0-0.0","0","0","56422","","571","","","75","64","","","2","64","training","adjacent","GF","7","6","M.jpg","P.jpg","0","0","1","",""
"","feedback","","html-keyboard-response","430","490848","0.0-1.0-582.0-0.0","0","0","56422","","null","","","null","64","","","","","","","","","","","","","","","",""
"","ITI","","html-keyboard-response","431","491854","0.0-1.0-585.0","0","0","56422","","null","","","null","64","","","","","","","","","","","","","","","NaN",""
"","S1","","html-keyboard-response","432","492108","0.0-1.0-587.0","0","0","56422","","null","","","null","65","","","","","","","","","","","","","","","",""
"","ISI","","html-keyboard-response","433","494110","0.0-1.0-588.0","0","0","56422","","null","","","null","65","NaN","","","","","","","","","","","","","","",""
"","S2","","html-keyboard-response","434","494365","0.0-1.0-589.0","0","0","56422","","null","","","null","65","","NaN","","","","","","","","","","","","","",""
"","response","","html-keyboard-response","435","494800","0.0-1.0-590.0-0.0","0","0","56422","","430","","","75","65","","","2","65","training","adjacent","BC","2","3","Q.jpg","R.jpg","0","1","0","",""
"","feedback","","html-keyboard-response","436","495806","0.0-1.0-591.0-0.0","0","0","56422","","null","","","null","65","","","","","","","","","","","","","","","",""
"","time_out","","html-keyboard-response","437","497811","0.0-1.0-593.0-0.0","0","0","56422","","null","","","null","65","","","","","","","","","","","","","","","",""
"","ITI","","html-keyboard-response","438","498817","0.0-1.0-594.0","0","0","56422","","null","","","null","65","","","","","","","","","","","","","","","NaN",""
"","S1","","html-keyboard-response","439","499073","0.0-1.0-596.0","0","0","56422","","null","","","null","66","","","","","","","","","","","","","","","",""
"","ISI","","html-keyboard-response","440","501076","0.0-1.0-597.0","0","0","56422","","null","","","null","66","NaN","","","","","","","","","","","","","","",""
"","S2","","html-keyboard-response","441","501328","0.0-1.0-598.0","0","0","56422","","null","","","null","66","","NaN","","","","","","","","","","","","","",""
"","response","","html-keyboard-response","442","501750","0.0-1.0-599.0-0.0","0","0","56422","","419","","","68","66","","","2","66","training","adjacent","BC","2","3","Q.jpg","R.jpg","1","1","1","",""
"","feedback","","html-keyboard-response","443","502755","0.0-1.0-600.0-0.0","0","0","56422","","null","","","null","66","","","","","","","","","","","","","","","",""
"","ITI","","html-keyboard-response","444","503761","0.0-1.0-603.0","0","0","56422","","null","","","null","66","","","","","","","","","","","","","","","NaN",""
"","S1","","html-keyboard-response","445","504017","0.0-1.0-605.0","0","0","56422","","null","","","null","67","","","","","","","","","","","","","","","",""
"","ISI","","html-keyboard-response","446","506024","0.0-1.0-606.0","0","0","56422","","null","","","null","67","NaN","","","","","","","","","","","","","","",""
"","S2","","html-keyboard-response","447","506278","0.0-1.0-607.0","0","0","56422","","null","","","null","67","","NaN","","","","","","","","","","","","","",""
"","response","","html-keyboard-response","448","506867","0.0-1.0-608.0-0.0","0","0","56422","","586","","","75","67","","","2","67","training","adjacent","BA","2","1","Q.jpg","L.jpg","0","0","1","",""
"","feedback","","html-keyboard-response","449","507873","0.0-1.0-609.0-0.0","0","0","56422","","null","","","null","67","","","","","","","","","","","","","","","",""
"","ITI","","html-keyboard-response","450","508877","0.0-1.0-612.0","0","0","56422","","null","","","null","67","","","","","","","","","","","","","","","NaN",""
"","S1","","html-keyboard-response","451","509131","0.0-1.0-614.0","0","0","56422","","null","","","null","68","","","","","","","","","","","","","","","",""
"","ISI","","html-keyboard-response","452","511136","0.0-1.0-615.0","0","0","56422","","null","","","null","68","NaN","","","","","","","","","","","","","","",""
"","S2","","html-keyboard-response","453","511391","0.0-1.0-616.0","0","0","56422","","null","","","null","68","","NaN","","","","","","","","","","","","","",""
"","response","","html-keyboard-response","454","511614","0.0-1.0-617.0-0.0","0","0","56422","","218","","","75","68","","","2","68","training","adjacent","BA","2","1","Q.jpg","L.jpg","0","0","1","",""
"","feedback","","html-keyboard-response","455","512619","0.0-1.0-618.0-0.0","0","0","56422","","null","","","null","68","","","","","","","","","","","","","","","",""
"","ITI","","html-keyboard-response","456","513622","0.0-1.0-621.0","0","0","56422","","null","","","null","68","","","","","","","","","","","","","","","NaN",""
"","S1","","html-keyboard-response","457","513875","0.0-1.0-623.0","0","0","56422","","null","","","null","69","","","","","","","","","","","","","","","",""
"","ISI","","html-keyboard-response","458","515877","0.0-1.0-624.0","0","0","56422","","null","","","null","69","NaN","","","","","","","","","","","","","","",""
"","S2","","html-keyboard-response","459","516131","0.0-1.0-625.0","0","0","56422","","null","","","null","69","","NaN","","","","","","","","","","","","","",""
"","response","","html-keyboard-response","460","516301","0.0-1.0-626.0-0.0","0","0","56422","","169","","","75","69","","","2","69","training","adjacent","BA","2","1","Q.jpg","L.jpg","0","0","1","",""
"","feedback","","html-keyboard-response","461","517304","0.0-1.0-627.0-0.0","0","0","56422","","null","","","null","69","","","","","","","","","","","","","","","",""
"","ITI","","html-keyboard-response","462","518307","0.0-1.0-630.0","0","0","56422","","null","","","null","69","","","","","","","","","","","","","","","NaN",""
"","S1","","html-keyboard-response","463","518561","0.0-1.0-632.0","0","0","56422","","null","","","null","70","","","","","","","","","","","","","","","",""
"","ISI","","html-keyboard-response","464","520565","0.0-1.0-633.0","0","0","56422","","null","","","null","70","NaN","","","","","","","","","","","","","","",""
"","S2","","html-keyboard-response","465","520821","0.0-1.0-634.0","0","0","56422","","null","","","null","70","","NaN","","","","","","","","","","","","","",""
"","response","","html-keyboard-response","466","521203","0.0-1.0-635.0-0.0","0","0","56422","","378","","","68","70","","","2","70","training","adjacent","AB","1","2","L.jpg","Q.jpg","1","1","1","",""
"","feedback","","html-keyboard-response","467","522208","0.0-1.0-636.0-0.0","0","0","56422","","null","","","null","70","","","","","","","","","","","","","","","",""
"","ITI","","html-keyboard-response","468","523226","0.0-1.0-639.0","0","0","56422","","null","","","null","70","","","","","","","","","","","","","","","NaN",""
"","S1","","html-keyboard-response","469","523481","0.0-1.0-641.0","0","0","56422","","null","","","null","71","","","","","","","","","","","","","","","",""
"","ISI","","html-keyboard-response","470","525485","0.0-1.0-642.0","0","0","56422","","null","","","null","71","NaN","","","","","","","","","","","","","","",""
"","S2","","html-keyboard-response","471","525741","0.0-1.0-643.0","0","0","56422","","null","","","null","71","","NaN","","","","","","","","","","","","","",""
"","response","","html-keyboard-response","472","526389","0.0-1.0-644.0-0.0","0","0","56422","","643","","","68","71","","","2","71","training","adjacent","ED","5","4","N.jpg","O.jpg","1","0","0","",""
"","feedback","","html-keyboard-response","473","527392","0.0-1.0-645.0-0.0","0","0","56422","","null","","","null","71","","","","","","","","","","","","","","","",""
"","time_out","","html-keyboard-response","474","529394","0.0-1.0-647.0-0.0","0","0","56422","","null","","","null","71","","","","","","","","","","","","","","","",""
"","ITI","","html-keyboard-response","475","530397","0.0-1.0-648.0","0","0","56422","","null","","","null","71","","","","","","","","","","","","","","","NaN",""
"","S1","","html-keyboard-response","476","530649","0.0-1.0-650.0","0","0","56422","","null","","","null","72","","","","","","","","","","","","","","","",""
"","ISI","","html-keyboard-response","477","532651","0.0-1.0-651.0","0","0","56422","","null","","","null","72","NaN","","","","","","","","","","","","","","",""
"","S2","","html-keyboard-response","478","532905","0.0-1.0-652.0","0","0","56422","","null","","","null","72","","NaN","","","","","","","","","","","","","",""
"","response","","html-keyboard-response","479","533527","0.0-1.0-653.0-0.0","0","0","56422","","617","","","68","72","","","2","72","training","adjacent","CD","3","4","R.jpg","O.jpg","1","1","1","",""
"","feedback","","html-keyboard-response","480","534533","0.0-1.0-654.0-0.0","0","0","56422","","null","","","null","72","","","","","","","","","","","","","","","",""
"","ITI","","html-keyboard-response","481","535539","0.0-1.0-657.0","0","0","56422","","null","","","null","72","","","","","","","","","","","","","","","NaN",""
"","S1","","html-keyboard-response","482","535794","0.0-1.0-659.0","0","0","56422","","null","","","null","73","","","","","","","","","","","","","","","",""
"","ISI","","html-keyboard-response","483","537799","0.0-1.0-660.0","0","0","56422","","null","","","null","73","NaN","","","","","","","","","","","","","","",""
"","S2","","html-keyboard-response","484","538053","0.0-1.0-661.0","0","0","56422","","null","","","null","73","","NaN","","","","","","","","","","","","","",""
"","response","","html-keyboard-response","485","538603","0.0-1.0-662.0-0.0","0","0","56422","","547","","","68","73","","","2","73","training","adjacent","ED","5","4","N.jpg","O.jpg","1","0","0","",""
"","feedback","","html-keyboard-response","486","539608","0.0-1.0-663.0-0.0","0","0","56422","","null","","","null","73","","","","","","","","","","","","","","","",""
"","time_out","","html-keyboard-response","487","541613","0.0-1.0-665.0-0.0","0","0","56422","","null","","","null","73","","","","","","","","","","","","","","","",""
"","ITI","","html-keyboard-response","488","542619","0.0-1.0-666.0","0","0","56422","","null","","","null","73","","","","","","","","","","","","","","","NaN",""
"","S1","","html-keyboard-response","489","542875","0.0-1.0-668.0","0","0","56422","","null","","","null","74","","","","","","","","","","","","","","","",""
"","ISI","","html-keyboard-response","490","544879","0.0-1.0-669.0","0","0","56422","","null","","","null","74","NaN","","","","","","","","","","","","","","",""
"","S2","","html-keyboard-response","491","545132","0.0-1.0-670.0","0","0","56422","","null","","","null","74","","NaN","","","","","","","","","","","","","",""
"","response","","html-keyboard-response","492","545721","0.0-1.0-671.0-0.0","0","0","56422","","588","","","75","74","","","2","74","training","adjacent","DC","4","3","O.jpg","R.jpg","0","0","1","",""
"","feedback","","html-keyboard-response","493","546723","0.0-1.0-672.0-0.0","0","0","56422","","null","","","null","74","","","","","","","","","","","","","","","",""
"","ITI","","html-keyboard-response","494","547725","0.0-1.0-675.0","0","0","56422","","null","","","null","74","","","","","","","","","","","","","","","NaN",""
"","S1","","html-keyboard-response","495","547979","0.0-1.0-677.0","0","0","56422","","null","","","null","75","","","","","","","","","","","","","","","",""
"","ISI","","html-keyboard-response","496","549983","0.0-1.0-678.0","0","0","56422","","null","","","null","75","NaN","","","","","","","","","","","","","","",""
"","S2","","html-keyboard-response","497","550237","0.0-1.0-679.0","0","0","56422","","null","","","null","75","","NaN","","","","","","","","","","","","","",""
"","response","","html-keyboard-response","498","550658","0.0-1.0-680.0-0.0","0","0","56422","","418","","","75","75","","","2","75","training","adjacent","EF","5","6","N.jpg","P.jpg","0","1","0","",""
"","feedback","","html-keyboard-response","499","551662","0.0-1.0-681.0-0.0","0","0","56422","","null","","","null","75","","","","","","","","","","","","","","","",""
"","time_out","","html-keyboard-response","500","553666","0.0-1.0-683.0-0.0","0","0","56422","","null","","","null","75","","","","","","","","","","","","","","","",""
"","ITI","","html-keyboard-response","501","554671","0.0-1.0-684.0","0","0","56422","","null","","","null","75","","","","","","","","","","","","","","","NaN",""
"","S1","","html-keyboard-response","502","554925","0.0-1.0-686.0","0","0","56422","","null","","","null","76","","","","","","","","","","","","","","","",""
"","ISI","","html-keyboard-response","503","556929","0.0-1.0-687.0","0","0","56422","","null","","","null","76","NaN","","","","","","","","","","","","","","",""
"","S2","","html-keyboard-response","504","557182","0.0-1.0-688.0","0","0","56422","","null","","","null","76","","NaN","","","","","","","","","","","","","",""
"","response","","html-keyboard-response","505","557911","0.0-1.0-689.0-0.0","0","0","56422","","727","","","75","76","","","2","76","training","adjacent","FG","6","7","P.jpg","M.jpg","0","1","0","",""
"","feedback","","html-keyboard-response","506","558914","0.0-1.0-690.0-0.0","0","0","56422","","null","","","null","76","","","","","","","","","","","","","","","",""
"","time_out","","html-keyboard-response","507","560921","0.0-1.0-692.0-0.0","0","0","56422","","null","","","null","76","","","","","","","","","","","","","","","",""
"","ITI","","html-keyboard-response","508","561924","0.0-1.0-693.0","0","0","56422","","null","","","null","76","","","","","","","","","","","","","","","NaN",""
"","S1","","html-keyboard-response","509","562177","0.0-1.0-695.0","0","0","56422","","null","","","null","77","","","","","","","","","","","","","","","",""
"","ISI","","html-keyboard-response","510","564182","0.0-1.0-696.0","0","0","56422","","null","","","null","77","NaN","","","","","","","","","","","","","","",""
"","S2","","html-keyboard-response","511","564435","0.0-1.0-697.0","0","0","56422","","null","","","null","77","","NaN","","","","","","","","","","","","","",""
"","response","","html-keyboard-response","512","564883","0.0-1.0-698.0-0.0","0","0","56422","","446","","","68","77","","","2","77","training","adjacent","GF","7","6","M.jpg","P.jpg","1","0","0","",""
"","feedback","","html-keyboard-response","513","565888","0.0-1.0-699.0-0.0","0","0","56422","","null","","","null","77","","","","","","","","","","","","","","","",""
"","time_out","","html-keyboard-response","514","567892","0.0-1.0-701.0-0.0","0","0","56422","","null","","","null","77","","","","","","","","","","","","","","","",""
"","ITI","","html-keyboard-response","515","568895","0.0-1.0-702.0","0","0","56422","","null","","","null","77","","","","","","","","","","","","","","","NaN",""
"","S1","","html-keyboard-response","516","569149","0.0-1.0-704.0","0","0","56422","","null","","","null","78","","","","","","","","","","","","","","","",""
"","ISI","","html-keyboard-response","517","571154","0.0-1.0-705.0","0","0","56422","","null","","","null","78","NaN","","","","","","","","","","","","","","",""
"","S2","","html-keyboard-response","518","571408","0.0-1.0-706.0","0","0","56422","","null","","","null","78","","NaN","","","","","","","","","","","","","",""
"","response","","html-keyboard-response","519","571888","0.0-1.0-707.0-0.0","0","0","56422","","479","","","68","78","","","2","78","training","adjacent","DC","4","3","O.jpg","R.jpg","1","0","0","",""
"","feedback","","html-keyboard-response","520","572892","0.0-1.0-708.0-0.0","0","0","56422","","null","","","null","78","","","","","","","","","","","","","","","",""
"","time_out","","html-keyboard-response","521","574896","0.0-1.0-710.0-0.0","0","0","56422","","null","","","null","78","","","","","","","","","","","","","","","",""
"","ITI","","html-keyboard-response","522","575899","0.0-1.0-711.0","0","0","56422","","null","","","null","78","","","","","","","","","","","","","","","NaN",""
"","S1","","html-keyboard-response","523","576151","0.0-1.0-713.0","0","0","56422","","null","","","null","79","","","","","","","","","","","","","","","",""
"","ISI","","html-keyboard-response","524","578155","0.0-1.0-714.0","0","0","56422","","null","","","null","79","NaN","","","","","","","","","","","","","","",""
"","S2","","html-keyboard-response","525","578411","0.0-1.0-715.0","0","0","56422","","null","","","null","79","","NaN","","","","","","","","","","","","","",""
"","response","","html-keyboard-response","526","579864","0.0-1.0-716.0-0.0","0","0","56422","","1449","","","68","79","","","2","79","training","adjacent","CD","3","4","R.jpg","O.jpg","1","1","1","",""
"","feedback","","html-keyboard-response","527","580870","0.0-1.0-717.0-0.0","0","0","56422","","null","","","null","79","","","","","","","","","","","","","","","",""
"","ITI","","html-keyboard-response","528","581876","0.0-1.0-720.0","0","0","56422","","null","","","null","79","","","","","","","","","","","","","","","NaN",""
"","S1","","html-keyboard-response","529","582131","0.0-1.0-722.0","0","0","56422","","null","","","null","80","","","","","","","","","","","","","","","",""
"","ISI","","html-keyboard-response","530","584136","0.0-1.0-723.0","0","0","56422","","null","","","null","80","NaN","","","","","","","","","","","","","","",""
"","S2","","html-keyboard-response","531","584390","0.0-1.0-724.0","0","0","56422","","null","","","null","80","","NaN","","","","","","","","","","","","","",""
"","response","","html-keyboard-response","532","584901","0.0-1.0-725.0-0.0","0","0","56422","","508","","","75","80","","","2","80","training","adjacent","DE","4","5","O.jpg","N.jpg","0","1","0","",""
"","feedback","","html-keyboard-response","533","585907","0.0-1.0-726.0-0.0","0","0","56422","","null","","","null","80","","","","","","","","","","","","","","","",""
"","time_out","","html-keyboard-response","534","587912","0.0-1.0-728.0-0.0","0","0","56422","","null","","","null","80","","","","","","","","","","","","","","","",""
"","ITI","","html-keyboard-response","535","588915","0.0-1.0-729.0","0","0","56422","","null","","","null","80","","","","","","","","","","","","","","","NaN",""
"","S1","","html-keyboard-response","536","589170","0.0-1.0-731.0","0","0","56422","","null","","","null","81","","","","","","","","","","","","","","","",""
"","ISI","","html-keyboard-response","537","591173","0.0-1.0-732.0","0","0","56422","","null","","","null","81","NaN","","","","","","","","","","","","","","",""
"","S2","","html-keyboard-response","538","591426","0.0-1.0-733.0","0","0","56422","","null","","","null","81","","NaN","","","","","","","","","","","","","",""
"","response","","html-keyboard-response","539","592141","0.0-1.0-734.0-0.0","0","0","56422","","710","","","75","81","","","2","81","training","adjacent","BC","2","3","Q.jpg","R.jpg","0","1","0","",""
"","feedback","","html-keyboard-response","540","593147","0.0-1.0-735.0-0.0","0","0","56422","","null","","","null","81","","","","","","","","","","","","","","","",""
"","time_out","","html-keyboard-response","541","595152","0.0-1.0-737.0-0.0","0","0","56422","","null","","","null","81","","","","","","","","","","","","","","","",""
"","ITI","","html-keyboard-response","542","596157","0.0-1.0-738.0","0","0","56422","","null","","","null","81","","","","","","","","","","","","","","","NaN",""
"","S1","","html-keyboard-response","543","596410","0.0-1.0-740.0","0","0","56422","","null","","","null","82","","","","","","","","","","","","","","","",""
"","ISI","","html-keyboard-response","544","598414","0.0-1.0-741.0","0","0","56422","","null","","","null","82","NaN","","","","","","","","","","","","","","",""
"","S2","","html-keyboard-response","545","598670","0.0-1.0-742.0","0","0","56422","","null","","","null","82","","NaN","","","","","","","","","","","","","",""
"","response","","html-keyboard-response","546","599488","0.0-1.0-743.0-0.0","0","0","56422","","814","","","68","82","","","2","82","training","adjacent","EF","5","6","N.jpg","P.jpg","1","1","1","",""
"","feedback","","html-keyboard-response","547","600492","0.0-1.0-744.0-0.0","0","0","56422","","null","","","null","82","","","","","","","","","","","","","","","",""
"","ITI","","html-keyboard-response","548","601496","0.0-1.0-747.0","0","0","56422","","null","","","null","82","","","","","","","","","","","","","","","NaN",""
"","S1","","html-keyboard-response","549","601751","0.0-1.0-749.0","0","0","56422","","null","","","null","83","","","","","","","","","","","","","","","",""
"","ISI","","html-keyboard-response","550","603755","0.0-1.0-750.0","0","0","56422","","null","","","null","83","NaN","","","","","","","","","","","","","","",""
"","S2","","html-keyboard-response","551","604010","0.0-1.0-751.0","0","0","56422","","null","","","null","83","","NaN","","","","","","","","","","","","","",""
"","response","","html-keyboard-response","552","604257","0.0-1.0-752.0-0.0","0","0","56422","","244","","","68","83","","","2","83","training","adjacent","FE","6","5","P.jpg","N.jpg","1","0","0","",""
"","feedback","","html-keyboard-response","553","605262","0.0-1.0-753.0-0.0","0","0","56422","","null","","","null","83","","","","","","","","","","","","","","","",""
"","time_out","","html-keyboard-response","554","607269","0.0-1.0-755.0-0.0","0","0","56422","","null","","","null","83","","","","","","","","","","","","","","","",""
"","ITI","","html-keyboard-response","555","608272","0.0-1.0-756.0","0","0","56422","","null","","","null","83","","","","","","","","","","","","","","","NaN",""
"","S1","","html-keyboard-response","556","608526","0.0-1.0-758.0","0","0","56422","","null","","","null","84","","","","","","","","","","","","","","","",""
"","ISI","","html-keyboard-response","557","610530","0.0-1.0-759.0","0","0","56422","","null","","","null","84","NaN","","","","","","","","","","","","","","",""
"","S2","","html-keyboard-response","558","610785","0.0-1.0-760.0","0","0","56422","","null","","","null","84","","NaN","","","","","","","","","","","","","",""
"","response","","html-keyboard-response","559","611090","0.0-1.0-761.0-0.0","0","0","56422","","301","","","75","84","","","2","84","training","adjacent","FE","6","5","P.jpg","N.jpg","0","0","1","",""
"","feedback","","html-keyboard-response","560","612096","0.0-1.0-762.0-0.0","0","0","56422","","null","","","null","84","","","","","","","","","","","","","","","",""
"","ITI","","html-keyboard-response","561","613101","0.0-1.0-765.0","0","0","56422","","null","","","null","84","","","","","","","","","","","","","","","NaN",""
"","S1","","html-keyboard-response","562","613355","0.0-1.0-767.0","0","0","56422","","null","","","null","85","","","","","","","","","","","","","","","",""
"","ISI","","html-keyboard-response","563","615357","0.0-1.0-768.0","0","0","56422","","null","","","null","85","NaN","","","","","","","","","","","","","","",""
"","S2","","html-keyboard-response","564","615612","0.0-1.0-769.0","0","0","56422","","null","","","null","85","","NaN","","","","","","","","","","","","","",""
"","response","","html-keyboard-response","565","616390","0.0-1.0-770.0-0.0","0","0","56422","","776","","","68","85","","","2","85","training","adjacent","DE","4","5","O.jpg","N.jpg","1","1","1","",""
"","feedback","","html-keyboard-response","566","617398","0.0-1.0-771.0-0.0","0","0","56422","","null","","","null","85","","","","","","","","","","","","","","","",""
"","ITI","","html-keyboard-response","567","618400","0.0-1.0-774.0","0","0","56422","","null","","","null","85","","","","","","","","","","","","","","","NaN",""
"","S1","","html-keyboard-response","568","618655","0.0-1.0-776.0","0","0","56422","","null","","","null","86","","","","","","","","","","","","","","","",""
"","ISI","","html-keyboard-response","569","620660","0.0-1.0-777.0","0","0","56422","","null","","","null","86","NaN","","","","","","","","","","","","","","",""
"","S2","","html-keyboard-response","570","620915","0.0-1.0-778.0","0","0","56422","","null","","","null","86","","NaN","","","","","","","","","","","","","",""
"","response","","html-keyboard-response","571","621562","0.0-1.0-779.0-0.0","0","0","56422","","643","","","68","86","","","2","86","training","adjacent","CB","3","2","R.jpg","Q.jpg","1","0","0","",""
"","feedback","","html-keyboard-response","572","622568","0.0-1.0-780.0-0.0","0","0","56422","","null","","","null","86","","","","","","","","","","","","","","","",""
"","time_out","","html-keyboard-response","573","624575","0.0-1.0-782.0-0.0","0","0","56422","","null","","","null","86","","","","","","","","","","","","","","","",""
"","ITI","","html-keyboard-response","574","625577","0.0-1.0-783.0","0","0","56422","","null","","","null","86","","","","","","","","","","","","","","","NaN",""
"","S1","","html-keyboard-response","575","625831","0.0-1.0-785.0","0","0","56422","","null","","","null","87","","","","","","","","","","","","","","","",""
"","ISI","","html-keyboard-response","576","627835","0.0-1.0-786.0","0","0","56422","","null","","","null","87","NaN","","","","","","","","","","","","","","",""
"","S2","","html-keyboard-response","577","628091","0.0-1.0-787.0","0","0","56422","","null","","","null","87","","NaN","","","","","","","","","","","","","",""
"","response","","html-keyboard-response","578","628560","0.0-1.0-788.0-0.0","0","0","56422","","467","","","75","87","","","2","87","training","adjacent","FG","6","7","P.jpg","M.jpg","0","1","0","",""
"","feedback","","html-keyboard-response","579","629564","0.0-1.0-789.0-0.0","0","0","56422","","null","","","null","87","","","","","","","","","","","","","","","",""
"","time_out","","html-keyboard-response","580","631570","0.0-1.0-791.0-0.0","0","0","56422","","null","","","null","87","","","","","","","","","","","","","","","",""
"","ITI","","html-keyboard-response","581","632574","0.0-1.0-792.0","0","0","56422","","null","","","null","87","","","","","","","","","","","","","","","NaN",""
"","S1","","html-keyboard-response","582","632829","0.0-1.0-794.0","0","0","56422","","null","","","null","88","","","","","","","","","","","","","","","",""
