"success","ttype","start_time","trial_type","trial_index","time_elapsed","internal_node_id","warning","missed_checkup","PID","view_history","rt","responses","repeat_instructions","key_press","index","keypress_isi","keypress_S2","block","trial_num","phase","group_type","pair_type","S1_stim","S2_stim","S1_img","S2_img","S1_chosen","S1_higher","accuracy","keypress_iti","total_bonus_tally"
"true","full_screen","d03082023hr1510","fullscreen","0","16236","0.0-0.0","0","0","25560","","","","","","","","","","","","","","","","","","","","","",""
"","instructions","","instructions","1","35005","0.0-1.0-0.0-0.0","0","0","25560","[{""page_index"":0,""viewing_time"":4332},{""page_index"":1,""viewing_time"":8401},{""page_index"":2,""viewing_time"":4647},{""page_index"":3,""viewing_time"":1385}]","18765","","","","","","","","","","","","","","","","","","","",""
"","comprehension_check","","survey-multi-choice","2","65105","0.0-1.0-0.0-1.0","0","0","25560","","30094","{""Q0"":""True"",""Q1"":""D"",""Q2"":""Only when the screen 'MAKE A CHOICE' is shown"",""Q3"":""Green mark"",""Q4"":""either D or K""}","1","","","","","","","","","","","","","","","","","",""
"","missed_instruction_checkup","","html-keyboard-response","3","68591","0.0-1.0-0.0-2.0-0.0","0","1","25560","","3480","","","32","","","","","","","","","","","","","","","","",""
"","instructions","","instructions","4","80688","0.0-1.0-0.1-0.1","0","0","25560","[{""page_index"":0,""viewing_time"":2940},{""page_index"":1,""viewing_time"":6697},{""page_index"":2,""viewing_time"":1496},{""page_index"":3,""viewing_time"":960}]","12093","","","","","","","","","","","","","","","","","","","",""
"","comprehension_check","","survey-multi-choice","5","90976","0.0-1.0-0.1-1.1","0","0","25560","","10285","{""Q0"":""True"",""Q1"":""D"",""Q2"":""Once the second image appears and while the screen 'MAKE A CHOICE' is shown"",""Q3"":""Green mark"",""Q4"":""either D or K""}","0","","","","","","","","","","","","","","","","","",""
"","start_exp","","html-keyboard-response","6","92436","0.0-1.0-1.0","0","0","25560","","1456","","","32","","","","","","","","","","","","","","","","",""
"","S1","","html-keyboard-response","7","92694","0.0-1.0-2.0","0","0","25560","","null","","","null","0","","","","","","","","","","","","","","","",""
"","ISI","","html-keyboard-response","8","92849","0.0-1.0-3.0","0","0","25560","","null","","","null","0","NaN","","","","","","","","","","","","","","",""
"","S2","","html-keyboard-response","9","93106","0.0-1.0-4.0","0","0","25560","","null","","","null","0","","NaN","","","","","","","","","","","","","",""
"","response","","html-keyboard-response","10","93585","0.0-1.0-5.0-0.0","0","0","25560","","475","","","75","0","","","1","0","training","adjacent","EF","5","6","P.jpg","N.jpg","0","1","0","",""
"","feedback","","html-keyboard-response","11","94589","0.0-1.0-6.0-0.0","0","0","25560","","null","","","null","0","","","","","","","","","","","","","","","",""
"","time_out","","html-keyboard-response","12","96594","0.0-1.0-8.0-0.0","0","0","25560","","null","","","null","0","","","","","","","","","","","","","","","",""
"","ITI","","html-keyboard-response","13","97600","0.0-1.0-9.0","0","0","25560","","null","","","null","0","","","","","","","","","","","","","","","NaN",""
"","S1","","html-keyboard-response","14","97856","0.0-1.0-11.0","0","0","25560","","null","","","null","1","","","","","","","","","","","","","","","",""
"","ISI","","html-keyboard-response","15","98012","0.0-1.0-12.0","0","0","25560","","null","","","null","1","NaN","","","","","","","","","","","","","","",""
"","S2","","html-keyboard-response","16","98270","0.0-1.0-13.0","0","0","25560","","null","","","null","1","","NaN","","","","","","","","","","","","","",""
"","response","","html-keyboard-response","17","98619","0.0-1.0-14.0-0.0","0","0","25560","","345","","","75","1","","","1","1","training","adjacent","FG","6","7","N.jpg","L.jpg","0","1","0","",""
"","feedback","","html-keyboard-response","18","99625","0.0-1.0-15.0-0.0","0","0","25560","","null","","","null","1","","","","","","","","","","","","","","","",""
"","time_out","","html-keyboard-response","19","101630","0.0-1.0-17.0-0.0","0","0","25560","","null","","","null","1","","","","","","","","","","","","","","","",""
"","ITI","","html-keyboard-response","20","102636","0.0-1.0-18.0","0","0","25560","","null","","","null","1","","","","","","","","","","","","","","","NaN",""
"","S1","","html-keyboard-response","21","102897","0.0-1.0-20.0","0","0","25560","","null","","","null","2","","","","","","","","","","","","","","","",""
"","ISI","","html-keyboard-response","22","103053","0.0-1.0-21.0","0","0","25560","","null","","","null","2","NaN","","","","","","","","","","","","","","",""
"","S2","","html-keyboard-response","23","103309","0.0-1.0-22.0","0","0","25560","","null","","","null","2","","NaN","","","","","","","","","","","","","",""
"","response","","html-keyboard-response","24","103596","0.0-1.0-23.0-0.0","0","0","25560","","283","","","75","2","","","1","2","training","adjacent","GF","7","6","L.jpg","N.jpg","0","0","1","",""
"","feedback","","html-keyboard-response","25","104603","0.0-1.0-24.0-0.0","0","0","25560","","null","","","null","2","","","","","","","","","","","","","","","",""
"","ITI","","html-keyboard-response","26","105609","0.0-1.0-27.0","0","0","25560","","null","","","null","2","","","","","","","","","","","","","","","NaN",""
"","S1","","html-keyboard-response","27","105865","0.0-1.0-29.0","0","0","25560","","null","","","null","3","","","","","","","","","","","","","","","",""
"","ISI","","html-keyboard-response","28","106021","0.0-1.0-30.0","0","0","25560","","null","","","null","3","NaN","","","","","","","","","","","","","","",""
"","S2","","html-keyboard-response","29","106277","0.0-1.0-31.0","0","0","25560","","null","","","null","3","","NaN","","","","","","","","","","","","","",""
"","response","","html-keyboard-response","30","106572","0.0-1.0-32.0-0.0","0","0","25560","","289","","","68","3","","","1","3","training","adjacent","DE","4","5","O.jpg","P.jpg","1","1","1","",""
"","feedback","","html-keyboard-response","31","107578","0.0-1.0-33.0-0.0","0","0","25560","","null","","","null","3","","","","","","","","","","","","","","","",""
"","ITI","","html-keyboard-response","32","108585","0.0-1.0-36.0","0","0","25560","","null","","","null","3","","","","","","","","","","","","","","","NaN",""
"","S1","","html-keyboard-response","33","108842","0.0-1.0-38.0","0","0","25560","","null","","","null","4","","","","","","","","","","","","","","","",""
"","ISI","","html-keyboard-response","34","108998","0.0-1.0-39.0","0","0","25560","","null","","","null","4","NaN","","","","","","","","","","","","","","",""
"","S2","","html-keyboard-response","35","109254","0.0-1.0-40.0","0","0","25560","","null","","","null","4","","NaN","","","","","","","","","","","","","",""
"","response","","html-keyboard-response","36","109516","0.0-1.0-41.0-0.0","0","0","25560","","256","","","68","4","","","1","4","training","adjacent","FG","6","7","N.jpg","L.jpg","1","1","1","",""
"","feedback","","html-keyboard-response","37","110523","0.0-1.0-42.0-0.0","0","0","25560","","null","","","null","4","","","","","","","","","","","","","","","",""
"","ITI","","html-keyboard-response","38","111529","0.0-1.0-45.0","0","0","25560","","null","","","null","4","","","","","","","","","","","","","","","NaN",""
"","S1","","html-keyboard-response","39","111785","0.0-1.0-47.0","0","0","25560","","null","","","null","5","","","","","","","","","","","","","","","",""
"","ISI","","html-keyboard-response","40","111941","0.0-1.0-48.0","0","0","25560","","null","","","null","5","NaN","","","","","","","","","","","","","","",""
"","S2","","html-keyboard-response","41","112197","0.0-1.0-49.0","0","0","25560","","null","","","null","5","","NaN","","","","","","","","","","","","","",""
"","response","","html-keyboard-response","42","112500","0.0-1.0-50.0-0.0","0","0","25560","","298","","","68","5","","","1","5","training","adjacent","BA","2","1","Q.jpg","R.jpg","1","0","0","",""
"","feedback","","html-keyboard-response","43","113507","0.0-1.0-51.0-0.0","0","0","25560","","null","","","null","5","","","","","","","","","","","","","","","",""
"","time_out","","html-keyboard-response","44","115512","0.0-1.0-53.0-0.0","0","0","25560","","null","","","null","5","","","","","","","","","","","","","","","",""
"","ITI","","html-keyboard-response","45","116518","0.0-1.0-54.0","0","0","25560","","null","","","null","5","","","","","","","","","","","","","","","NaN",""
"","S1","","html-keyboard-response","46","116774","0.0-1.0-56.0","0","0","25560","","null","","","null","6","","","","","","","","","","","","","","","",""
"","ISI","","html-keyboard-response","47","116929","0.0-1.0-57.0","0","0","25560","","null","","","null","6","NaN","","","","","","","","","","","","","","",""
"","S2","","html-keyboard-response","48","117192","0.0-1.0-58.0","0","0","25560","","null","","","null","6","","NaN","","","","","","","","","","","","","",""
"","response","","html-keyboard-response","49","117486","0.0-1.0-59.0-0.0","0","0","25560","","287","","","75","6","","","1","6","training","adjacent","ED","5","4","P.jpg","O.jpg","0","0","1","",""
"","feedback","","html-keyboard-response","50","118492","0.0-1.0-60.0-0.0","0","0","25560","","null","","","null","6","","","","","","","","","","","","","","","",""
"","ITI","","html-keyboard-response","51","119496","0.0-1.0-63.0","0","0","25560","","null","","","null","6","","","","","","","","","","","","","","","NaN",""
"","S1","","html-keyboard-response","52","119751","0.0-1.0-65.0","0","0","25560","","null","","","null","7","","","","","","","","","","","","","","","",""
"","ISI","","html-keyboard-response","53","119906","0.0-1.0-66.0","0","0","25560","","null","","","null","7","NaN","","","","","","","","","","","","","","",""
"","S2","","html-keyboard-response","54","120174","0.0-1.0-67.0","0","0","25560","","null","","","null","7","","NaN","","","","","","","","","","","","","",""
"","response","","html-keyboard-response","55","120239","0.0-1.0-68.0-0.0","0","0","25560","","64","","","75","7","","","1","7","training","adjacent","GF","7","6","L.jpg","N.jpg","0","0","1","",""
"","feedback","","html-keyboard-response","56","121244","0.0-1.0-69.0-0.0","0","0","25560","","null","","","null","7","","","","","","","","","","","","","","","",""
"","ITI","","html-keyboard-response","57","122249","0.0-1.0-72.0","0","0","25560","","null","","","null","7","","","","","","","","","","","","","","","NaN",""
"","S1","","html-keyboard-response","58","122505","0.0-1.0-74.0","0","0","25560","","null","","","null","8","","","","","","","","","","","","","","","",""
"","ISI","","html-keyboard-response","59","122659","0.0-1.0-75.0","0","0","25560","","null","","","null","8","NaN","","","","","","","","","","","","","","",""
"","S2","","html-keyboard-response","60","122917","0.0-1.0-76.0","0","0","25560","","null","","","null","8","","NaN","","","","","","","","","","","","","",""
"","response","","html-keyboard-response","61","123148","0.0-1.0-77.0-0.0","0","0","25560","","226","","","68","8","","","1","8","training","adjacent","DC","4","3","O.jpg","M.jpg","1","0","0","",""
"","feedback","","html-keyboard-response","62","124155","0.0-1.0-78.0-0.0","0","0","25560","","null","","","null","8","","","","","","","","","","","","","","","",""
"","time_out","","html-keyboard-response","63","126161","0.0-1.0-80.0-0.0","0","0","25560","","null","","","null","8","","","","","","","","","","","","","","","",""
"","ITI","","html-keyboard-response","64","127167","0.0-1.0-81.0","0","0","25560","","null","","","null","8","","","","","","","","","","","","","","","NaN",""
"","S1","","html-keyboard-response","65","127421","0.0-1.0-83.0","0","0","25560","","null","","","null","9","","","","","","","","","","","","","","","",""
"","ISI","","html-keyboard-response","66","127574","0.0-1.0-84.0","0","0","25560","","null","","","null","9","NaN","","","","","","","","","","","","","","",""
"","S2","","html-keyboard-response","67","127829","0.0-1.0-85.0","0","0","25560","","null","","","null","9","","NaN","","","","","","","","","","","","","",""
"","response","","html-keyboard-response","68","128117","0.0-1.0-86.0-0.0","0","0","25560","","282","","","68","9","","","1","9","training","adjacent","BC","2","3","Q.jpg","M.jpg","1","1","1","",""
"","feedback","","html-keyboard-response","69","129123","0.0-1.0-87.0-0.0","0","0","25560","","null","","","null","9","","","","","","","","","","","","","","","",""
"","ITI","","html-keyboard-response","70","130128","0.0-1.0-90.0","0","0","25560","","null","","","null","9","","","","","","","","","","","","","","","NaN",""
"","S1","","html-keyboard-response","71","130384","0.0-1.0-92.0","0","0","25560","","null","","","null","10","","","","","","","","","","","","","","","",""
"","ISI","","html-keyboard-response","72","130539","0.0-1.0-93.0","0","0","25560","","null","","","null","10","NaN","","","","","","","","","","","","","","",""
"","S2","","html-keyboard-response","73","130796","0.0-1.0-94.0","0","0","25560","","null","","","null","10","","NaN","","","","","","","","","","","","","",""
"","response","","html-keyboard-response","74","131065","0.0-1.0-95.0-0.0","0","0","25560","","266","","","68","10","","","1","10","training","adjacent","DE","4","5","O.jpg","P.jpg","1","1","1","",""
"","feedback","","html-keyboard-response","75","132071","0.0-1.0-96.0-0.0","0","0","25560","","null","","","null","10","","","","","","","","","","","","","","","",""
"","ITI","","html-keyboard-response","76","133076","0.0-1.0-99.0","0","0","25560","","null","","","null","10","","","","","","","","","","","","","","","NaN",""
"","S1","","html-keyboard-response","77","133333","0.0-1.0-101.0","0","0","25560","","null","","","null","11","","","","","","","","","","","","","","","",""
"","ISI","","html-keyboard-response","78","133489","0.0-1.0-102.0","0","0","25560","","null","","","null","11","NaN","","","","","","","","","","","","","","",""
"","S2","","html-keyboard-response","79","133745","0.0-1.0-103.0","0","0","25560","","null","","","null","11","","NaN","","","","","","","","","","","","","",""
"","response","","html-keyboard-response","80","133803","0.0-1.0-104.0-0.0","0","0","25560","","54","","","68","11","","","1","11","training","adjacent","FE","6","5","N.jpg","P.jpg","1","0","0","",""
"","feedback","","html-keyboard-response","81","134809","0.0-1.0-105.0-0.0","0","0","25560","","null","","","null","11","","","","","","","","","","","","","","","",""
"","time_out","","html-keyboard-response","82","136816","0.0-1.0-107.0-0.0","0","0","25560","","null","","","null","11","","","","","","","","","","","","","","","",""
"","ITI","","html-keyboard-response","83","137820","0.0-1.0-108.0","0","0","25560","","null","","","null","11","","","","","","","","","","","","","","","NaN",""
"","S1","","html-keyboard-response","84","138076","0.0-1.0-110.0","0","0","25560","","null","","","null","12","","","","","","","","","","","","","","","",""
"","ISI","","html-keyboard-response","85","138232","0.0-1.0-111.0","0","0","25560","","null","","","null","12","NaN","","","","","","","","","","","","","","",""
"","S2","","html-keyboard-response","86","138488","0.0-1.0-112.0","0","0","25560","","null","","","null","12","","NaN","","","","","","","","","","","","","",""
"","response","","html-keyboard-response","87","138809","0.0-1.0-113.0-0.0","0","0","25560","","318","","","75","12","","","1","12","training","adjacent","BA","2","1","Q.jpg","R.jpg","0","0","1","",""
"","feedback","","html-keyboard-response","88","139816","0.0-1.0-114.0-0.0","0","0","25560","","null","","","null","12","","","","","","","","","","","","","","","",""
"","ITI","","html-keyboard-response","89","140822","0.0-1.0-117.0","0","0","25560","","null","","","null","12","","","","","","","","","","","","","","","NaN",""
"","S1","","html-keyboard-response","90","141078","0.0-1.0-119.0","0","0","25560","","null","","","null","13","","","","","","","","","","","","","","","",""
"","ISI","","html-keyboard-response","91","141234","0.0-1.0-120.0","0","0","25560","","null","","","null","13","NaN","","","","","","","","","","","","","","",""
"","S2","","html-keyboard-response","92","141490","0.0-1.0-121.0","0","0","25560","","null","","","null","13","","NaN","","","","","","","","","","","","","",""
"","response","","html-keyboard-response","93","141788","0.0-1.0-122.0-0.0","0","0","25560","","293","","","75","13","","","1","13","training","adjacent","ED","5","4","P.jpg","O.jpg","0","0","1","",""
"","feedback","","html-keyboard-response","94","142796","0.0-1.0-123.0-0.0","0","0","25560","","null","","","null","13","","","","","","","","","","","","","","","",""
"","ITI","","html-keyboard-response","95","143802","0.0-1.0-126.0","0","0","25560","","null","","","null","13","","","","","","","","","","","","","","","NaN",""
"","S1","","html-keyboard-response","96","144058","0.0-1.0-128.0","0","0","25560","","null","","","null","14","","","","","","","","","","","","","","","",""
"","ISI","","html-keyboard-response","97","144213","0.0-1.0-129.0","0","0","25560","","null","","","null","14","NaN","","","","","","","","","","","","","","",""
"","S2","","html-keyboard-response","98","144469","0.0-1.0-130.0","0","0","25560","","null","","","null","14","","NaN","","","","","","","","","","","","","",""
"","response","","html-keyboard-response","99","144740","0.0-1.0-131.0-0.0","0","0","25560","","266","","","75","14","","","1","14","training","adjacent","BC","2","3","Q.jpg","M.jpg","0","1","0","",""
"","feedback","","html-keyboard-response","100","145747","0.0-1.0-132.0-0.0","0","0","25560","","null","","","null","14","","","","","","","","","","","","","","","",""
"","time_out","","html-keyboard-response","101","147752","0.0-1.0-134.0-0.0","0","0","25560","","null","","","null","14","","","","","","","","","","","","","","","",""
"","ITI","","html-keyboard-response","102","148757","0.0-1.0-135.0","0","0","25560","","null","","","null","14","","","","","","","","","","","","","","","NaN",""
"","S1","","html-keyboard-response","103","149011","0.0-1.0-137.0","0","0","25560","","null","","","null","15","","","","","","","","","","","","","","","",""
"","ISI","","html-keyboard-response","104","149177","0.0-1.0-138.0","0","0","25560","","null","","","null","15","NaN","","","","","","","","","","","","","","",""
"","S2","","html-keyboard-response","105","149431","0.0-1.0-139.0","0","0","25560","","null","","","null","15","","NaN","","","","","","","","","","","","","",""
"","response","","html-keyboard-response","106","149514","0.0-1.0-140.0-0.0","0","0","25560","","81","","","75","15","","","1","15","training","adjacent","GF","7","6","L.jpg","N.jpg","0","0","1","",""
"","feedback","","html-keyboard-response","107","150520","0.0-1.0-141.0-0.0","0","0","25560","","null","","","null","15","","","","","","","","","","","","","","","",""
"","ITI","","html-keyboard-response","108","151524","0.0-1.0-144.0","0","0","25560","","null","","","null","15","","","","","","","","","","","","","","","NaN",""
"","S1","","html-keyboard-response","109","151781","0.0-1.0-146.0","0","0","25560","","null","","","null","16","","","","","","","","","","","","","","","",""
"","ISI","","html-keyboard-response","110","151936","0.0-1.0-147.0","0","0","25560","","null","","","null","16","NaN","","","","","","","","","","","","","","",""
"","S2","","html-keyboard-response","111","152193","0.0-1.0-148.0","0","0","25560","","null","","","null","16","","NaN","","","","","","","","","","","","","",""
"","response","","html-keyboard-response","112","152420","0.0-1.0-149.0-0.0","0","0","25560","","223","","","75","16","","","1","16","training","adjacent","CB","3","2","M.jpg","Q.jpg","0","0","1","",""
"","feedback","","html-keyboard-response","113","153427","0.0-1.0-150.0-0.0","0","0","25560","","null","","","null","16","","","","","","","","","","","","","","","",""
"","ITI","","html-keyboard-response","114","154432","0.0-1.0-153.0","0","0","25560","","null","","","null","16","","","","","","","","","","","","","","","NaN",""
"","S1","","html-keyboard-response","115","154688","0.0-1.0-155.0","0","0","25560","","null","","","null","17","","","","","","","","","","","","","","","",""
"","ISI","","html-keyboard-response","116","154843","0.0-1.0-156.0","0","0","25560","","null","","","null","17","NaN","","","","","","","","","","","","","","",""
"","S2","","html-keyboard-response","117","155102","0.0-1.0-157.0","0","0","25560","","null","","","null","17","","NaN","","","","","","","","","","","","","",""
"","response","","html-keyboard-response","118","155212","0.0-1.0-158.0-0.0","0","0","25560","","105","","","75","17","","","1","17","training","adjacent","CD","3","4","M.jpg","O.jpg","0","1","0","",""
"","feedback","","html-keyboard-response","119","156219","0.0-1.0-159.0-0.0","0","0","25560","","null","","","null","17","","","","","","","","","","","","","","","",""
"","time_out","","html-keyboard-response","120","158224","0.0-1.0-161.0-0.0","0","0","25560","","null","","","null","17","","","","","","","","","","","","","","","",""
"","ITI","","html-keyboard-response","121","159229","0.0-1.0-162.0","0","0","25560","","null","","","null","17","","","","","","","","","","","","","","","NaN",""
"","S1","","html-keyboard-response","122","159488","0.0-1.0-164.0","0","0","25560","","null","","","null","18","","","","","","","","","","","","","","","",""
"","ISI","","html-keyboard-response","123","159652","0.0-1.0-165.0","0","0","25560","","null","","","null","18","NaN","","","","","","","","","","","","","","",""
"","S2","","html-keyboard-response","124","159908","0.0-1.0-166.0","0","0","25560","","null","","","null","18","","NaN","","","","","","","","","","","","","",""
"","response","","html-keyboard-response","125","160028","0.0-1.0-167.0-0.0","0","0","25560","","116","","","68","18","","","1","18","training","adjacent","AB","1","2","R.jpg","Q.jpg","1","1","1","",""
"","feedback","","html-keyboard-response","126","161034","0.0-1.0-168.0-0.0","0","0","25560","","null","","","null","18","","","","","","","","","","","","","","","",""
"","ITI","","html-keyboard-response","127","162040","0.0-1.0-171.0","0","0","25560","","null","","","null","18","","","","","","","","","","","","","","","NaN",""
"","S1","","html-keyboard-response","128","162294","0.0-1.0-173.0","0","0","25560","","null","","","null","19","","","","","","","","","","","","","","","",""
"","ISI","","html-keyboard-response","129","162449","0.0-1.0-174.0","0","0","25560","","null","","","null","19","NaN","","","","","","","","","","","","","","",""
"","S2","","html-keyboard-response","130","162706","0.0-1.0-175.0","0","0","25560","","null","","","null","19","","NaN","","","","","","","","","","","","","",""
"","response","","html-keyboard-response","131","162996","0.0-1.0-176.0-0.0","0","0","25560","","285","","","75","19","","","1","19","training","adjacent","CD","3","4","M.jpg","O.jpg","0","1","0","",""
"","feedback","","html-keyboard-response","132","164003","0.0-1.0-177.0-0.0","0","0","25560","","null","","","null","19","","","","","","","","","","","","","","","",""
"","time_out","","html-keyboard-response","133","166011","0.0-1.0-179.0-0.0","0","0","25560","","null","","","null","19","","","","","","","","","","","","","","","",""
"","ITI","","html-keyboard-response","134","167016","0.0-1.0-180.0","0","0","25560","","null","","","null","19","","","","","","","","","","","","","","","NaN",""
"","S1","","html-keyboard-response","135","167272","0.0-1.0-182.0","0","0","25560","","null","","","null","20","","","","","","","","","","","","","","","",""
"","ISI","","html-keyboard-response","136","167427","0.0-1.0-183.0","0","0","25560","","null","","","null","20","NaN","","","","","","","","","","","","","","",""
"","S2","","html-keyboard-response","137","167683","0.0-1.0-184.0","0","0","25560","","null","","","null","20","","NaN","","","","","","","","","","","","","",""
"","response","","html-keyboard-response","138","168053","0.0-1.0-185.0-0.0","0","0","25560","","365","","","68","20","","","1","20","training","adjacent","CB","3","2","M.jpg","Q.jpg","1","0","0","",""
"","feedback","","html-keyboard-response","139","169059","0.0-1.0-186.0-0.0","0","0","25560","","null","","","null","20","","","","","","","","","","","","","","","",""
"","time_out","","html-keyboard-response","140","171062","0.0-1.0-188.0-0.0","0","0","25560","","null","","","null","20","","","","","","","","","","","","","","","",""
"","ITI","","html-keyboard-response","141","172067","0.0-1.0-189.0","0","0","25560","","null","","","null","20","","","","","","","","","","","","","","","NaN",""
"","S1","","html-keyboard-response","142","172323","0.0-1.0-191.0","0","0","25560","","null","","","null","21","","","","","","","","","","","","","","","",""
"","ISI","","html-keyboard-response","143","172478","0.0-1.0-192.0","0","0","25560","","null","","","null","21","NaN","","","","","","","","","","","","","","",""
"","S2","","html-keyboard-response","144","172736","0.0-1.0-193.0","0","0","25560","","null","","","null","21","","NaN","","","","","","","","","","","","","",""
"","response","","html-keyboard-response","145","173108","0.0-1.0-194.0-0.0","0","0","25560","","368","","","75","21","","","1","21","training","adjacent","CB","3","2","M.jpg","Q.jpg","0","0","1","",""
"","feedback","","html-keyboard-response","146","174114","0.0-1.0-195.0-0.0","0","0","25560","","null","","","null","21","","","","","","","","","","","","","","","",""
"","ITI","","html-keyboard-response","147","175120","0.0-1.0-198.0","0","0","25560","","null","","","null","21","","","","","","","","","","","","","","","NaN",""
"","S1","","html-keyboard-response","148","175376","0.0-1.0-200.0","0","0","25560","","null","","","null","22","","","","","","","","","","","","","","","",""
"","ISI","","html-keyboard-response","149","175530","0.0-1.0-201.0","0","0","25560","","null","","","null","22","NaN","","","","","","","","","","","","","","",""
"","S2","","html-keyboard-response","150","175786","0.0-1.0-202.0","0","0","25560","","null","","","null","22","","NaN","","","","","","","","","","","","","",""
"","response","","html-keyboard-response","151","176324","0.0-1.0-203.0-0.0","0","0","25560","","534","","","68","22","","","1","22","training","adjacent","DC","4","3","O.jpg","M.jpg","1","0","0","",""
"","feedback","","html-keyboard-response","152","177330","0.0-1.0-204.0-0.0","0","0","25560","","null","","","null","22","","","","","","","","","","","","","","","",""
"","time_out","","html-keyboard-response","153","179332","0.0-1.0-206.0-0.0","0","0","25560","","null","","","null","22","","","","","","","","","","","","","","","",""
"","ITI","","html-keyboard-response","154","180335","0.0-1.0-207.0","0","0","25560","","null","","","null","22","","","","","","","","","","","","","","","NaN",""
"","S1","","html-keyboard-response","155","180588","0.0-1.0-209.0","0","0","25560","","null","","","null","23","","","","","","","","","","","","","","","",""
"","ISI","","html-keyboard-response","156","180740","0.0-1.0-210.0","0","0","25560","","null","","","null","23","NaN","","","","","","","","","","","","","","",""
"","S2","","html-keyboard-response","157","180994","0.0-1.0-211.0","0","0","25560","","null","","","null","23","","NaN","","","","","","","","","","","","","",""
"","response","","html-keyboard-response","158","181554","0.0-1.0-212.0-0.0","0","0","25560","","556","","","75","23","","","1","23","training","adjacent","DC","4","3","O.jpg","M.jpg","0","0","1","",""
"","feedback","","html-keyboard-response","159","182561","0.0-1.0-213.0-0.0","0","0","25560","","null","","","null","23","","","","","","","","","","","","","","","",""
"","ITI","","html-keyboard-response","160","183565","0.0-1.0-216.0","0","0","25560","","null","","","null","23","","","","","","","","","","","","","","","NaN",""
"","S1","","html-keyboard-response","161","183820","0.0-1.0-218.0","0","0","25560","","null","","","null","24","","","","","","","","","","","","","","","",""
"","ISI","","html-keyboard-response","162","183976","0.0-1.0-219.0","0","0","25560","","null","","","null","24","NaN","","","","","","","","","","","","","","",""
"","S2","","html-keyboard-response","163","184233","0.0-1.0-220.0","0","0","25560","","null","","","null","24","","NaN","","","","","","","","","","","","","",""
"","response","","html-keyboard-response","164","185068","0.0-1.0-221.0-0.0","0","0","25560","","831","","","75","24","","","1","24","training","adjacent","CD","3","4","M.jpg","O.jpg","0","1","0","",""
"","feedback","","html-keyboard-response","165","186075","0.0-1.0-222.0-0.0","0","0","25560","","null","","","null","24","","","","","","","","","","","","","","","",""
"","time_out","","html-keyboard-response","166","188080","0.0-1.0-224.0-0.0","0","0","25560","","null","","","null","24","","","","","","","","","","","","","","","",""
"","ITI","","html-keyboard-response","167","189086","0.0-1.0-225.0","0","0","25560","","null","","","null","24","","","","","","","","","","","","","","","NaN",""
"","S1","","html-keyboard-response","168","189343","0.0-1.0-227.0","0","0","25560","","null","","","null","25","","","","","","","","","","","","","","","",""
"","ISI","","html-keyboard-response","169","189498","0.0-1.0-228.0","0","0","25560","","null","","","null","25","NaN","","","","","","","","","","","","","","",""
"","S2","","html-keyboard-response","170","189755","0.0-1.0-229.0","0","0","25560","","null","","","null","25","","NaN","","","","","","","","","","","","","",""
"","response","","html-keyboard-response","171","190004","0.0-1.0-230.0-0.0","0","0","25560","","244","","","75","25","","","1","25","training","adjacent","EF","5","6","P.jpg","N.jpg","0","1","0","",""
"","feedback","","html-keyboard-response","172","191020","0.0-1.0-231.0-0.0","0","0","25560","","null","","","null","25","","","","","","","","","","","","","","","",""
"","time_out","","html-keyboard-response","173","193032","0.0-1.0-233.0-0.0","0","0","25560","","null","","","null","25","","","","","","","","","","","","","","","",""
"","ITI","","html-keyboard-response","174","194037","0.0-1.0-234.0","0","0","25560","","null","","","null","25","","","","","","","","","","","","","","","NaN",""
"","S1","","html-keyboard-response","175","194293","0.0-1.0-236.0","0","0","25560","","null","","","null","26","","","","","","","","","","","","","","","",""
"","ISI","","html-keyboard-response","176","194449","0.0-1.0-237.0","0","0","25560","","null","","","null","26","NaN","","","","","","","","","","","","","","",""
"","S2","","html-keyboard-response","177","194704","0.0-1.0-238.0","0","0","25560","","null","","","null","26","","NaN","","","","","","","","","","","","","",""
"","response","","html-keyboard-response","178","194876","0.0-1.0-239.0-0.0","0","0","25560","","167","","","68","26","","","1","26","training","adjacent","AB","1","2","R.jpg","Q.jpg","1","1","1","",""
"","feedback","","html-keyboard-response","179","195884","0.0-1.0-240.0-0.0","0","0","25560","","null","","","null","26","","","","","","","","","","","","","","","",""
"","ITI","","html-keyboard-response","180","196890","0.0-1.0-243.0","0","0","25560","","null","","","null","26","","","","","","","","","","","","","","","NaN",""
"","S1","","html-keyboard-response","181","197146","0.0-1.0-245.0","0","0","25560","","null","","","null","27","","","","","","","","","","","","","","","",""
"","ISI","","html-keyboard-response","182","197302","0.0-1.0-246.0","0","0","25560","","null","","","null","27","NaN","","","","","","","","","","","","","","",""
"","S2","","html-keyboard-response","183","197559","0.0-1.0-247.0","0","0","25560","","null","","","null","27","","NaN","","","","","","","","","","","","","",""
"","response","","html-keyboard-response","184","197721","0.0-1.0-248.0-0.0","0","0","25560","","160","","","68","27","","","1","27","training","adjacent","FG","6","7","N.jpg","L.jpg","1","1","1","",""
"","feedback","","html-keyboard-response","185","198726","0.0-1.0-249.0-0.0","0","0","25560","","null","","","null","27","","","","","","","","","","","","","","","",""
"","ITI","","html-keyboard-response","186","199731","0.0-1.0-252.0","0","0","25560","","null","","","null","27","","","","","","","","","","","","","","","NaN",""
"","S1","","html-keyboard-response","187","199987","0.0-1.0-254.0","0","0","25560","","null","","","null","28","","","","","","","","","","","","","","","",""
"","ISI","","html-keyboard-response","188","200143","0.0-1.0-255.0","0","0","25560","","null","","","null","28","NaN","","","","","","","","","","","","","","",""
"","S2","","html-keyboard-response","189","200399","0.0-1.0-256.0","0","0","25560","","null","","","null","28","","NaN","","","","","","","","","","","","","",""
"","response","","html-keyboard-response","190","200756","0.0-1.0-257.0-0.0","0","0","25560","","353","","","75","28","","","1","28","training","adjacent","EF","5","6","P.jpg","N.jpg","0","1","0","",""
"","feedback","","html-keyboard-response","191","201762","0.0-1.0-258.0-0.0","0","0","25560","","null","","","null","28","","","","","","","","","","","","","","","",""
"","time_out","","html-keyboard-response","192","203768","0.0-1.0-260.0-0.0","0","0","25560","","null","","","null","28","","","","","","","","","","","","","","","",""
"","ITI","","html-keyboard-response","193","204773","0.0-1.0-261.0","0","0","25560","","null","","","null","28","","","","","","","","","","","","","","","NaN",""
"","S1","","html-keyboard-response","194","205029","0.0-1.0-263.0","0","0","25560","","null","","","null","29","","","","","","","","","","","","","","","",""
"","ISI","","html-keyboard-response","195","205185","0.0-1.0-264.0","0","0","25560","","null","","","null","29","NaN","","","","","","","","","","","","","","",""
"","S2","","html-keyboard-response","196","205441","0.0-1.0-265.0","0","0","25560","","null","","","null","29","","NaN","","","","","","","","","","","","","",""
"","response","","html-keyboard-response","197","205692","0.0-1.0-266.0-0.0","0","0","25560","","246","","","75","29","","","1","29","training","adjacent","DC","4","3","O.jpg","M.jpg","0","0","1","",""
"","feedback","","html-keyboard-response","198","206700","0.0-1.0-267.0-0.0","0","0","25560","","null","","","null","29","","","","","","","","","","","","","","","",""
"","ITI","","html-keyboard-response","199","207709","0.0-1.0-270.0","0","0","25560","","null","","","null","29","","","","","","","","","","","","","","","NaN",""
"","S1","","html-keyboard-response","200","207965","0.0-1.0-272.0","0","0","25560","","null","","","null","30","","","","","","","","","","","","","","","",""
"","ISI","","html-keyboard-response","201","208120","0.0-1.0-273.0","0","0","25560","","null","","","null","30","NaN","","","","","","","","","","","","","","",""
"","S2","","html-keyboard-response","202","208377","0.0-1.0-274.0","0","0","25560","","null","","","null","30","","NaN","","","","","","","","","","","","","",""
"","response","","html-keyboard-response","203","208677","0.0-1.0-275.0-0.0","0","0","25560","","296","","","68","30","","","1","30","training","adjacent","BC","2","3","Q.jpg","M.jpg","1","1","1","",""
"","feedback","","html-keyboard-response","204","209683","0.0-1.0-276.0-0.0","0","0","25560","","null","","","null","30","","","","","","","","","","","","","","","",""
"","ITI","","html-keyboard-response","205","210689","0.0-1.0-279.0","0","0","25560","","null","","","null","30","","","","","","","","","","","","","","","NaN",""
"","S1","","html-keyboard-response","206","210946","0.0-1.0-281.0","0","0","25560","","null","","","null","31","","","","","","","","","","","","","","","",""
"","ISI","","html-keyboard-response","207","211098","0.0-1.0-282.0","0","0","25560","","null","","","null","31","NaN","","","","","","","","","","","","","","",""
"","S2","","html-keyboard-response","208","211355","0.0-1.0-283.0","0","0","25560","","null","","","null","31","","NaN","","","","","","","","","","","","","",""
"","response","","html-keyboard-response","209","211644","0.0-1.0-284.0-0.0","0","0","25560","","283","","","68","31","","","1","31","training","adjacent","FE","6","5","N.jpg","P.jpg","1","0","0","",""
"","feedback","","html-keyboard-response","210","212650","0.0-1.0-285.0-0.0","0","0","25560","","null","","","null","31","","","","","","","","","","","","","","","",""
"","time_out","","html-keyboard-response","211","214655","0.0-1.0-287.0-0.0","0","0","25560","","null","","","null","31","","","","","","","","","","","","","","","",""
"","ITI","","html-keyboard-response","212","215661","0.0-1.0-288.0","0","0","25560","","null","","","null","31","","","","","","","","","","","","","","","NaN",""
"","S1","","html-keyboard-response","213","215917","0.0-1.0-290.0","0","0","25560","","null","","","null","32","","","","","","","","","","","","","","","",""
"","ISI","","html-keyboard-response","214","216072","0.0-1.0-291.0","0","0","25560","","null","","","null","32","NaN","","","","","","","","","","","","","","",""
"","S2","","html-keyboard-response","215","216328","0.0-1.0-292.0","0","0","25560","","null","","","null","32","","NaN","","","","","","","","","","","","","",""
"","response","","html-keyboard-response","216","216588","0.0-1.0-293.0-0.0","0","0","25560","","255","","","68","32","","","1","32","training","adjacent","AB","1","2","R.jpg","Q.jpg","1","1","1","",""
"","feedback","","html-keyboard-response","217","217595","0.0-1.0-294.0-0.0","0","0","25560","","null","","","null","32","","","","","","","","","","","","","","","",""
"","ITI","","html-keyboard-response","218","218602","0.0-1.0-297.0","0","0","25560","","null","","","null","32","","","","","","","","","","","","","","","NaN",""
"","S1","","html-keyboard-response","219","218858","0.0-1.0-299.0","0","0","25560","","null","","","null","33","","","","","","","","","","","","","","","",""
"","ISI","","html-keyboard-response","220","219027","0.0-1.0-300.0","0","0","25560","","null","","","null","33","NaN","","","","","","","","","","","","","","",""
"","S2","","html-keyboard-response","221","219283","0.0-1.0-301.0","0","0","25560","","null","","","null","33","","NaN","","","","","","","","","","","","","",""
"","response","","html-keyboard-response","222","219602","0.0-1.0-302.0-0.0","0","0","25560","","315","","","68","33","","","1","33","training","adjacent","FE","6","5","N.jpg","P.jpg","1","0","0","",""
"","feedback","","html-keyboard-response","223","220607","0.0-1.0-303.0-0.0","0","0","25560","","null","","","null","33","","","","","","","","","","","","","","","",""
"","time_out","","html-keyboard-response","224","222613","0.0-1.0-305.0-0.0","0","0","25560","","null","","","null","33","","","","","","","","","","","","","","","",""
"","ITI","","html-keyboard-response","225","223618","0.0-1.0-306.0","0","0","25560","","null","","","null","33","","","","","","","","","","","","","","","NaN",""
"","S1","","html-keyboard-response","226","223873","0.0-1.0-308.0","0","0","25560","","null","","","null","34","","","","","","","","","","","","","","","",""
"","ISI","","html-keyboard-response","227","224028","0.0-1.0-309.0","0","0","25560","","null","","","null","34","NaN","","","","","","","","","","","","","","",""
"","S2","","html-keyboard-response","228","224284","0.0-1.0-310.0","0","0","25560","","null","","","null","34","","NaN","","","","","","","","","","","","","",""
"","response","","html-keyboard-response","229","224580","0.0-1.0-311.0-0.0","0","0","25560","","292","","","75","34","","","1","34","training","adjacent","CB","3","2","M.jpg","Q.jpg","0","0","1","",""
"","feedback","","html-keyboard-response","230","225585","0.0-1.0-312.0-0.0","0","0","25560","","null","","","null","34","","","","","","","","","","","","","","","",""
"","ITI","","html-keyboard-response","231","226589","0.0-1.0-315.0","0","0","25560","","null","","","null","34","","","","","","","","","","","","","","","NaN",""
"","S1","","html-keyboard-response","232","226846","0.0-1.0-317.0","0","0","25560","","null","","","null","35","","","","","","","","","","","","","","","",""
"","ISI","","html-keyboard-response","233","227001","0.0-1.0-318.0","0","0","25560","","null","","","null","35","NaN","","","","","","","","","","","","","","",""
"","S2","","html-keyboard-response","234","227256","0.0-1.0-319.0","0","0","25560","","null","","","null","35","","NaN","","","","","","","","","","","","","",""
"","response","","html-keyboard-response","235","227530","0.0-1.0-320.0-0.0","0","0","25560","","270","","","68","35","","","1","35","training","adjacent","CD","3","4","M.jpg","O.jpg","1","1","1","",""
"","feedback","","html-keyboard-response","236","228536","0.0-1.0-321.0-0.0","0","0","25560","","null","","","null","35","","","","","","","","","","","","","","","",""
"","ITI","","html-keyboard-response","237","229540","0.0-1.0-324.0","0","0","25560","","null","","","null","35","","","","","","","","","","","","","","","NaN",""
"","S1","","html-keyboard-response","238","229796","0.0-1.0-326.0","0","0","25560","","null","","","null","36","","","","","","","","","","","","","","","",""
"","ISI","","html-keyboard-response","239","229951","0.0-1.0-327.0","0","0","25560","","null","","","null","36","NaN","","","","","","","","","","","","","","",""
"","S2","","html-keyboard-response","240","230207","0.0-1.0-328.0","0","0","25560","","null","","","null","36","","NaN","","","","","","","","","","","","","",""
"","response","","html-keyboard-response","241","231028","0.0-1.0-329.0-0.0","0","0","25560","","817","","","68","36","","","1","36","training","adjacent","DE","4","5","O.jpg","P.jpg","1","1","1","",""
"","feedback","","html-keyboard-response","242","232036","0.0-1.0-330.0-0.0","0","0","25560","","null","","","null","36","","","","","","","","","","","","","","","",""
"","ITI","","html-keyboard-response","243","233042","0.0-1.0-333.0","0","0","25560","","null","","","null","36","","","","","","","","","","","","","","","NaN",""
"","S1","","html-keyboard-response","244","233298","0.0-1.0-335.0","0","0","25560","","null","","","null","37","","","","","","","","","","","","","","","",""
"","ISI","","html-keyboard-response","245","233453","0.0-1.0-336.0","0","0","25560","","null","","","null","37","NaN","","","","","","","","","","","","","","",""
"","S2","","html-keyboard-response","246","233710","0.0-1.0-337.0","0","0","25560","","null","","","null","37","","NaN","","","","","","","","","","","","","",""
"","response","","html-keyboard-response","247","234100","0.0-1.0-338.0-0.0","0","0","25560","","385","","","75","37","","","1","37","training","adjacent","BA","2","1","Q.jpg","R.jpg","0","0","1","",""
"","feedback","","html-keyboard-response","248","235117","0.0-1.0-339.0-0.0","0","0","25560","","null","","","null","37","","","","","","","","","","","","","","","",""
"","ITI","","html-keyboard-response","249","236130","0.0-1.0-342.0","0","0","25560","","null","","","null","37","","","","","","","","","","","","","","","NaN",""
"","S1","","html-keyboard-response","250","236384","0.0-1.0-344.0","0","0","25560","","null","","","null","38","","","","","","","","","","","","","","","",""
"","ISI","","html-keyboard-response","251","236539","0.0-1.0-345.0","0","0","25560","","null","","","null","38","NaN","","","","","","","","","","","","","","",""
"","S2","","html-keyboard-response","252","236795","0.0-1.0-346.0","0","0","25560","","null","","","null","38","","NaN","","","","","","","","","","","","","",""
"","response","","html-keyboard-response","253","237372","0.0-1.0-347.0-0.0","0","0","25560","","571","","","75","38","","","1","38","training","adjacent","DE","4","5","O.jpg","P.jpg","0","1","0","",""
"","feedback","","html-keyboard-response","254","238378","0.0-1.0-348.0-0.0","0","0","25560","","null","","","null","38","","","","","","","","","","","","","","","",""
"","time_out","","html-keyboard-response","255","240383","0.0-1.0-350.0-0.0","0","0","25560","","null","","","null","38","","","","","","","","","","","","","","","",""
"","ITI","","html-keyboard-response","256","241389","0.0-1.0-351.0","0","0","25560","","null","","","null","38","","","","","","","","","","","","","","","NaN",""
"","S1","","html-keyboard-response","257","241645","0.0-1.0-353.0","0","0","25560","","null","","","null","39","","","","","","","","","","","","","","","",""
"","ISI","","html-keyboard-response","258","241801","0.0-1.0-354.0","0","0","25560","","null","","","null","39","NaN","","","","","","","","","","","","","","",""
"","S2","","html-keyboard-response","259","242057","0.0-1.0-355.0","0","0","25560","","null","","","null","39","","NaN","","","","","","","","","","","","","",""
"","response","","html-keyboard-response","260","242484","0.0-1.0-356.0-0.0","0","0","25560","","421","","","75","39","","","1","39","training","adjacent","ED","5","4","P.jpg","O.jpg","0","0","1","",""
"","feedback","","html-keyboard-response","261","243491","0.0-1.0-357.0-0.0","0","0","25560","","null","","","null","39","","","","","","","","","","","","","","","",""
"","ITI","","html-keyboard-response","262","244497","0.0-1.0-360.0","0","0","25560","","null","","","null","39","","","","","","","","","","","","","","","NaN",""
"","S1","","html-keyboard-response","263","244755","0.0-1.0-362.0","0","0","25560","","null","","","null","40","","","","","","","","","","","","","","","",""
"","ISI","","html-keyboard-response","264","244911","0.0-1.0-363.0","0","0","25560","","null","","","null","40","NaN","","","","","","","","","","","","","","",""
"","S2","","html-keyboard-response","265","245167","0.0-1.0-364.0","0","0","25560","","null","","","null","40","","NaN","","","","","","","","","","","","","",""
"","response","","html-keyboard-response","266","245843","0.0-1.0-365.0-0.0","0","0","25560","","672","","","75","40","","","1","40","training","adjacent","BC","2","3","Q.jpg","M.jpg","0","1","0","",""
"","feedback","","html-keyboard-response","267","246849","0.0-1.0-366.0-0.0","0","0","25560","","null","","","null","40","","","","","","","","","","","","","","","",""
"","time_out","","html-keyboard-response","268","248868","0.0-1.0-368.0-0.0","0","0","25560","","null","","","null","40","","","","","","","","","","","","","","","",""
"","ITI","","html-keyboard-response","269","249875","0.0-1.0-369.0","0","0","25560","","null","","","null","40","","","","","","","","","","","","","","","NaN",""
"","S1","","html-keyboard-response","270","250131","0.0-1.0-371.0","0","0","25560","","null","","","null","41","","","","","","","","","","","","","","","",""
"","ISI","","html-keyboard-response","271","250286","0.0-1.0-372.0","0","0","25560","","null","","","null","41","NaN","","","","","","","","","","","","","","",""
"","S2","","html-keyboard-response","272","250549","0.0-1.0-373.0","0","0","25560","","null","","","null","41","","NaN","","","","","","","","","","","","","",""
"","response","","html-keyboard-response","273","250851","0.0-1.0-374.0-0.0","0","0","25560","","297","","","75","41","","","1","41","training","adjacent","BA","2","1","Q.jpg","R.jpg","0","0","1","",""
"","feedback","","html-keyboard-response","274","251858","0.0-1.0-375.0-0.0","0","0","25560","","null","","","null","41","","","","","","","","","","","","","","","",""
"","ITI","","html-keyboard-response","275","252864","0.0-1.0-378.0","0","0","25560","","null","","","null","41","","","","","","","","","","","","","","","NaN",""
"","S1","","html-keyboard-response","276","253120","0.0-1.0-380.0","0","0","25560","","null","","","null","42","","","","","","","","","","","","","","","",""
"","ISI","","html-keyboard-response","277","253275","0.0-1.0-381.0","0","0","25560","","null","","","null","42","NaN","","","","","","","","","","","","","","",""
"","S2","","html-keyboard-response","278","253530","0.0-1.0-382.0","0","0","25560","","null","","","null","42","","NaN","","","","","","","","","","","","","",""
"","response","","html-keyboard-response","279","253652","0.0-1.0-383.0-0.0","0","0","25560","","116","","","68","42","","","1","42","training","adjacent","GF","7","6","L.jpg","N.jpg","1","0","0","",""
"","feedback","","html-keyboard-response","280","254659","0.0-1.0-384.0-0.0","0","0","25560","","null","","","null","42","","","","","","","","","","","","","","","",""
"","time_out","","html-keyboard-response","281","256665","0.0-1.0-386.0-0.0","0","0","25560","","null","","","null","42","","","","","","","","","","","","","","","",""
"","ITI","","html-keyboard-response","282","257670","0.0-1.0-387.0","0","0","25560","","null","","","null","42","","","","","","","","","","","","","","","NaN",""
"","S1","","html-keyboard-response","283","257927","0.0-1.0-389.0","0","0","25560","","null","","","null","43","","","","","","","","","","","","","","","",""
"","ISI","","html-keyboard-response","284","258081","0.0-1.0-390.0","0","0","25560","","null","","","null","43","NaN","","","","","","","","","","","","","","",""
"","S2","","html-keyboard-response","285","258337","0.0-1.0-391.0","0","0","25560","","null","","","null","43","","NaN","","","","","","","","","","","","","",""
"","response","","html-keyboard-response","286","258595","0.0-1.0-392.0-0.0","0","0","25560","","253","","","68","43","","","1","43","training","adjacent","FE","6","5","N.jpg","P.jpg","1","0","0","",""
"","feedback","","html-keyboard-response","287","259602","0.0-1.0-393.0-0.0","0","0","25560","","null","","","null","43","","","","","","","","","","","","","","","",""
"","time_out","","html-keyboard-response","288","261609","0.0-1.0-395.0-0.0","0","0","25560","","null","","","null","43","","","","","","","","","","","","","","","",""
"","ITI","","html-keyboard-response","289","262614","0.0-1.0-396.0","0","0","25560","","null","","","null","43","","","","","","","","","","","","","","","NaN",""
"","S1","","html-keyboard-response","290","262871","0.0-1.0-398.0","0","0","25560","","null","","","null","44","","","","","","","","","","","","","","","",""
"","ISI","","html-keyboard-response","291","263026","0.0-1.0-399.0","0","0","25560","","null","","","null","44","NaN","","","","","","","","","","","","","","",""
"","S2","","html-keyboard-response","292","263282","0.0-1.0-400.0","0","0","25560","","null","","","null","44","","NaN","","","","","","","","","","","","","",""
"","response","","html-keyboard-response","293","263561","0.0-1.0-401.0-0.0","0","0","25560","","275","","","68","44","","","1","44","training","adjacent","FG","6","7","N.jpg","L.jpg","1","1","1","",""
"","feedback","","html-keyboard-response","294","264566","0.0-1.0-402.0-0.0","0","0","25560","","null","","","null","44","","","","","","","","","","","","","","","",""
"","ITI","","html-keyboard-response","295","265571","0.0-1.0-405.0","0","0","25560","","null","","","null","44","","","","","","","","","","","","","","","NaN",""
"","S1","","html-keyboard-response","296","265828","0.0-1.0-407.0","0","0","25560","","null","","","null","45","","","","","","","","","","","","","","","",""
"","ISI","","html-keyboard-response","297","265985","0.0-1.0-408.0","0","0","25560","","null","","","null","45","NaN","","","","","","","","","","","","","","",""
"","S2","","html-keyboard-response","298","266240","0.0-1.0-409.0","0","0","25560","","null","","","null","45","","NaN","","","","","","","","","","","","","",""
"","response","","html-keyboard-response","299","266387","0.0-1.0-410.0-0.0","0","0","25560","","142","","","68","45","","","1","45","training","adjacent","AB","1","2","R.jpg","Q.jpg","1","1","1","",""
"","feedback","","html-keyboard-response","300","267394","0.0-1.0-411.0-0.0","0","0","25560","","null","","","null","45","","","","","","","","","","","","","","","",""
"","ITI","","html-keyboard-response","301","268399","0.0-1.0-414.0","0","0","25560","","null","","","null","45","","","","","","","","","","","","","","","NaN",""
"","S1","","html-keyboard-response","302","268655","0.0-1.0-416.0","0","0","25560","","null","","","null","46","","","","","","","","","","","","","","","",""
"","ISI","","html-keyboard-response","303","268810","0.0-1.0-417.0","0","0","25560","","null","","","null","46","NaN","","","","","","","","","","","","","","",""
"","S2","","html-keyboard-response","304","269066","0.0-1.0-418.0","0","0","25560","","null","","","null","46","","NaN","","","","","","","","","","","","","",""
"","response","","html-keyboard-response","305","269387","0.0-1.0-419.0-0.0","0","0","25560","","317","","","68","46","","","1","46","training","adjacent","ED","5","4","P.jpg","O.jpg","1","0","0","",""
"","feedback","","html-keyboard-response","306","270394","0.0-1.0-420.0-0.0","0","0","25560","","null","","","null","46","","","","","","","","","","","","","","","",""
"","time_out","","html-keyboard-response","307","272398","0.0-1.0-422.0-0.0","0","0","25560","","null","","","null","46","","","","","","","","","","","","","","","",""
"","ITI","","html-keyboard-response","308","273403","0.0-1.0-423.0","0","0","25560","","null","","","null","46","","","","","","","","","","","","","","","NaN",""
"","S1","","html-keyboard-response","309","273658","0.0-1.0-425.0","0","0","25560","","null","","","null","47","","","","","","","","","","","","","","","",""
"","ISI","","html-keyboard-response","310","273812","0.0-1.0-426.0","0","0","25560","","null","","","null","47","NaN","","","","","","","","","","","","","","",""
"","S2","","html-keyboard-response","311","274068","0.0-1.0-427.0","0","0","25560","","null","","","null","47","","NaN","","","","","","","","","","","","","",""
"","response","","html-keyboard-response","312","274483","0.0-1.0-428.0-0.0","0","0","25560","","410","","","75","47","","","1","47","training","adjacent","EF","5","6","P.jpg","N.jpg","0","1","0","",""
"","feedback","","html-keyboard-response","313","275491","0.0-1.0-429.0-0.0","0","0","25560","","null","","","null","47","","","","","","","","","","","","","","","",""
"","time_out","","html-keyboard-response","314","277497","0.0-1.0-431.0-0.0","0","0","25560","","null","","","null","47","","","","","","","","","","","","","","","",""
"","ITI","","html-keyboard-response","315","278505","0.0-1.0-432.0","0","0","25560","","null","","","null","47","","","","","","","","","","","","","","","NaN",""
"","block_over","","html-keyboard-response","316","281900","0.0-1.0-433.0-0.0","0","0","25560","","3382","","","32","47","","","","","","","","","","","","","","","",""
"","S1","","html-keyboard-response","317","282156","0.0-1.0-434.0","0","0","25560","","null","","","null","48","","","","","","","","","","","","","","","",""
"","ISI","","html-keyboard-response","318","282312","0.0-1.0-435.0","0","0","25560","","null","","","null","48","NaN","","","","","","","","","","","","","","",""
"","S2","","html-keyboard-response","319","282568","0.0-1.0-436.0","0","0","25560","","null","","","null","48","","NaN","","","","","","","","","","","","","",""
"","response","","html-keyboard-response","320","282931","0.0-1.0-437.0-0.0","0","0","25560","","359","","","68","48","","","2","48","training","adjacent","FE","6","5","N.jpg","P.jpg","1","0","0","",""
"","feedback","","html-keyboard-response","321","283938","0.0-1.0-438.0-0.0","0","0","25560","","null","","","null","48","","","","","","","","","","","","","","","",""
"","time_out","","html-keyboard-response","322","285944","0.0-1.0-440.0-0.0","0","0","25560","","null","","","null","48","","","","","","","","","","","","","","","",""
"","ITI","","html-keyboard-response","323","286950","0.0-1.0-441.0","0","0","25560","","null","","","null","48","","","","","","","","","","","","","","","NaN",""
"","S1","","html-keyboard-response","324","287207","0.0-1.0-443.0","0","0","25560","","null","","","null","49","","","","","","","","","","","","","","","",""
"","ISI","","html-keyboard-response","325","287362","0.0-1.0-444.0","0","0","25560","","null","","","null","49","NaN","","","","","","","","","","","","","","",""
"","S2","","html-keyboard-response","326","287618","0.0-1.0-445.0","0","0","25560","","null","","","null","49","","NaN","","","","","","","","","","","","","",""
"","response","","html-keyboard-response","327","287852","0.0-1.0-446.0-0.0","0","0","25560","","228","","","68","49","","","2","49","training","adjacent","FG","6","7","N.jpg","L.jpg","1","1","1","",""
"","feedback","","html-keyboard-response","328","288865","0.0-1.0-447.0-0.0","0","0","25560","","null","","","null","49","","","","","","","","","","","","","","","",""
"","ITI","","html-keyboard-response","329","289870","0.0-1.0-450.0","0","0","25560","","null","","","null","49","","","","","","","","","","","","","","","NaN",""
"","S1","","html-keyboard-response","330","290126","0.0-1.0-452.0","0","0","25560","","null","","","null","50","","","","","","","","","","","","","","","",""
"","ISI","","html-keyboard-response","331","290285","0.0-1.0-453.0","0","0","25560","","null","","","null","50","NaN","","","","","","","","","","","","","","",""
"","S2","","html-keyboard-response","332","290541","0.0-1.0-454.0","0","0","25560","","null","","","null","50","","NaN","","","","","","","","","","","","","",""
"","response","","html-keyboard-response","333","290731","0.0-1.0-455.0-0.0","0","0","25560","","186","","","75","50","","","2","50","training","adjacent","GF","7","6","L.jpg","N.jpg","0","0","1","",""
"","feedback","","html-keyboard-response","334","291738","0.0-1.0-456.0-0.0","0","0","25560","","null","","","null","50","","","","","","","","","","","","","","","",""
"","ITI","","html-keyboard-response","335","292745","0.0-1.0-459.0","0","0","25560","","null","","","null","50","","","","","","","","","","","","","","","NaN",""
"","S1","","html-keyboard-response","336","293001","0.0-1.0-461.0","0","0","25560","","null","","","null","51","","","","","","","","","","","","","","","",""
"","ISI","","html-keyboard-response","337","293157","0.0-1.0-462.0","0","0","25560","","null","","","null","51","NaN","","","","","","","","","","","","","","",""
"","S2","","html-keyboard-response","338","293412","0.0-1.0-463.0","0","0","25560","","null","","","null","51","","NaN","","","","","","","","","","","","","",""
"","response","","html-keyboard-response","339","293667","0.0-1.0-464.0-0.0","0","0","25560","","250","","","75","51","","","2","51","training","adjacent","GF","7","6","L.jpg","N.jpg","0","0","1","",""
"","feedback","","html-keyboard-response","340","294675","0.0-1.0-465.0-0.0","0","0","25560","","null","","","null","51","","","","","","","","","","","","","","","",""
"","ITI","","html-keyboard-response","341","295681","0.0-1.0-468.0","0","0","25560","","null","","","null","51","","","","","","","","","","","","","","","NaN",""
"","S1","","html-keyboard-response","342","295937","0.0-1.0-470.0","0","0","25560","","null","","","null","52","","","","","","","","","","","","","","","",""
"","ISI","","html-keyboard-response","343","296093","0.0-1.0-471.0","0","0","25560","","null","","","null","52","NaN","","","","","","","","","","","","","","",""
"","S2","","html-keyboard-response","344","296350","0.0-1.0-472.0","0","0","25560","","null","","","null","52","","NaN","","","","","","","","","","","","","",""
"","response","","html-keyboard-response","345","296564","0.0-1.0-473.0-0.0","0","0","25560","","209","","","75","52","","","2","52","training","adjacent","EF","5","6","P.jpg","N.jpg","0","1","0","",""
"","feedback","","html-keyboard-response","346","297571","0.0-1.0-474.0-0.0","0","0","25560","","null","","","null","52","","","","","","","","","","","","","","","",""
"","time_out","","html-keyboard-response","347","299577","0.0-1.0-476.0-0.0","0","0","25560","","null","","","null","52","","","","","","","","","","","","","","","",""
"","ITI","","html-keyboard-response","348","300583","0.0-1.0-477.0","0","0","25560","","null","","","null","52","","","","","","","","","","","","","","","NaN",""
"","S1","","html-keyboard-response","349","300839","0.0-1.0-479.0","0","0","25560","","null","","","null","53","","","","","","","","","","","","","","","",""
"","ISI","","html-keyboard-response","350","300995","0.0-1.0-480.0","0","0","25560","","null","","","null","53","NaN","","","","","","","","","","","","","","",""
"","S2","","html-keyboard-response","351","301251","0.0-1.0-481.0","0","0","25560","","null","","","null","53","","NaN","","","","","","","","","","","","","",""
"","response","","html-keyboard-response","352","301628","0.0-1.0-482.0-0.0","0","0","25560","","372","","","75","53","","","2","53","training","adjacent","CB","3","2","M.jpg","Q.jpg","0","0","1","",""
"","feedback","","html-keyboard-response","353","302634","0.0-1.0-483.0-0.0","0","0","25560","","null","","","null","53","","","","","","","","","","","","","","","",""
"","ITI","","html-keyboard-response","354","303651","0.0-1.0-486.0","0","0","25560","","null","","","null","53","","","","","","","","","","","","","","","NaN",""
"","S1","","html-keyboard-response","355","303906","0.0-1.0-488.0","0","0","25560","","null","","","null","54","","","","","","","","","","","","","","","",""
"","ISI","","html-keyboard-response","356","304061","0.0-1.0-489.0","0","0","25560","","null","","","null","54","NaN","","","","","","","","","","","","","","",""
"","S2","","html-keyboard-response","357","304316","0.0-1.0-490.0","0","0","25560","","null","","","null","54","","NaN","","","","","","","","","","","","","",""
"","response","","html-keyboard-response","358","304809","0.0-1.0-491.0-0.0","0","0","25560","","489","","","75","54","","","2","54","training","adjacent","DC","4","3","O.jpg","M.jpg","0","0","1","",""
"","feedback","","html-keyboard-response","359","305813","0.0-1.0-492.0-0.0","0","0","25560","","null","","","null","54","","","","","","","","","","","","","","","",""
"","ITI","","html-keyboard-response","360","306819","0.0-1.0-495.0","0","0","25560","","null","","","null","54","","","","","","","","","","","","","","","NaN",""
"","S1","","html-keyboard-response","361","307075","0.0-1.0-497.0","0","0","25560","","null","","","null","55","","","","","","","","","","","","","","","",""
"","ISI","","html-keyboard-response","362","307230","0.0-1.0-498.0","0","0","25560","","null","","","null","55","NaN","","","","","","","","","","","","","","",""
"","S2","","html-keyboard-response","363","307487","0.0-1.0-499.0","0","0","25560","","null","","","null","55","","NaN","","","","","","","","","","","","","",""
"","response","","html-keyboard-response","364","307844","0.0-1.0-500.0-0.0","0","0","25560","","353","","","68","55","","","2","55","training","adjacent","EF","5","6","P.jpg","N.jpg","1","1","1","",""
"","feedback","","html-keyboard-response","365","308851","0.0-1.0-501.0-0.0","0","0","25560","","null","","","null","55","","","","","","","","","","","","","","","",""
"","ITI","","html-keyboard-response","366","309857","0.0-1.0-504.0","0","0","25560","","null","","","null","55","","","","","","","","","","","","","","","NaN",""
"","S1","","html-keyboard-response","367","310113","0.0-1.0-506.0","0","0","25560","","null","","","null","56","","","","","","","","","","","","","","","",""
"","ISI","","html-keyboard-response","368","310268","0.0-1.0-507.0","0","0","25560","","null","","","null","56","NaN","","","","","","","","","","","","","","",""
"","S2","","html-keyboard-response","369","310525","0.0-1.0-508.0","0","0","25560","","null","","","null","56","","NaN","","","","","","","","","","","","","",""
"","response","","html-keyboard-response","370","310972","0.0-1.0-509.0-0.0","0","0","25560","","442","","","68","56","","","2","56","training","adjacent","CD","3","4","M.jpg","O.jpg","1","1","1","",""
"","feedback","","html-keyboard-response","371","311979","0.0-1.0-510.0-0.0","0","0","25560","","null","","","null","56","","","","","","","","","","","","","","","",""
"","ITI","","html-keyboard-response","372","312997","0.0-1.0-513.0","0","0","25560","","null","","","null","56","","","","","","","","","","","","","","","NaN",""
"","S1","","html-keyboard-response","373","313253","0.0-1.0-515.0","0","0","25560","","null","","","null","57","","","","","","","","","","","","","","","",""
"","ISI","","html-keyboard-response","374","313408","0.0-1.0-516.0","0","0","25560","","null","","","null","57","NaN","","","","","","","","","","","","","","",""
"","S2","","html-keyboard-response","375","313664","0.0-1.0-517.0","0","0","25560","","null","","","null","57","","NaN","","","","","","","","","","","","","",""
"","response","","html-keyboard-response","376","313876","0.0-1.0-518.0-0.0","0","0","25560","","208","","","68","57","","","2","57","training","adjacent","AB","1","2","R.jpg","Q.jpg","1","1","1","",""
"","feedback","","html-keyboard-response","377","314882","0.0-1.0-519.0-0.0","0","0","25560","","null","","","null","57","","","","","","","","","","","","","","","",""
"","ITI","","html-keyboard-response","378","315889","0.0-1.0-522.0","0","0","25560","","null","","","null","57","","","","","","","","","","","","","","","NaN",""
"","S1","","html-keyboard-response","379","316145","0.0-1.0-524.0","0","0","25560","","null","","","null","58","","","","","","","","","","","","","","","",""
"","ISI","","html-keyboard-response","380","316300","0.0-1.0-525.0","0","0","25560","","null","","","null","58","NaN","","","","","","","","","","","","","","",""
"","S2","","html-keyboard-response","381","316556","0.0-1.0-526.0","0","0","25560","","null","","","null","58","","NaN","","","","","","","","","","","","","",""
"","response","","html-keyboard-response","382","316900","0.0-1.0-527.0-0.0","0","0","25560","","339","","","75","58","","","2","58","training","adjacent","CB","3","2","M.jpg","Q.jpg","0","0","1","",""
"","feedback","","html-keyboard-response","383","317907","0.0-1.0-528.0-0.0","0","0","25560","","null","","","null","58","","","","","","","","","","","","","","","",""
"","ITI","","html-keyboard-response","384","318913","0.0-1.0-531.0","0","0","25560","","null","","","null","58","","","","","","","","","","","","","","","NaN",""
"","S1","","html-keyboard-response","385","319168","0.0-1.0-533.0","0","0","25560","","null","","","null","59","","","","","","","","","","","","","","","",""
"","ISI","","html-keyboard-response","386","319322","0.0-1.0-534.0","0","0","25560","","null","","","null","59","NaN","","","","","","","","","","","","","","",""
"","S2","","html-keyboard-response","387","319577","0.0-1.0-535.0","0","0","25560","","null","","","null","59","","NaN","","","","","","","","","","","","","",""
"","response","","html-keyboard-response","388","319893","0.0-1.0-536.0-0.0","0","0","25560","","311","","","68","59","","","2","59","training","adjacent","FG","6","7","N.jpg","L.jpg","1","1","1","",""
"","feedback","","html-keyboard-response","389","320898","0.0-1.0-537.0-0.0","0","0","25560","","null","","","null","59","","","","","","","","","","","","","","","",""
"","ITI","","html-keyboard-response","390","321904","0.0-1.0-540.0","0","0","25560","","null","","","null","59","","","","","","","","","","","","","","","NaN",""
"","S1","","html-keyboard-response","391","322160","0.0-1.0-542.0","0","0","25560","","null","","","null","60","","","","","","","","","","","","","","","",""
"","ISI","","html-keyboard-response","392","322315","0.0-1.0-543.0","0","0","25560","","null","","","null","60","NaN","","","","","","","","","","","","","","",""
"","S2","","html-keyboard-response","393","322572","0.0-1.0-544.0","0","0","25560","","null","","","null","60","","NaN","","","","","","","","","","","","","",""
"","response","","html-keyboard-response","394","323196","0.0-1.0-545.0-0.0","0","0","25560","","618","","","75","60","","","2","60","training","adjacent","DC","4","3","O.jpg","M.jpg","0","0","1","",""
"","feedback","","html-keyboard-response","395","324203","0.0-1.0-546.0-0.0","0","0","25560","","null","","","null","60","","","","","","","","","","","","","","","",""
"","ITI","","html-keyboard-response","396","325211","0.0-1.0-549.0","0","0","25560","","null","","","null","60","","","","","","","","","","","","","","","NaN",""
"","S1","","html-keyboard-response","397","325467","0.0-1.0-551.0","0","0","25560","","null","","","null","61","","","","","","","","","","","","","","","",""
"","ISI","","html-keyboard-response","398","325637","0.0-1.0-552.0","0","0","25560","","null","","","null","61","NaN","","","","","","","","","","","","","","",""
"","S2","","html-keyboard-response","399","325894","0.0-1.0-553.0","0","0","25560","","null","","","null","61","","NaN","","","","","","","","","","","","","",""
"","response","","html-keyboard-response","400","326312","0.0-1.0-554.0-0.0","0","0","25560","","416","","","68","61","","","2","61","training","adjacent","CD","3","4","M.jpg","O.jpg","1","1","1","",""
"","feedback","","html-keyboard-response","401","327317","0.0-1.0-555.0-0.0","0","0","25560","","null","","","null","61","","","","","","","","","","","","","","","",""
"","ITI","","html-keyboard-response","402","328324","0.0-1.0-558.0","0","0","25560","","null","","","null","61","","","","","","","","","","","","","","","NaN",""
"","S1","","html-keyboard-response","403","328580","0.0-1.0-560.0","0","0","25560","","null","","","null","62","","","","","","","","","","","","","","","",""
"","ISI","","html-keyboard-response","404","328735","0.0-1.0-561.0","0","0","25560","","null","","","null","62","NaN","","","","","","","","","","","","","","",""
"","S2","","html-keyboard-response","405","328992","0.0-1.0-562.0","0","0","25560","","null","","","null","62","","NaN","","","","","","","","","","","","","",""
"","response","","html-keyboard-response","406","329181","0.0-1.0-563.0-0.0","0","0","25560","","183","","","75","62","","","2","62","training","adjacent","BA","2","1","Q.jpg","R.jpg","0","0","1","",""
"","feedback","","html-keyboard-response","407","330187","0.0-1.0-564.0-0.0","0","0","25560","","null","","","null","62","","","","","","","","","","","","","","","",""
"","ITI","","html-keyboard-response","408","331191","0.0-1.0-567.0","0","0","25560","","null","","","null","62","","","","","","","","","","","","","","","NaN",""
"","S1","","html-keyboard-response","409","331446","0.0-1.0-569.0","0","0","25560","","null","","","null","63","","","","","","","","","","","","","","","",""
"","ISI","","html-keyboard-response","410","331600","0.0-1.0-570.0","0","0","25560","","null","","","null","63","NaN","","","","","","","","","","","","","","",""
"","S2","","html-keyboard-response","411","331853","0.0-1.0-571.0","0","0","25560","","null","","","null","63","","NaN","","","","","","","","","","","","","",""
"","response","","html-keyboard-response","412","332416","0.0-1.0-572.0-0.0","0","0","25560","","560","","","75","63","","","2","63","training","adjacent","FE","6","5","N.jpg","P.jpg","0","0","1","",""
"","feedback","","html-keyboard-response","413","333420","0.0-1.0-573.0-0.0","0","0","25560","","null","","","null","63","","","","","","","","","","","","","","","",""
"","ITI","","html-keyboard-response","414","334431","0.0-1.0-576.0","0","0","25560","","null","","","null","63","","","","","","","","","","","","","","","NaN",""
"","S1","","html-keyboard-response","415","334687","0.0-1.0-578.0","0","0","25560","","null","","","null","64","","","","","","","","","","","","","","","",""
"","ISI","","html-keyboard-response","416","334843","0.0-1.0-579.0","0","0","25560","","null","","","null","64","NaN","","","","","","","","","","","","","","",""
"","S2","","html-keyboard-response","417","335099","0.0-1.0-580.0","0","0","25560","","null","","","null","64","","NaN","","","","","","","","","","","","","",""
"","response","","html-keyboard-response","418","335452","0.0-1.0-581.0-0.0","0","0","25560","","348","","","68","64","","","2","64","training","adjacent","FG","6","7","N.jpg","L.jpg","1","1","1","",""
"","feedback","","html-keyboard-response","419","336459","0.0-1.0-582.0-0.0","0","0","25560","","null","","","null","64","","","","","","","","","","","","","","","",""
"","ITI","","html-keyboard-response","420","337465","0.0-1.0-585.0","0","0","25560","","null","","","null","64","","","","","","","","","","","","","","","NaN",""
"","S1","","html-keyboard-response","421","337722","0.0-1.0-587.0","0","0","25560","","null","","","null","65","","","","","","","","","","","","","","","",""
"","ISI","","html-keyboard-response","422","337877","0.0-1.0-588.0","0","0","25560","","null","","","null","65","NaN","","","","","","","","","","","","","","",""
"","S2","","html-keyboard-response","423","338133","0.0-1.0-589.0","0","0","25560","","null","","","null","65","","NaN","","","","","","","","","","","","","",""
"","response","","html-keyboard-response","424","338372","0.0-1.0-590.0-0.0","0","0","25560","","234","","","75","65","","","2","65","training","adjacent","BA","2","1","Q.jpg","R.jpg","0","0","1","",""
"","feedback","","html-keyboard-response","425","339380","0.0-1.0-591.0-0.0","0","0","25560","","null","","","null","65","","","","","","","","","","","","","","","",""
"","ITI","","html-keyboard-response","426","340387","0.0-1.0-594.0","0","0","25560","","null","","","null","65","","","","","","","","","","","","","","","NaN",""
"","S1","","html-keyboard-response","427","340643","0.0-1.0-596.0","0","0","25560","","null","","","null","66","","","","","","","","","","","","","","","",""
"","ISI","","html-keyboard-response","428","340798","0.0-1.0-597.0","0","0","25560","","null","","","null","66","NaN","","","","","","","","","","","","","","",""
"","S2","","html-keyboard-response","429","341055","0.0-1.0-598.0","0","0","25560","","null","","","null","66","","NaN","","","","","","","","","","","","","",""
"","response","","html-keyboard-response","430","341405","0.0-1.0-599.0-0.0","0","0","25560","","344","","","68","66","","","2","66","training","adjacent","ED","5","4","P.jpg","O.jpg","1","0","0","",""
"","feedback","","html-keyboard-response","431","342422","0.0-1.0-600.0-0.0","0","0","25560","","null","","","null","66","","","","","","","","","","","","","","","",""
"","time_out","","html-keyboard-response","432","344428","0.0-1.0-602.0-0.0","0","0","25560","","null","","","null","66","","","","","","","","","","","","","","","",""
"","ITI","","html-keyboard-response","433","345433","0.0-1.0-603.0","0","0","25560","","null","","","null","66","","","","","","","","","","","","","","","NaN",""
"","S1","","html-keyboard-response","434","345689","0.0-1.0-605.0","0","0","25560","","null","","","null","67","","","","","","","","","","","","","","","",""
"","ISI","","html-keyboard-response","435","345844","0.0-1.0-606.0","0","0","25560","","null","","","null","67","NaN","","","","","","","","","","","","","","",""
"","S2","","html-keyboard-response","436","346100","0.0-1.0-607.0","0","0","25560","","null","","","null","67","","NaN","","","","","","","","","","","","","",""
"","response","","html-keyboard-response","437","346524","0.0-1.0-608.0-0.0","0","0","25560","","419","","","75","67","","","2","67","training","adjacent","CB","3","2","M.jpg","Q.jpg","0","0","1","",""
"","feedback","","html-keyboard-response","438","347532","0.0-1.0-609.0-0.0","0","0","25560","","null","","","null","67","","","","","","","","","","","","","","","",""
"","ITI","","html-keyboard-response","439","348550","0.0-1.0-612.0","0","0","25560","","null","","","null","67","","","","","","","","","","","","","","","NaN",""
"","S1","","html-keyboard-response","440","348805","0.0-1.0-614.0","0","0","25560","","null","","","null","68","","","","","","","","","","","","","","","",""
"","ISI","","html-keyboard-response","441","348961","0.0-1.0-615.0","0","0","25560","","null","","","null","68","NaN","","","","","","","","","","","","","","",""
"","S2","","html-keyboard-response","442","349218","0.0-1.0-616.0","0","0","25560","","null","","","null","68","","NaN","","","","","","","","","","","","","",""
"","response","","html-keyboard-response","443","350437","0.0-1.0-617.0-0.0","0","0","25560","","1214","","","75","68","","","2","68","training","adjacent","BC","2","3","Q.jpg","M.jpg","0","1","0","",""
"","feedback","","html-keyboard-response","444","351444","0.0-1.0-618.0-0.0","0","0","25560","","null","","","null","68","","","","","","","","","","","","","","","",""
"","time_out","","html-keyboard-response","445","353449","0.0-1.0-620.0-0.0","0","0","25560","","null","","","null","68","","","","","","","","","","","","","","","",""
"","ITI","","html-keyboard-response","446","354455","0.0-1.0-621.0","0","0","25560","","null","","","null","68","","","","","","","","","","","","","","","NaN",""
"","S1","","html-keyboard-response","447","354712","0.0-1.0-623.0","0","0","25560","","null","","","null","69","","","","","","","","","","","","","","","",""
"","ISI","","html-keyboard-response","448","354867","0.0-1.0-624.0","0","0","25560","","null","","","null","69","NaN","","","","","","","","","","","","","","",""
"","S2","","html-keyboard-response","449","355123","0.0-1.0-625.0","0","0","25560","","null","","","null","69","","NaN","","","","","","","","","","","","","",""
"","response","","html-keyboard-response","450","355445","0.0-1.0-626.0-0.0","0","0","25560","","316","","","75","69","","","2","69","training","adjacent","BA","2","1","Q.jpg","R.jpg","0","0","1","",""
"","feedback","","html-keyboard-response","451","356451","0.0-1.0-627.0-0.0","0","0","25560","","null","","","null","69","","","","","","","","","","","","","","","",""
"","ITI","","html-keyboard-response","452","357458","0.0-1.0-630.0","0","0","25560","","null","","","null","69","","","","","","","","","","","","","","","NaN",""
"","S1","","html-keyboard-response","453","357715","0.0-1.0-632.0","0","0","25560","","null","","","null","70","","","","","","","","","","","","","","","",""
"","ISI","","html-keyboard-response","454","357871","0.0-1.0-633.0","0","0","25560","","null","","","null","70","NaN","","","","","","","","","","","","","","",""
"","S2","","html-keyboard-response","455","358127","0.0-1.0-634.0","0","0","25560","","null","","","null","70","","NaN","","","","","","","","","","","","","",""
"","response","","html-keyboard-response","456","358468","0.0-1.0-635.0-0.0","0","0","25560","","336","","","68","70","","","2","70","training","adjacent","CB","3","2","M.jpg","Q.jpg","1","0","0","",""
"","feedback","","html-keyboard-response","457","359475","0.0-1.0-636.0-0.0","0","0","25560","","null","","","null","70","","","","","","","","","","","","","","","",""
"","time_out","","html-keyboard-response","458","361482","0.0-1.0-638.0-0.0","0","0","25560","","null","","","null","70","","","","","","","","","","","","","","","",""
"","ITI","","html-keyboard-response","459","362487","0.0-1.0-639.0","0","0","25560","","null","","","null","70","","","","","","","","","","","","","","","NaN",""
"","S1","","html-keyboard-response","460","362743","0.0-1.0-641.0","0","0","25560","","null","","","null","71","","","","","","","","","","","","","","","",""
"","ISI","","html-keyboard-response","461","362898","0.0-1.0-642.0","0","0","25560","","null","","","null","71","NaN","","","","","","","","","","","","","","",""
"","S2","","html-keyboard-response","462","363154","0.0-1.0-643.0","0","0","25560","","null","","","null","71","","NaN","","","","","","","","","","","","","",""
"","response","","html-keyboard-response","463","363511","0.0-1.0-644.0-0.0","0","0","25560","","349","","","68","71","","","2","71","training","adjacent","EF","5","6","P.jpg","N.jpg","1","1","1","",""
"","feedback","","html-keyboard-response","464","364521","0.0-1.0-645.0-0.0","0","0","25560","","null","","","null","71","","","","","","","","","","","","","","","",""
"","ITI","","html-keyboard-response","465","365529","0.0-1.0-648.0","0","0","25560","","null","","","null","71","","","","","","","","","","","","","","","NaN",""
"","S1","","html-keyboard-response","466","365785","0.0-1.0-650.0","0","0","25560","","null","","","null","72","","","","","","","","","","","","","","","",""
"","ISI","","html-keyboard-response","467","365940","0.0-1.0-651.0","0","0","25560","","null","","","null","72","NaN","","","","","","","","","","","","","","",""
"","S2","","html-keyboard-response","468","366196","0.0-1.0-652.0","0","0","25560","","null","","","null","72","","NaN","","","","","","","","","","","","","",""
"","response","","html-keyboard-response","469","366746","0.0-1.0-653.0-0.0","0","0","25560","","546","","","75","72","","","2","72","training","adjacent","FE","6","5","N.jpg","P.jpg","0","0","1","",""
"","feedback","","html-keyboard-response","470","367751","0.0-1.0-654.0-0.0","0","0","25560","","null","","","null","72","","","","","","","","","","","","","","","",""
"","ITI","","html-keyboard-response","471","368758","0.0-1.0-657.0","0","0","25560","","null","","","null","72","","","","","","","","","","","","","","","NaN",""
"","S1","","html-keyboard-response","472","369013","0.0-1.0-659.0","0","0","25560","","null","","","null","73","","","","","","","","","","","","","","","",""
"","ISI","","html-keyboard-response","473","369168","0.0-1.0-660.0","0","0","25560","","null","","","null","73","NaN","","","","","","","","","","","","","","",""
"","S2","","html-keyboard-response","474","369426","0.0-1.0-661.0","0","0","25560","","null","","","null","73","","NaN","","","","","","","","","","","","","",""
"","response","","html-keyboard-response","475","369788","0.0-1.0-662.0-0.0","0","0","25560","","357","","","75","73","","","2","73","training","adjacent","BA","2","1","Q.jpg","R.jpg","0","0","1","",""
"","feedback","","html-keyboard-response","476","370796","0.0-1.0-663.0-0.0","0","0","25560","","null","","","null","73","","","","","","","","","","","","","","","",""
"","ITI","","html-keyboard-response","477","371802","0.0-1.0-666.0","0","0","25560","","null","","","null","73","","","","","","","","","","","","","","","NaN",""
"","S1","","html-keyboard-response","478","372057","0.0-1.0-668.0","0","0","25560","","null","","","null","74","","","","","","","","","","","","","","","",""
"","ISI","","html-keyboard-response","479","372212","0.0-1.0-669.0","0","0","25560","","null","","","null","74","NaN","","","","","","","","","","","","","","",""
"","S2","","html-keyboard-response","480","372468","0.0-1.0-670.0","0","0","25560","","null","","","null","74","","NaN","","","","","","","","","","","","","",""
"","response","","html-keyboard-response","481","372716","0.0-1.0-671.0-0.0","0","0","25560","","243","","","68","74","","","2","74","training","adjacent","FG","6","7","N.jpg","L.jpg","1","1","1","",""
"","feedback","","html-keyboard-response","482","373723","0.0-1.0-672.0-0.0","0","0","25560","","null","","","null","74","","","","","","","","","","","","","","","",""
"","ITI","","html-keyboard-response","483","374730","0.0-1.0-675.0","0","0","25560","","null","","","null","74","","","","","","","","","","","","","","","NaN",""
"","S1","","html-keyboard-response","484","374986","0.0-1.0-677.0","0","0","25560","","null","","","null","75","","","","","","","","","","","","","","","",""
"","ISI","","html-keyboard-response","485","375141","0.0-1.0-678.0","0","0","25560","","null","","","null","75","NaN","","","","","","","","","","","","","","",""
"","S2","","html-keyboard-response","486","375395","0.0-1.0-679.0","0","0","25560","","null","","","null","75","","NaN","","","","","","","","","","","","","",""
"","response","","html-keyboard-response","487","375884","0.0-1.0-680.0-0.0","0","0","25560","","485","","","68","75","","","2","75","training","adjacent","CD","3","4","M.jpg","O.jpg","1","1","1","",""
"","feedback","","html-keyboard-response","488","376892","0.0-1.0-681.0-0.0","0","0","25560","","null","","","null","75","","","","","","","","","","","","","","","",""
"","ITI","","html-keyboard-response","489","377912","0.0-1.0-684.0","0","0","25560","","null","","","null","75","","","","","","","","","","","","","","","NaN",""
"","S1","","html-keyboard-response","490","378168","0.0-1.0-686.0","0","0","25560","","null","","","null","76","","","","","","","","","","","","","","","",""
"","ISI","","html-keyboard-response","491","378324","0.0-1.0-687.0","0","0","25560","","null","","","null","76","NaN","","","","","","","","","","","","","","",""
"","S2","","html-keyboard-response","492","378580","0.0-1.0-688.0","0","0","25560","","null","","","null","76","","NaN","","","","","","","","","","","","","",""
"","response","","html-keyboard-response","493","379109","0.0-1.0-689.0-0.0","0","0","25560","","523","","","75","76","","","2","76","training","adjacent","DC","4","3","O.jpg","M.jpg","0","0","1","",""
"","feedback","","html-keyboard-response","494","380117","0.0-1.0-690.0-0.0","0","0","25560","","null","","","null","76","","","","","","","","","","","","","","","",""
"","ITI","","html-keyboard-response","495","381124","0.0-1.0-693.0","0","0","25560","","null","","","null","76","","","","","","","","","","","","","","","NaN",""
"","S1","","html-keyboard-response","496","381380","0.0-1.0-695.0","0","0","25560","","null","","","null","77","","","","","","","","","","","","","","","",""
"","ISI","","html-keyboard-response","497","381534","0.0-1.0-696.0","0","0","25560","","null","","","null","77","NaN","","","","","","","","","","","","","","",""
"","S2","","html-keyboard-response","498","381790","0.0-1.0-697.0","0","0","25560","","null","","","null","77","","NaN","","","","","","","","","","","","","",""
"","response","","html-keyboard-response","499","382068","0.0-1.0-698.0-0.0","0","0","25560","","273","","","68","77","","","2","77","training","adjacent","AB","1","2","R.jpg","Q.jpg","1","1","1","",""
"","feedback","","html-keyboard-response","500","383075","0.0-1.0-699.0-0.0","0","0","25560","","null","","","null","77","","","","","","","","","","","","","","","",""
"","ITI","","html-keyboard-response","501","384083","0.0-1.0-702.0","0","0","25560","","null","","","null","77","","","","","","","","","","","","","","","NaN",""
"","S1","","html-keyboard-response","502","384340","0.0-1.0-704.0","0","0","25560","","null","","","null","78","","","","","","","","","","","","","","","",""
"","ISI","","html-keyboard-response","503","384496","0.0-1.0-705.0","0","0","25560","","null","","","null","78","NaN","","","","","","","","","","","","","","",""
"","S2","","html-keyboard-response","504","384752","0.0-1.0-706.0","0","0","25560","","null","","","null","78","","NaN","","","","","","","","","","","","","",""
"","response","","html-keyboard-response","505","385300","0.0-1.0-707.0-0.0","0","0","25560","","543","","","75","78","","","2","78","training","adjacent","CD","3","4","M.jpg","O.jpg","0","1","0","",""
"","feedback","","html-keyboard-response","506","386307","0.0-1.0-708.0-0.0","0","0","25560","","null","","","null","78","","","","","","","","","","","","","","","",""
"","time_out","","html-keyboard-response","507","388314","0.0-1.0-710.0-0.0","0","0","25560","","null","","","null","78","","","","","","","","","","","","","","","",""
"","ITI","","html-keyboard-response","508","389318","0.0-1.0-711.0","0","0","25560","","null","","","null","78","","","","","","","","","","","","","","","NaN",""
"","S1","","html-keyboard-response","509","389572","0.0-1.0-713.0","0","0","25560","","null","","","null","79","","","","","","","","","","","","","","","",""
"","ISI","","html-keyboard-response","510","389727","0.0-1.0-714.0","0","0","25560","","null","","","null","79","NaN","","","","","","","","","","","","","","",""
"","S2","","html-keyboard-response","511","389982","0.0-1.0-715.0","0","0","25560","","null","","","null","79","","NaN","","","","","","","","","","","","","",""
"","response","","html-keyboard-response","512","390444","0.0-1.0-716.0-0.0","0","0","25560","","457","","","75","79","","","2","79","training","adjacent","FE","6","5","N.jpg","P.jpg","0","0","1","",""
"","feedback","","html-keyboard-response","513","391450","0.0-1.0-717.0-0.0","0","0","25560","","null","","","null","79","","","","","","","","","","","","","","","",""
"","ITI","","html-keyboard-response","514","392456","0.0-1.0-720.0","0","0","25560","","null","","","null","79","","","","","","","","","","","","","","","NaN",""
"","S1","","html-keyboard-response","515","392711","0.0-1.0-722.0","0","0","25560","","null","","","null","80","","","","","","","","","","","","","","","",""
"","ISI","","html-keyboard-response","516","392866","0.0-1.0-723.0","0","0","25560","","null","","","null","80","NaN","","","","","","","","","","","","","","",""
"","S2","","html-keyboard-response","517","393121","0.0-1.0-724.0","0","0","25560","","null","","","null","80","","NaN","","","","","","","","","","","","","",""
"","response","","html-keyboard-response","518","393340","0.0-1.0-725.0-0.0","0","0","25560","","214","","","68","80","","","2","80","training","adjacent","GF","7","6","L.jpg","N.jpg","1","0","0","",""
"","feedback","","html-keyboard-response","519","394347","0.0-1.0-726.0-0.0","0","0","25560","","null","","","null","80","","","","","","","","","","","","","","","",""
"","time_out","","html-keyboard-response","520","396354","0.0-1.0-728.0-0.0","0","0","25560","","null","","","null","80","","","","","","","","","","","","","","","",""
"","ITI","","html-keyboard-response","521","397364","0.0-1.0-729.0","0","0","25560","","null","","","null","80","","","","","","","","","","","","","","","NaN",""
"","S1","","html-keyboard-response","522","397620","0.0-1.0-731.0","0","0","25560","","null","","","null","81","","","","","","","","","","","","","","","",""
"","ISI","","html-keyboard-response","523","397776","0.0-1.0-732.0","0","0","25560","","null","","","null","81","NaN","","","","","","","","","","","","","","",""
"","S2","","html-keyboard-response","524","398032","0.0-1.0-733.0","0","0","25560","","null","","","null","81","","NaN","","","","","","","","","","","","","",""
"","response","","html-keyboard-response","525","398172","0.0-1.0-734.0-0.0","0","0","25560","","135","","","75","81","","","2","81","training","adjacent","GF","7","6","L.jpg","N.jpg","0","0","1","",""
"","feedback","","html-keyboard-response","526","399183","0.0-1.0-735.0-0.0","0","0","25560","","null","","","null","81","","","","","","","","","","","","","","","",""
"","ITI","","html-keyboard-response","527","400189","0.0-1.0-738.0","0","0","25560","","null","","","null","81","","","","","","","","","","","","","","","NaN",""
"","S1","","html-keyboard-response","528","400445","0.0-1.0-740.0","0","0","25560","","null","","","null","82","","","","","","","","","","","","","","","",""
"","ISI","","html-keyboard-response","529","400601","0.0-1.0-741.0","0","0","25560","","null","","","null","82","NaN","","","","","","","","","","","","","","",""
"","S2","","html-keyboard-response","530","400858","0.0-1.0-742.0","0","0","25560","","null","","","null","82","","NaN","","","","","","","","","","","","","",""
"","response","","html-keyboard-response","531","401565","0.0-1.0-743.0-0.0","0","0","25560","","701","","","75","82","","","2","82","training","adjacent","DC","4","3","O.jpg","M.jpg","0","0","1","",""
"","feedback","","html-keyboard-response","532","402572","0.0-1.0-744.0-0.0","0","0","25560","","null","","","null","82","","","","","","","","","","","","","","","",""
"","ITI","","html-keyboard-response","533","403577","0.0-1.0-747.0","0","0","25560","","null","","","null","82","","","","","","","","","","","","","","","NaN",""
"","S1","","html-keyboard-response","534","403832","0.0-1.0-749.0","0","0","25560","","null","","","null","83","","","","","","","","","","","","","","","",""
"","ISI","","html-keyboard-response","535","403988","0.0-1.0-750.0","0","0","25560","","null","","","null","83","NaN","","","","","","","","","","","","","","",""
"","S2","","html-keyboard-response","536","404244","0.0-1.0-751.0","0","0","25560","","null","","","null","83","","NaN","","","","","","","","","","","","","",""
"","response","","html-keyboard-response","537","404748","0.0-1.0-752.0-0.0","0","0","25560","","499","","","68","83","","","2","83","training","adjacent","ED","5","4","P.jpg","O.jpg","1","0","0","",""
"","feedback","","html-keyboard-response","538","405756","0.0-1.0-753.0-0.0","0","0","25560","","null","","","null","83","","","","","","","","","","","","","","","",""
"","time_out","","html-keyboard-response","539","407762","0.0-1.0-755.0-0.0","0","0","25560","","null","","","null","83","","","","","","","","","","","","","","","",""
"","ITI","","html-keyboard-response","540","408768","0.0-1.0-756.0","0","0","25560","","null","","","null","83","","","","","","","","","","","","","","","NaN",""
"","S1","","html-keyboard-response","541","409024","0.0-1.0-758.0","0","0","25560","","null","","","null","84","","","","","","","","","","","","","","","",""
"","ISI","","html-keyboard-response","542","409180","0.0-1.0-759.0","0","0","25560","","null","","","null","84","NaN","","","","","","","","","","","","","","",""
"","S2","","html-keyboard-response","543","409437","0.0-1.0-760.0","0","0","25560","","null","","","null","84","","NaN","","","","","","","","","","","","","",""
"","response","","html-keyboard-response","544","409781","0.0-1.0-761.0-0.0","0","0","25560","","338","","","75","84","","","2","84","training","adjacent","DE","4","5","O.jpg","P.jpg","0","1","0","",""
"","feedback","","html-keyboard-response","545","410787","0.0-1.0-762.0-0.0","0","0","25560","","null","","","null","84","","","","","","","","","","","","","","","",""
"","time_out","","html-keyboard-response","546","412793","0.0-1.0-764.0-0.0","0","0","25560","","null","","","null","84","","","","","","","","","","","","","","","",""
"","ITI","","html-keyboard-response","547","413799","0.0-1.0-765.0","0","0","25560","","null","","","null","84","","","","","","","","","","","","","","","NaN",""
"","S1","","html-keyboard-response","548","414056","0.0-1.0-767.0","0","0","25560","","null","","","null","85","","","","","","","","","","","","","","","",""
"","ISI","","html-keyboard-response","549","414212","0.0-1.0-768.0","0","0","25560","","null","","","null","85","NaN","","","","","","","","","","","","","","",""
"","S2","","html-keyboard-response","550","414468","0.0-1.0-769.0","0","0","25560","","null","","","null","85","","NaN","","","","","","","","","","","","","",""
"","response","","html-keyboard-response","551","414941","0.0-1.0-770.0-0.0","0","0","25560","","467","","","68","85","","","2","85","training","adjacent","BC","2","3","Q.jpg","M.jpg","1","1","1","",""
"","feedback","","html-keyboard-response","552","415948","0.0-1.0-771.0-0.0","0","0","25560","","null","","","null","85","","","","","","","","","","","","","","","",""
"","ITI","","html-keyboard-response","553","416961","0.0-1.0-774.0","0","0","25560","","null","","","null","85","","","","","","","","","","","","","","","NaN",""
"","S1","","html-keyboard-response","554","417217","0.0-1.0-776.0","0","0","25560","","null","","","null","86","","","","","","","","","","","","","","","",""
"","ISI","","html-keyboard-response","555","417375","0.0-1.0-777.0","0","0","25560","","null","","","null","86","NaN","","","","","","","","","","","","","","",""
"","S2","","html-keyboard-response","556","417631","0.0-1.0-778.0","0","0","25560","","null","","","null","86","","NaN","","","","","","","","","","","","","",""
"","response","","html-keyboard-response","557","418260","0.0-1.0-779.0-0.0","0","0","25560","","623","","","68","86","","","2","86","training","adjacent","DE","4","5","O.jpg","P.jpg","1","1","1","",""
"","feedback","","html-keyboard-response","558","419268","0.0-1.0-780.0-0.0","0","0","25560","","null","","","null","86","","","","","","","","","","","","","","","",""
"","ITI","","html-keyboard-response","559","420275","0.0-1.0-783.0","0","0","25560","","null","","","null","86","","","","","","","","","","","","","","","NaN",""
"","S1","","html-keyboard-response","560","420545","0.0-1.0-785.0","0","0","25560","","null","","","null","87","","","","","","","","","","","","","","","",""
"","ISI","","html-keyboard-response","561","420701","0.0-1.0-786.0","0","0","25560","","null","","","null","87","NaN","","","","","","","","","","","","","","",""
"","S2","","html-keyboard-response","562","420957","0.0-1.0-787.0","0","0","25560","","null","","","null","87","","NaN","","","","","","","","","","","","","",""
"","response","","html-keyboard-response","563","421284","0.0-1.0-788.0-0.0","0","0","25560","","323","","","68","87","","","2","87","training","adjacent","AB","1","2","R.jpg","Q.jpg","1","1","1","",""
"","feedback","","html-keyboard-response","564","422291","0.0-1.0-789.0-0.0","0","0","25560","","null","","","null","87","","","","","","","","","","","","","","","",""
"","ITI","","html-keyboard-response","565","423298","0.0-1.0-792.0","0","0","25560","","null","","","null","87","","","","","","","","","","","","","","","NaN",""
"","S1","","html-keyboard-response","566","423553","0.0-1.0-794.0","0","0","25560","","null","","","null","88","","","","","","","","","","","","","","","",""
"","ISI","","html-keyboard-response","567","423708","0.0-1.0-795.0","0","0","25560","","null","","","null","88","NaN","","","","","","","","","","","","","","",""
"","S2","","html-keyboard-response","568","423964","0.0-1.0-796.0","0","0","25560","","null","","","null","88","","NaN","","","","","","","","","","","","","",""
"","response","","html-keyboard-response","569","424788","0.0-1.0-797.0-0.0","0","0","25560","","818","","","75","88","","","2","88","training","adjacent","ED","5","4","P.jpg","O.jpg","0","0","1","",""
"","feedback","","html-keyboard-response","570","425809","0.0-1.0-798.0-0.0","0","0","25560","","null","","","null","88","","","","","","","","","","","","","","","",""
"","ITI","","html-keyboard-response","571","426815","0.0-1.0-801.0","0","0","25560","","null","","","null","88","","","","","","","","","","","","","","","NaN",""
"","S1","","html-keyboard-response","572","427075","0.0-1.0-803.0","0","0","25560","","null","","","null","89","","","","","","","","","","","","","","","",""
"","ISI","","html-keyboard-response","573","427230","0.0-1.0-804.0","0","0","25560","","null","","","null","89","NaN","","","","","","","","","","","","","","",""
"","S2","","html-keyboard-response","574","427486","0.0-1.0-805.0","0","0","25560","","null","","","null","89","","NaN","","","","","","","","","","","","","",""
"","response","","html-keyboard-response","575","427596","0.0-1.0-806.0-0.0","0","0","25560","","105","","","68","89","","","2","89","training","adjacent","AB","1","2","R.jpg","Q.jpg","1","1","1","",""
"","feedback","","html-keyboard-response","576","428605","0.0-1.0-807.0-0.0","0","0","25560","","null","","","null","89","","","","","","","","","","","","","","","",""
"","ITI","","html-keyboard-response","577","429611","0.0-1.0-810.0","0","0","25560","","null","","","null","89","","","","","","","","","","","","","","","NaN",""
"","S1","","html-keyboard-response","578","429868","0.0-1.0-812.0","0","0","25560","","null","","","null","90","","","","","","","","","","","","","","","",""
"","ISI","","html-keyboard-response","579","430024","0.0-1.0-813.0","0","0","25560","","null","","","null","90","NaN","","","","","","","","","","","","","","",""
"","S2","","html-keyboard-response","580","430280","0.0-1.0-814.0","0","0","25560","","null","","","null","90","","NaN","","","","","","","","","","","","","",""
