"success","ttype","start_time","trial_type","trial_index","time_elapsed","internal_node_id","warning","missed_checkup","PID","view_history","rt","responses","repeat_instructions","key_press","index","keypress_isi","keypress_S2","block","trial_num","phase","group_type","pair_type","S1_stim","S2_stim","S1_img","S2_img","S1_chosen","S1_higher","accuracy","keypress_iti","total_bonus_tally"
"true","full_screen","d04142023hr2020","fullscreen","0","29386","0.0-0.0","0","0","62559","","","","","","","","","","","","","","","","","","","","","",""
"","instructions","","instructions","1","87582","0.0-1.0-0.0-0.0","0","0","62559","[{""page_index"":0,""viewing_time"":6442},{""page_index"":1,""viewing_time"":23257},{""page_index"":2,""viewing_time"":26191},{""page_index"":3,""viewing_time"":2304}]","58195","","","","","","","","","","","","","","","","","","","",""
"","comprehension_check","","survey-multi-choice","2","107417","0.0-1.0-0.0-1.0","0","0","62559","","19832","{""Q0"":""True"",""Q1"":"""",""Q2"":""Once the second image appears and while the screen 'MAKE A CHOICE' is shown"",""Q3"":""Green mark"",""Q4"":""either D or K""}","1","","","","","","","","","","","","","","","","","",""
"","missed_instruction_checkup","","html-keyboard-response","3","109284","0.0-1.0-0.0-2.0-0.0","0","1","62559","","1865","","","32","","","","","","","","","","","","","","","","",""
"","instructions","","instructions","4","115578","0.0-1.0-0.1-0.1","0","0","62559","[{""page_index"":0,""viewing_time"":1690},{""page_index"":1,""viewing_time"":3571},{""page_index"":2,""viewing_time"":428},{""page_index"":3,""viewing_time"":603}]","6292","","","","","","","","","","","","","","","","","","","",""
"","comprehension_check","","survey-multi-choice","5","123034","0.0-1.0-0.1-1.1","0","0","62559","","7453","{""Q0"":""True"",""Q1"":""K"",""Q2"":""Once the second image appears and while the screen 'MAKE A CHOICE' is shown"",""Q3"":""Green mark"",""Q4"":""either D or K""}","0","","","","","","","","","","","","","","","","","",""
"","start_exp","","html-keyboard-response","6","126163","0.0-1.0-1.0","0","0","62559","","3127","","","32","","","","","","","","","","","","","","","","",""
"","S1","","html-keyboard-response","7","126415","0.0-1.0-2.0","0","0","62559","","null","","","null","0","","","","","","","","","","","","","","","",""
"","ISI","","html-keyboard-response","8","127417","0.0-1.0-3.0","0","0","62559","","null","","","null","0","NaN","","","","","","","","","","","","","","",""
"","S2","","html-keyboard-response","9","127669","0.0-1.0-4.0","0","0","62559","","null","","","null","0","","NaN","","","","","","","","","","","","","",""
"","response","","html-keyboard-response","10","128653","0.0-1.0-5.0-0.0","0","0","62559","","982","","","68","0","","","1","0","training","adjacent","AB","1","2","Q.jpg","L.jpg","0","1","0","",""
"","feedback","","html-keyboard-response","11","129655","0.0-1.0-6.0-0.0","0","0","62559","","null","","","null","0","","","","","","","","","","","","","","","",""
"","time_out","","html-keyboard-response","12","131657","0.0-1.0-8.0-0.0","0","0","62559","","null","","","null","0","","","","","","","","","","","","","","","",""
"","ITI","","html-keyboard-response","13","132659","0.0-1.0-9.0","0","0","62559","","null","","","null","0","","","","","","","","","","","","","","","NaN",""
"","S1","","html-keyboard-response","14","132911","0.0-1.0-11.0","0","0","62559","","null","","","null","1","","","","","","","","","","","","","","","",""
"","ISI","","html-keyboard-response","15","133921","0.0-1.0-12.0","0","0","62559","","null","","","null","1","NaN","","","","","","","","","","","","","","",""
"","S2","","html-keyboard-response","16","134173","0.0-1.0-13.0","0","0","62559","","null","","","null","1","","NaN","","","","","","","","","","","","","",""
"","response","","html-keyboard-response","17","134753","0.0-1.0-14.0-0.0","0","0","62559","","578","","","75","1","","","1","1","training","adjacent","BC","2","3","L.jpg","N.jpg","1","1","1","",""
"","feedback","","html-keyboard-response","18","135756","0.0-1.0-15.0-0.0","0","0","62559","","null","","","null","1","","","","","","","","","","","","","","","",""
"","ITI","","html-keyboard-response","19","136758","0.0-1.0-18.0","0","0","62559","","null","","","null","1","","","","","","","","","","","","","","","NaN",""
"","S1","","html-keyboard-response","20","137010","0.0-1.0-20.0","0","0","62559","","null","","","null","2","","","","","","","","","","","","","","","",""
"","ISI","","html-keyboard-response","21","138013","0.0-1.0-21.0","0","0","62559","","null","","","null","2","NaN","","","","","","","","","","","","","","",""
"","S2","","html-keyboard-response","22","138265","0.0-1.0-22.0","0","0","62559","","null","","","null","2","","NaN","","","","","","","","","","","","","",""
"","response","","html-keyboard-response","23","138650","0.0-1.0-23.0-0.0","0","0","62559","","384","","","68","2","","","1","2","training","adjacent","CD","3","4","N.jpg","M.jpg","0","1","0","",""
"","feedback","","html-keyboard-response","24","139666","0.0-1.0-24.0-0.0","0","0","62559","","null","","","null","2","","","","","","","","","","","","","","","",""
"","time_out","","html-keyboard-response","25","141668","0.0-1.0-26.0-0.0","0","0","62559","","null","","","null","2","","","","","","","","","","","","","","","",""
"","ITI","","html-keyboard-response","26","142670","0.0-1.0-27.0","0","0","62559","","null","","","null","2","","","","","","","","","","","","","","","NaN",""
"","S1","","html-keyboard-response","27","142936","0.0-1.0-29.0","0","0","62559","","null","","","null","3","","","","","","","","","","","","","","","",""
"","ISI","","html-keyboard-response","28","143939","0.0-1.0-30.0","0","0","62559","","null","","","null","3","NaN","","","","","","","","","","","","","","",""
"","S2","","html-keyboard-response","29","144191","0.0-1.0-31.0","0","0","62559","","null","","","null","3","","NaN","","","","","","","","","","","","","",""
"","response","","html-keyboard-response","30","144652","0.0-1.0-32.0-0.0","0","0","62559","","461","","","75","3","","","1","3","training","adjacent","GF","7","6","O.jpg","P.jpg","1","0","0","",""
"","feedback","","html-keyboard-response","31","145657","0.0-1.0-33.0-0.0","0","0","62559","","null","","","null","3","","","","","","","","","","","","","","","",""
"","time_out","","html-keyboard-response","32","147660","0.0-1.0-35.0-0.0","0","0","62559","","null","","","null","3","","","","","","","","","","","","","","","",""
"","ITI","","html-keyboard-response","33","148661","0.0-1.0-36.0","0","0","62559","","null","","","null","3","","","","","","","","","","","","","","","NaN",""
"","S1","","html-keyboard-response","34","148913","0.0-1.0-38.0","0","0","62559","","null","","","null","4","","","","","","","","","","","","","","","",""
"","ISI","","html-keyboard-response","35","149919","0.0-1.0-39.0","0","0","62559","","null","","","null","4","NaN","","","","","","","","","","","","","","",""
"","S2","","html-keyboard-response","36","150171","0.0-1.0-40.0","0","0","62559","","null","","","null","4","","NaN","","","","","","","","","","","","","",""
"","response","","html-keyboard-response","37","150633","0.0-1.0-41.0-0.0","0","0","62559","","461","","","75","4","","","1","4","training","adjacent","DE","4","5","M.jpg","R.jpg","1","1","1","",""
"","feedback","","html-keyboard-response","38","151636","0.0-1.0-42.0-0.0","0","0","62559","","null","","","null","4","","","","","","","","","","","","","","","",""
"","ITI","","html-keyboard-response","39","152639","0.0-1.0-45.0","0","0","62559","","null","","","null","4","","","","","","","","","","","","","","","NaN",""
"","S1","","html-keyboard-response","40","152892","0.0-1.0-47.0","0","0","62559","","null","","","null","5","","","","","","","","","","","","","","","",""
"","ISI","","html-keyboard-response","41","153893","0.0-1.0-48.0","0","0","62559","","null","","","null","5","NaN","","","","","","","","","","","","","","",""
"","S2","","html-keyboard-response","42","154145","0.0-1.0-49.0","0","0","62559","","null","","","null","5","","NaN","","","","","","","","","","","","","",""
"","response","","html-keyboard-response","43","154495","0.0-1.0-50.0-0.0","0","0","62559","","348","","","68","5","","","1","5","training","adjacent","DC","4","3","M.jpg","N.jpg","0","0","1","",""
"","feedback","","html-keyboard-response","44","155498","0.0-1.0-51.0-0.0","0","0","62559","","null","","","null","5","","","","","","","","","","","","","","","",""
"","ITI","","html-keyboard-response","45","156500","0.0-1.0-54.0","0","0","62559","","null","","","null","5","","","","","","","","","","","","","","","NaN",""
"","S1","","html-keyboard-response","46","156767","0.0-1.0-56.0","0","0","62559","","null","","","null","6","","","","","","","","","","","","","","","",""
"","ISI","","html-keyboard-response","47","157769","0.0-1.0-57.0","0","0","62559","","null","","","null","6","NaN","","","","","","","","","","","","","","",""
"","S2","","html-keyboard-response","48","158022","0.0-1.0-58.0","0","0","62559","","null","","","null","6","","NaN","","","","","","","","","","","","","",""
"","response","","html-keyboard-response","49","158821","0.0-1.0-59.0-0.0","0","0","62559","","798","","","68","6","","","1","6","training","adjacent","FG","6","7","P.jpg","O.jpg","0","1","0","",""
"","feedback","","html-keyboard-response","50","159823","0.0-1.0-60.0-0.0","0","0","62559","","null","","","null","6","","","","","","","","","","","","","","","",""
"","time_out","","html-keyboard-response","51","161824","0.0-1.0-62.0-0.0","0","0","62559","","null","","","null","6","","","","","","","","","","","","","","","",""
"","ITI","","html-keyboard-response","52","162826","0.0-1.0-63.0","0","0","62559","","null","","","null","6","","","","","","","","","","","","","","","NaN",""
"","S1","","html-keyboard-response","53","163079","0.0-1.0-65.0","0","0","62559","","null","","","null","7","","","","","","","","","","","","","","","",""
"","ISI","","html-keyboard-response","54","164080","0.0-1.0-66.0","0","0","62559","","null","","","null","7","NaN","","","","","","","","","","","","","","",""
"","S2","","html-keyboard-response","55","164333","0.0-1.0-67.0","0","0","62559","","null","","","null","7","","NaN","","","","","","","","","","","","","",""
"","response","","html-keyboard-response","56","164741","0.0-1.0-68.0-0.0","0","0","62559","","408","","","68","7","","","1","7","training","adjacent","FE","6","5","P.jpg","R.jpg","0","0","1","",""
"","feedback","","html-keyboard-response","57","165749","0.0-1.0-69.0-0.0","0","0","62559","","null","","","null","7","","","","","","","","","","","","","","","",""
"","ITI","","html-keyboard-response","58","166751","0.0-1.0-72.0","0","0","62559","","null","","","null","7","","","","","","","","","","","","","","","NaN",""
"","S1","","html-keyboard-response","59","167003","0.0-1.0-74.0","0","0","62559","","null","","","null","8","","","","","","","","","","","","","","","",""
"","ISI","","html-keyboard-response","60","168006","0.0-1.0-75.0","0","0","62559","","null","","","null","8","NaN","","","","","","","","","","","","","","",""
"","S2","","html-keyboard-response","61","168259","0.0-1.0-76.0","0","0","62559","","null","","","null","8","","NaN","","","","","","","","","","","","","",""
"","response","","html-keyboard-response","62","168893","0.0-1.0-77.0-0.0","0","0","62559","","633","","","75","8","","","1","8","training","adjacent","CD","3","4","N.jpg","M.jpg","1","1","1","",""
"","feedback","","html-keyboard-response","63","169895","0.0-1.0-78.0-0.0","0","0","62559","","null","","","null","8","","","","","","","","","","","","","","","",""
"","ITI","","html-keyboard-response","64","170898","0.0-1.0-81.0","0","0","62559","","null","","","null","8","","","","","","","","","","","","","","","NaN",""
"","S1","","html-keyboard-response","65","171150","0.0-1.0-83.0","0","0","62559","","null","","","null","9","","","","","","","","","","","","","","","",""
"","ISI","","html-keyboard-response","66","172152","0.0-1.0-84.0","0","0","62559","","null","","","null","9","NaN","","","","","","","","","","","","","","",""
"","S2","","html-keyboard-response","67","172404","0.0-1.0-85.0","0","0","62559","","null","","","null","9","","NaN","","","","","","","","","","","","","",""
"","response","","html-keyboard-response","68","173055","0.0-1.0-86.0-0.0","0","0","62559","","650","","","68","9","","","1","9","training","adjacent","ED","5","4","R.jpg","M.jpg","0","0","1","",""
"","feedback","","html-keyboard-response","69","174058","0.0-1.0-87.0-0.0","0","0","62559","","null","","","null","9","","","","","","","","","","","","","","","",""
"","ITI","","html-keyboard-response","70","175059","0.0-1.0-90.0","0","0","62559","","null","","","null","9","","","","","","","","","","","","","","","NaN",""
"","S1","","html-keyboard-response","71","175312","0.0-1.0-92.0","0","0","62559","","null","","","null","10","","","","","","","","","","","","","","","",""
"","ISI","","html-keyboard-response","72","176314","0.0-1.0-93.0","0","0","62559","","null","","","null","10","NaN","","","","","","","","","","","","","","",""
"","S2","","html-keyboard-response","73","176565","0.0-1.0-94.0","0","0","62559","","null","","","null","10","","NaN","","","","","","","","","","","","","",""
"","response","","html-keyboard-response","74","176905","0.0-1.0-95.0-0.0","0","0","62559","","338","","","75","10","","","1","10","training","adjacent","FE","6","5","P.jpg","R.jpg","1","0","0","",""
"","feedback","","html-keyboard-response","75","177906","0.0-1.0-96.0-0.0","0","0","62559","","null","","","null","10","","","","","","","","","","","","","","","",""
"","time_out","","html-keyboard-response","76","179909","0.0-1.0-98.0-0.0","0","0","62559","","null","","","null","10","","","","","","","","","","","","","","","",""
"","ITI","","html-keyboard-response","77","180911","0.0-1.0-99.0","0","0","62559","","null","","","null","10","","","","","","","","","","","","","","","NaN",""
"","S1","","html-keyboard-response","78","181163","0.0-1.0-101.0","0","0","62559","","null","","","null","11","","","","","","","","","","","","","","","",""
"","ISI","","html-keyboard-response","79","182165","0.0-1.0-102.0","0","0","62559","","null","","","null","11","NaN","","","","","","","","","","","","","","",""
"","S2","","html-keyboard-response","80","182416","0.0-1.0-103.0","0","0","62559","","null","","","null","11","","NaN","","","","","","","","","","","","","",""
"","response","","html-keyboard-response","81","182591","0.0-1.0-104.0-0.0","0","0","62559","","173","","","75","11","","","1","11","training","adjacent","BC","2","3","L.jpg","N.jpg","1","1","1","",""
"","feedback","","html-keyboard-response","82","183593","0.0-1.0-105.0-0.0","0","0","62559","","null","","","null","11","","","","","","","","","","","","","","","",""
"","ITI","","html-keyboard-response","83","184595","0.0-1.0-108.0","0","0","62559","","null","","","null","11","","","","","","","","","","","","","","","NaN",""
"","S1","","html-keyboard-response","84","184847","0.0-1.0-110.0","0","0","62559","","null","","","null","12","","","","","","","","","","","","","","","",""
"","ISI","","html-keyboard-response","85","185850","0.0-1.0-111.0","0","0","62559","","null","","","null","12","NaN","","","","","","","","","","","","","","",""
"","S2","","html-keyboard-response","86","186102","0.0-1.0-112.0","0","0","62559","","null","","","null","12","","NaN","","","","","","","","","","","","","",""
"","response","","html-keyboard-response","87","186454","0.0-1.0-113.0-0.0","0","0","62559","","351","","","75","12","","","1","12","training","adjacent","FG","6","7","P.jpg","O.jpg","1","1","1","",""
"","feedback","","html-keyboard-response","88","187456","0.0-1.0-114.0-0.0","0","0","62559","","null","","","null","12","","","","","","","","","","","","","","","",""
"","ITI","","html-keyboard-response","89","188458","0.0-1.0-117.0","0","0","62559","","null","","","null","12","","","","","","","","","","","","","","","NaN",""
"","S1","","html-keyboard-response","90","188711","0.0-1.0-119.0","0","0","62559","","null","","","null","13","","","","","","","","","","","","","","","",""
"","ISI","","html-keyboard-response","91","189713","0.0-1.0-120.0","0","0","62559","","null","","","null","13","NaN","","","","","","","","","","","","","","",""
"","S2","","html-keyboard-response","92","189965","0.0-1.0-121.0","0","0","62559","","null","","","null","13","","NaN","","","","","","","","","","","","","",""
"","response","","html-keyboard-response","93","190123","0.0-1.0-122.0-0.0","0","0","62559","","156","","","75","13","","","1","13","training","adjacent","ED","5","4","R.jpg","M.jpg","1","0","0","",""
"","feedback","","html-keyboard-response","94","191125","0.0-1.0-123.0-0.0","0","0","62559","","null","","","null","13","","","","","","","","","","","","","","","",""
"","time_out","","html-keyboard-response","95","193127","0.0-1.0-125.0-0.0","0","0","62559","","null","","","null","13","","","","","","","","","","","","","","","",""
"","ITI","","html-keyboard-response","96","194129","0.0-1.0-126.0","0","0","62559","","null","","","null","13","","","","","","","","","","","","","","","NaN",""
"","S1","","html-keyboard-response","97","194381","0.0-1.0-128.0","0","0","62559","","null","","","null","14","","","","","","","","","","","","","","","",""
"","ISI","","html-keyboard-response","98","195384","0.0-1.0-129.0","0","0","62559","","null","","","null","14","NaN","","","","","","","","","","","","","","",""
"","S2","","html-keyboard-response","99","195636","0.0-1.0-130.0","0","0","62559","","null","","","null","14","","NaN","","","","","","","","","","","","","",""
"","response","","html-keyboard-response","100","195798","0.0-1.0-131.0-0.0","0","0","62559","","161","","","68","14","","","1","14","training","adjacent","BA","2","1","L.jpg","Q.jpg","0","0","1","",""
"","feedback","","html-keyboard-response","101","196800","0.0-1.0-132.0-0.0","0","0","62559","","null","","","null","14","","","","","","","","","","","","","","","",""
"","ITI","","html-keyboard-response","102","197802","0.0-1.0-135.0","0","0","62559","","null","","","null","14","","","","","","","","","","","","","","","NaN",""
"","S1","","html-keyboard-response","103","198055","0.0-1.0-137.0","0","0","62559","","null","","","null","15","","","","","","","","","","","","","","","",""
"","ISI","","html-keyboard-response","104","199057","0.0-1.0-138.0","0","0","62559","","null","","","null","15","NaN","","","","","","","","","","","","","","",""
"","S2","","html-keyboard-response","105","199309","0.0-1.0-139.0","0","0","62559","","null","","","null","15","","NaN","","","","","","","","","","","","","",""
"","response","","html-keyboard-response","106","199585","0.0-1.0-140.0-0.0","0","0","62559","","275","","","68","15","","","1","15","training","adjacent","DE","4","5","M.jpg","R.jpg","0","1","0","",""
"","feedback","","html-keyboard-response","107","200600","0.0-1.0-141.0-0.0","0","0","62559","","null","","","null","15","","","","","","","","","","","","","","","",""
"","time_out","","html-keyboard-response","108","202602","0.0-1.0-143.0-0.0","0","0","62559","","null","","","null","15","","","","","","","","","","","","","","","",""
"","ITI","","html-keyboard-response","109","203604","0.0-1.0-144.0","0","0","62559","","null","","","null","15","","","","","","","","","","","","","","","NaN",""
"","S1","","html-keyboard-response","110","203856","0.0-1.0-146.0","0","0","62559","","null","","","null","16","","","","","","","","","","","","","","","",""
"","ISI","","html-keyboard-response","111","204857","0.0-1.0-147.0","0","0","62559","","null","","","null","16","NaN","","","","","","","","","","","","","","",""
"","S2","","html-keyboard-response","112","205110","0.0-1.0-148.0","0","0","62559","","null","","","null","16","","NaN","","","","","","","","","","","","","",""
"","response","","html-keyboard-response","113","205540","0.0-1.0-149.0-0.0","0","0","62559","","428","","","75","16","","","1","16","training","adjacent","CB","3","2","N.jpg","L.jpg","1","0","0","",""
"","feedback","","html-keyboard-response","114","206542","0.0-1.0-150.0-0.0","0","0","62559","","null","","","null","16","","","","","","","","","","","","","","","",""
"","time_out","","html-keyboard-response","115","208545","0.0-1.0-152.0-0.0","0","0","62559","","null","","","null","16","","","","","","","","","","","","","","","",""
"","ITI","","html-keyboard-response","116","209547","0.0-1.0-153.0","0","0","62559","","null","","","null","16","","","","","","","","","","","","","","","NaN",""
"","S1","","html-keyboard-response","117","209799","0.0-1.0-155.0","0","0","62559","","null","","","null","17","","","","","","","","","","","","","","","",""
"","ISI","","html-keyboard-response","118","210802","0.0-1.0-156.0","0","0","62559","","682","","","68","17","d","","","","","","","","","","","","","","",""
"","S2","","html-keyboard-response","119","211055","0.0-1.0-157.0","0","0","62559","","null","","","null","17","","NaN","","","","","","","","","","","","","",""
"","response","","html-keyboard-response","120","211251","0.0-1.0-158.0-0.0","0","0","62559","","195","","","68","17","","","1","17","training","adjacent","DC","4","3","M.jpg","N.jpg","0","0","1","",""
"","feedback","","html-keyboard-response","121","212253","0.0-1.0-159.0-0.0","0","0","62559","","null","","","null","17","","","","","","","","","","","","","","","",""
"","ITI","","html-keyboard-response","122","213255","0.0-1.0-162.0","0","0","62559","","null","","","null","17","","","","","","","","","","","","","","","NaN",""
"","S1","","html-keyboard-response","123","213507","0.0-1.0-164.0","0","0","62559","","null","","","null","18","","","","","","","","","","","","","","","",""
"","ISI","","html-keyboard-response","124","214510","0.0-1.0-165.0","0","0","62559","","null","","","null","18","NaN","","","","","","","","","","","","","","",""
"","S2","","html-keyboard-response","125","214761","0.0-1.0-166.0","0","0","62559","","null","","","null","18","","NaN","","","","","","","","","","","","","",""
"","response","","html-keyboard-response","126","215226","0.0-1.0-167.0-0.0","0","0","62559","","464","","","75","18","","","1","18","training","adjacent","EF","5","6","R.jpg","P.jpg","1","1","1","",""
"","feedback","","html-keyboard-response","127","216228","0.0-1.0-168.0-0.0","0","0","62559","","null","","","null","18","","","","","","","","","","","","","","","",""
"","ITI","","html-keyboard-response","128","217230","0.0-1.0-171.0","0","0","62559","","null","","","null","18","","","","","","","","","","","","","","","NaN",""
"","S1","","html-keyboard-response","129","217483","0.0-1.0-173.0","0","0","62559","","null","","","null","19","","","","","","","","","","","","","","","",""
"","ISI","","html-keyboard-response","130","218486","0.0-1.0-174.0","0","0","62559","","null","","","null","19","NaN","","","","","","","","","","","","","","",""
"","S2","","html-keyboard-response","131","218737","0.0-1.0-175.0","0","0","62559","","null","","","null","19","","NaN","","","","","","","","","","","","","",""
"","response","","html-keyboard-response","132","219597","0.0-1.0-176.0-0.0","0","0","62559","","858","","","75","19","","","1","19","training","adjacent","GF","7","6","O.jpg","P.jpg","1","0","0","",""
"","feedback","","html-keyboard-response","133","220600","0.0-1.0-177.0-0.0","0","0","62559","","null","","","null","19","","","","","","","","","","","","","","","",""
"","time_out","","html-keyboard-response","134","222602","0.0-1.0-179.0-0.0","0","0","62559","","null","","","null","19","","","","","","","","","","","","","","","",""
"","ITI","","html-keyboard-response","135","223603","0.0-1.0-180.0","0","0","62559","","null","","","null","19","","","","","","","","","","","","","","","NaN",""
"","S1","","html-keyboard-response","136","223855","0.0-1.0-182.0","0","0","62559","","null","","","null","20","","","","","","","","","","","","","","","",""
"","ISI","","html-keyboard-response","137","224857","0.0-1.0-183.0","0","0","62559","","null","","","null","20","NaN","","","","","","","","","","","","","","",""
"","S2","","html-keyboard-response","138","225110","0.0-1.0-184.0","0","0","62559","","null","","","null","20","","NaN","","","","","","","","","","","","","",""
"","response","","html-keyboard-response","139","226154","0.0-1.0-185.0-0.0","0","0","62559","","1043","","","75","20","","","1","20","training","adjacent","DE","4","5","M.jpg","R.jpg","1","1","1","",""
"","feedback","","html-keyboard-response","140","227156","0.0-1.0-186.0-0.0","0","0","62559","","null","","","null","20","","","","","","","","","","","","","","","",""
"","ITI","","html-keyboard-response","141","228158","0.0-1.0-189.0","0","0","62559","","null","","","null","20","","","","","","","","","","","","","","","NaN",""
"","S1","","html-keyboard-response","142","228410","0.0-1.0-191.0","0","0","62559","","null","","","null","21","","","","","","","","","","","","","","","",""
"","ISI","","html-keyboard-response","143","229412","0.0-1.0-192.0","0","0","62559","","null","","","null","21","NaN","","","","","","","","","","","","","","",""
"","S2","","html-keyboard-response","144","229665","0.0-1.0-193.0","0","0","62559","","null","","","null","21","","NaN","","","","","","","","","","","","","",""
"","response","","html-keyboard-response","145","230539","0.0-1.0-194.0-0.0","0","0","62559","","874","","","68","21","","","1","21","training","adjacent","CB","3","2","N.jpg","L.jpg","0","0","1","",""
"","feedback","","html-keyboard-response","146","231542","0.0-1.0-195.0-0.0","0","0","62559","","null","","","null","21","","","","","","","","","","","","","","","",""
"","ITI","","html-keyboard-response","147","232545","0.0-1.0-198.0","0","0","62559","","null","","","null","21","","","","","","","","","","","","","","","NaN",""
"","S1","","html-keyboard-response","148","232797","0.0-1.0-200.0","0","0","62559","","null","","","null","22","","","","","","","","","","","","","","","",""
"","ISI","","html-keyboard-response","149","233799","0.0-1.0-201.0","0","0","62559","","null","","","null","22","NaN","","","","","","","","","","","","","","",""
"","S2","","html-keyboard-response","150","234052","0.0-1.0-202.0","0","0","62559","","null","","","null","22","","NaN","","","","","","","","","","","","","",""
"","response","","html-keyboard-response","151","235394","0.0-1.0-203.0-0.0","0","0","62559","","1341","","","75","22","","","1","22","training","adjacent","AB","1","2","Q.jpg","L.jpg","1","1","1","",""
"","feedback","","html-keyboard-response","152","236396","0.0-1.0-204.0-0.0","0","0","62559","","null","","","null","22","","","","","","","","","","","","","","","",""
"","ITI","","html-keyboard-response","153","237398","0.0-1.0-207.0","0","0","62559","","null","","","null","22","","","","","","","","","","","","","","","NaN",""
"","S1","","html-keyboard-response","154","237651","0.0-1.0-209.0","0","0","62559","","null","","","null","23","","","","","","","","","","","","","","","",""
"","ISI","","html-keyboard-response","155","238653","0.0-1.0-210.0","0","0","62559","","null","","","null","23","NaN","","","","","","","","","","","","","","",""
"","S2","","html-keyboard-response","156","238906","0.0-1.0-211.0","0","0","62559","","null","","","null","23","","NaN","","","","","","","","","","","","","",""
"","response","","html-keyboard-response","157","239710","0.0-1.0-212.0-0.0","0","0","62559","","803","","","68","23","","","1","23","training","adjacent","AB","1","2","Q.jpg","L.jpg","0","1","0","",""
"","feedback","","html-keyboard-response","158","240712","0.0-1.0-213.0-0.0","0","0","62559","","null","","","null","23","","","","","","","","","","","","","","","",""
"","time_out","","html-keyboard-response","159","242713","0.0-1.0-215.0-0.0","0","0","62559","","null","","","null","23","","","","","","","","","","","","","","","",""
"","ITI","","html-keyboard-response","160","243716","0.0-1.0-216.0","0","0","62559","","null","","","null","23","","","","","","","","","","","","","","","NaN",""
"","S1","","html-keyboard-response","161","243968","0.0-1.0-218.0","0","0","62559","","null","","","null","24","","","","","","","","","","","","","","","",""
"","ISI","","html-keyboard-response","162","244969","0.0-1.0-219.0","0","0","62559","","null","","","null","24","NaN","","","","","","","","","","","","","","",""
"","S2","","html-keyboard-response","163","245018","0.0-1.0-220.0","0","0","62559","","47","","","75","24","","k","1","24","training","adjacent","BA","2","1","L.jpg","Q.jpg","1","0","0","",""
"","feedback","","html-keyboard-response","164","246020","0.0-1.0-222.0-0.0","0","0","62559","","null","","","null","24","","","","","","","","","","","","","","","",""
"","time_out","","html-keyboard-response","165","248022","0.0-1.0-224.0-0.0","0","0","62559","","null","","","null","24","","","","","","","","","","","","","","","",""
"","ITI","","html-keyboard-response","166","249024","0.0-1.0-225.0","0","0","62559","","null","","","null","24","","","","","","","","","","","","","","","NaN",""
"","S1","","html-keyboard-response","167","249275","0.0-1.0-227.0","0","0","62559","","null","","","null","25","","","","","","","","","","","","","","","",""
"","ISI","","html-keyboard-response","168","250278","0.0-1.0-228.0","0","0","62559","","null","","","null","25","NaN","","","","","","","","","","","","","","",""
"","S2","","html-keyboard-response","169","250531","0.0-1.0-229.0","0","0","62559","","null","","","null","25","","NaN","","","","","","","","","","","","","",""
"","response","","html-keyboard-response","170","250884","0.0-1.0-230.0-0.0","0","0","62559","","352","","","68","25","","","1","25","training","adjacent","CD","3","4","N.jpg","M.jpg","0","1","0","",""
"","feedback","","html-keyboard-response","171","251886","0.0-1.0-231.0-0.0","0","0","62559","","null","","","null","25","","","","","","","","","","","","","","","",""
"","time_out","","html-keyboard-response","172","253889","0.0-1.0-233.0-0.0","0","0","62559","","null","","","null","25","","","","","","","","","","","","","","","",""
"","ITI","","html-keyboard-response","173","254890","0.0-1.0-234.0","0","0","62559","","null","","","null","25","","","","","","","","","","","","","","","NaN",""
"","S1","","html-keyboard-response","174","255143","0.0-1.0-236.0","0","0","62559","","null","","","null","26","","","","","","","","","","","","","","","",""
"","ISI","","html-keyboard-response","175","256146","0.0-1.0-237.0","0","0","62559","","null","","","null","26","NaN","","","","","","","","","","","","","","",""
"","S2","","html-keyboard-response","176","256399","0.0-1.0-238.0","0","0","62559","","null","","","null","26","","NaN","","","","","","","","","","","","","",""
"","response","","html-keyboard-response","177","256569","0.0-1.0-239.0-0.0","0","0","62559","","169","","","75","26","","","1","26","training","adjacent","FG","6","7","P.jpg","O.jpg","1","1","1","",""
"","feedback","","html-keyboard-response","178","257572","0.0-1.0-240.0-0.0","0","0","62559","","null","","","null","26","","","","","","","","","","","","","","","",""
"","ITI","","html-keyboard-response","179","258574","0.0-1.0-243.0","0","0","62559","","null","","","null","26","","","","","","","","","","","","","","","NaN",""
"","S1","","html-keyboard-response","180","258827","0.0-1.0-245.0","0","0","62559","","null","","","null","27","","","","","","","","","","","","","","","",""
"","ISI","","html-keyboard-response","181","259829","0.0-1.0-246.0","0","0","62559","","null","","","null","27","NaN","","","","","","","","","","","","","","",""
"","S2","","html-keyboard-response","182","260081","0.0-1.0-247.0","0","0","62559","","null","","","null","27","","NaN","","","","","","","","","","","","","",""
"","response","","html-keyboard-response","183","260908","0.0-1.0-248.0-0.0","0","0","62559","","825","","","75","27","","","1","27","training","adjacent","DE","4","5","M.jpg","R.jpg","1","1","1","",""
"","feedback","","html-keyboard-response","184","261910","0.0-1.0-249.0-0.0","0","0","62559","","null","","","null","27","","","","","","","","","","","","","","","",""
"","ITI","","html-keyboard-response","185","262913","0.0-1.0-252.0","0","0","62559","","null","","","null","27","","","","","","","","","","","","","","","NaN",""
"","S1","","html-keyboard-response","186","263164","0.0-1.0-254.0","0","0","62559","","null","","","null","28","","","","","","","","","","","","","","","",""
"","ISI","","html-keyboard-response","187","264166","0.0-1.0-255.0","0","0","62559","","null","","","null","28","NaN","","","","","","","","","","","","","","",""
"","S2","","html-keyboard-response","188","264418","0.0-1.0-256.0","0","0","62559","","null","","","null","28","","NaN","","","","","","","","","","","","","",""
"","response","","html-keyboard-response","189","265077","0.0-1.0-257.0-0.0","0","0","62559","","657","","","68","28","","","1","28","training","adjacent","DC","4","3","M.jpg","N.jpg","0","0","1","",""
"","feedback","","html-keyboard-response","190","266080","0.0-1.0-258.0-0.0","0","0","62559","","null","","","null","28","","","","","","","","","","","","","","","",""
"","ITI","","html-keyboard-response","191","267082","0.0-1.0-261.0","0","0","62559","","null","","","null","28","","","","","","","","","","","","","","","NaN",""
"","S1","","html-keyboard-response","192","267334","0.0-1.0-263.0","0","0","62559","","null","","","null","29","","","","","","","","","","","","","","","",""
"","ISI","","html-keyboard-response","193","268336","0.0-1.0-264.0","0","0","62559","","null","","","null","29","NaN","","","","","","","","","","","","","","",""
"","S2","","html-keyboard-response","194","268589","0.0-1.0-265.0","0","0","62559","","null","","","null","29","","NaN","","","","","","","","","","","","","",""
"","response","","html-keyboard-response","195","268953","0.0-1.0-266.0-0.0","0","0","62559","","364","","","68","29","","","1","29","training","adjacent","EF","5","6","R.jpg","P.jpg","0","1","0","",""
"","feedback","","html-keyboard-response","196","269955","0.0-1.0-267.0-0.0","0","0","62559","","null","","","null","29","","","","","","","","","","","","","","","",""
"","time_out","","html-keyboard-response","197","271958","0.0-1.0-269.0-0.0","0","0","62559","","null","","","null","29","","","","","","","","","","","","","","","",""
"","ITI","","html-keyboard-response","198","272960","0.0-1.0-270.0","0","0","62559","","null","","","null","29","","","","","","","","","","","","","","","NaN",""
"","S1","","html-keyboard-response","199","273213","0.0-1.0-272.0","0","0","62559","","null","","","null","30","","","","","","","","","","","","","","","",""
"","ISI","","html-keyboard-response","200","274215","0.0-1.0-273.0","0","0","62559","","null","","","null","30","NaN","","","","","","","","","","","","","","",""
"","S2","","html-keyboard-response","201","274468","0.0-1.0-274.0","0","0","62559","","null","","","null","30","","NaN","","","","","","","","","","","","","",""
"","response","","html-keyboard-response","202","274917","0.0-1.0-275.0-0.0","0","0","62559","","448","","","75","30","","","1","30","training","adjacent","GF","7","6","O.jpg","P.jpg","1","0","0","",""
"","feedback","","html-keyboard-response","203","275919","0.0-1.0-276.0-0.0","0","0","62559","","null","","","null","30","","","","","","","","","","","","","","","",""
"","time_out","","html-keyboard-response","204","277920","0.0-1.0-278.0-0.0","0","0","62559","","null","","","null","30","","","","","","","","","","","","","","","",""
"","ITI","","html-keyboard-response","205","278922","0.0-1.0-279.0","0","0","62559","","null","","","null","30","","","","","","","","","","","","","","","NaN",""
"","S1","","html-keyboard-response","206","279175","0.0-1.0-281.0","0","0","62559","","null","","","null","31","","","","","","","","","","","","","","","",""
"","ISI","","html-keyboard-response","207","280178","0.0-1.0-282.0","0","0","62559","","89","","","68","31","d","","","","","","","","","","","","","","",""
"","S2","","html-keyboard-response","208","280431","0.0-1.0-283.0","0","0","62559","","null","","","null","31","","NaN","","","","","","","","","","","","","",""
"","response","","html-keyboard-response","209","280808","0.0-1.0-284.0-0.0","0","0","62559","","376","","","75","31","","","1","31","training","adjacent","CB","3","2","N.jpg","L.jpg","1","0","0","",""
"","feedback","","html-keyboard-response","210","281810","0.0-1.0-285.0-0.0","0","0","62559","","null","","","null","31","","","","","","","","","","","","","","","",""
"","time_out","","html-keyboard-response","211","283813","0.0-1.0-287.0-0.0","0","0","62559","","null","","","null","31","","","","","","","","","","","","","","","",""
"","ITI","","html-keyboard-response","212","284814","0.0-1.0-288.0","0","0","62559","","null","","","null","31","","","","","","","","","","","","","","","NaN",""
"","S1","","html-keyboard-response","213","285066","0.0-1.0-290.0","0","0","62559","","null","","","null","32","","","","","","","","","","","","","","","",""
"","ISI","","html-keyboard-response","214","286069","0.0-1.0-291.0","0","0","62559","","null","","","null","32","NaN","","","","","","","","","","","","","","",""
"","S2","","html-keyboard-response","215","286322","0.0-1.0-292.0","0","0","62559","","null","","","null","32","","NaN","","","","","","","","","","","","","",""
"","response","","html-keyboard-response","216","286838","0.0-1.0-293.0-0.0","0","0","62559","","515","","","68","32","","","1","32","training","adjacent","DC","4","3","M.jpg","N.jpg","0","0","1","",""
"","feedback","","html-keyboard-response","217","287840","0.0-1.0-294.0-0.0","0","0","62559","","null","","","null","32","","","","","","","","","","","","","","","",""
"","ITI","","html-keyboard-response","218","288843","0.0-1.0-297.0","0","0","62559","","null","","","null","32","","","","","","","","","","","","","","","NaN",""
"","S1","","html-keyboard-response","219","289095","0.0-1.0-299.0","0","0","62559","","null","","","null","33","","","","","","","","","","","","","","","",""
"","ISI","","html-keyboard-response","220","290097","0.0-1.0-300.0","0","0","62559","","null","","","null","33","NaN","","","","","","","","","","","","","","",""
"","S2","","html-keyboard-response","221","290350","0.0-1.0-301.0","0","0","62559","","null","","","null","33","","NaN","","","","","","","","","","","","","",""
"","response","","html-keyboard-response","222","290581","0.0-1.0-302.0-0.0","0","0","62559","","230","","","75","33","","","1","33","training","adjacent","BA","2","1","L.jpg","Q.jpg","1","0","0","",""
"","feedback","","html-keyboard-response","223","291583","0.0-1.0-303.0-0.0","0","0","62559","","null","","","null","33","","","","","","","","","","","","","","","",""
"","time_out","","html-keyboard-response","224","293586","0.0-1.0-305.0-0.0","0","0","62559","","null","","","null","33","","","","","","","","","","","","","","","",""
"","ITI","","html-keyboard-response","225","294589","0.0-1.0-306.0","0","0","62559","","null","","","null","33","","","","","","","","","","","","","","","NaN",""
"","S1","","html-keyboard-response","226","294841","0.0-1.0-308.0","0","0","62559","","null","","","null","34","","","","","","","","","","","","","","","",""
"","ISI","","html-keyboard-response","227","295843","0.0-1.0-309.0","0","0","62559","","null","","","null","34","NaN","","","","","","","","","","","","","","",""
"","S2","","html-keyboard-response","228","296096","0.0-1.0-310.0","0","0","62559","","null","","","null","34","","NaN","","","","","","","","","","","","","",""
"","response","","html-keyboard-response","229","296221","0.0-1.0-311.0-0.0","0","0","62559","","124","","","75","34","","","1","34","training","adjacent","ED","5","4","R.jpg","M.jpg","1","0","0","",""
"","feedback","","html-keyboard-response","230","297222","0.0-1.0-312.0-0.0","0","0","62559","","null","","","null","34","","","","","","","","","","","","","","","",""
"","time_out","","html-keyboard-response","231","299223","0.0-1.0-314.0-0.0","0","0","62559","","null","","","null","34","","","","","","","","","","","","","","","",""
"","ITI","","html-keyboard-response","232","300226","0.0-1.0-315.0","0","0","62559","","null","","","null","34","","","","","","","","","","","","","","","NaN",""
"","S1","","html-keyboard-response","233","300478","0.0-1.0-317.0","0","0","62559","","null","","","null","35","","","","","","","","","","","","","","","",""
"","ISI","","html-keyboard-response","234","301479","0.0-1.0-318.0","0","0","62559","","null","","","null","35","NaN","","","","","","","","","","","","","","",""
"","S2","","html-keyboard-response","235","301731","0.0-1.0-319.0","0","0","62559","","null","","","null","35","","NaN","","","","","","","","","","","","","",""
"","response","","html-keyboard-response","236","302309","0.0-1.0-320.0-0.0","0","0","62559","","576","","","68","35","","","1","35","training","adjacent","GF","7","6","O.jpg","P.jpg","0","0","1","",""
"","feedback","","html-keyboard-response","237","303311","0.0-1.0-321.0-0.0","0","0","62559","","null","","","null","35","","","","","","","","","","","","","","","",""
"","ITI","","html-keyboard-response","238","304313","0.0-1.0-324.0","0","0","62559","","null","","","null","35","","","","","","","","","","","","","","","NaN",""
"","S1","","html-keyboard-response","239","304566","0.0-1.0-326.0","0","0","62559","","null","","","null","36","","","","","","","","","","","","","","","",""
"","ISI","","html-keyboard-response","240","305568","0.0-1.0-327.0","0","0","62559","","null","","","null","36","NaN","","","","","","","","","","","","","","",""
"","S2","","html-keyboard-response","241","305819","0.0-1.0-328.0","0","0","62559","","null","","","null","36","","NaN","","","","","","","","","","","","","",""
"","response","","html-keyboard-response","242","306187","0.0-1.0-329.0-0.0","0","0","62559","","365","","","68","36","","","1","36","training","adjacent","AB","1","2","Q.jpg","L.jpg","0","1","0","",""
"","feedback","","html-keyboard-response","243","307189","0.0-1.0-330.0-0.0","0","0","62559","","null","","","null","36","","","","","","","","","","","","","","","",""
"","time_out","","html-keyboard-response","244","309191","0.0-1.0-332.0-0.0","0","0","62559","","null","","","null","36","","","","","","","","","","","","","","","",""
"","ITI","","html-keyboard-response","245","310193","0.0-1.0-333.0","0","0","62559","","null","","","null","36","","","","","","","","","","","","","","","NaN",""
"","S1","","html-keyboard-response","246","310446","0.0-1.0-335.0","0","0","62559","","null","","","null","37","","","","","","","","","","","","","","","",""
"","ISI","","html-keyboard-response","247","311448","0.0-1.0-336.0","0","0","62559","","null","","","null","37","NaN","","","","","","","","","","","","","","",""
"","S2","","html-keyboard-response","248","311701","0.0-1.0-337.0","0","0","62559","","null","","","null","37","","NaN","","","","","","","","","","","","","",""
"","response","","html-keyboard-response","249","312099","0.0-1.0-338.0-0.0","0","0","62559","","397","","","75","37","","","1","37","training","adjacent","EF","5","6","R.jpg","P.jpg","1","1","1","",""
"","feedback","","html-keyboard-response","250","313101","0.0-1.0-339.0-0.0","0","0","62559","","null","","","null","37","","","","","","","","","","","","","","","",""
"","ITI","","html-keyboard-response","251","314104","0.0-1.0-342.0","0","0","62559","","null","","","null","37","","","","","","","","","","","","","","","NaN",""
"","S1","","html-keyboard-response","252","314356","0.0-1.0-344.0","0","0","62559","","null","","","null","38","","","","","","","","","","","","","","","",""
"","ISI","","html-keyboard-response","253","315358","0.0-1.0-345.0","0","0","62559","","null","","","null","38","NaN","","","","","","","","","","","","","","",""
"","S2","","html-keyboard-response","254","315610","0.0-1.0-346.0","0","0","62559","","null","","","null","38","","NaN","","","","","","","","","","","","","",""
"","response","","html-keyboard-response","255","316119","0.0-1.0-347.0-0.0","0","0","62559","","508","","","75","38","","","1","38","training","adjacent","BA","2","1","L.jpg","Q.jpg","1","0","0","",""
"","feedback","","html-keyboard-response","256","317121","0.0-1.0-348.0-0.0","0","0","62559","","null","","","null","38","","","","","","","","","","","","","","","",""
"","time_out","","html-keyboard-response","257","319123","0.0-1.0-350.0-0.0","0","0","62559","","null","","","null","38","","","","","","","","","","","","","","","",""
"","ITI","","html-keyboard-response","258","320125","0.0-1.0-351.0","0","0","62559","","null","","","null","38","","","","","","","","","","","","","","","NaN",""
"","S1","","html-keyboard-response","259","320377","0.0-1.0-353.0","0","0","62559","","null","","","null","39","","","","","","","","","","","","","","","",""
"","ISI","","html-keyboard-response","260","321378","0.0-1.0-354.0","0","0","62559","","null","","","null","39","NaN","","","","","","","","","","","","","","",""
"","S2","","html-keyboard-response","261","321631","0.0-1.0-355.0","0","0","62559","","null","","","null","39","","NaN","","","","","","","","","","","","","",""
"","response","","html-keyboard-response","262","322106","0.0-1.0-356.0-0.0","0","0","62559","","474","","","75","39","","","1","39","training","adjacent","ED","5","4","R.jpg","M.jpg","1","0","0","",""
"","feedback","","html-keyboard-response","263","323107","0.0-1.0-357.0-0.0","0","0","62559","","null","","","null","39","","","","","","","","","","","","","","","",""
"","time_out","","html-keyboard-response","264","325110","0.0-1.0-359.0-0.0","0","0","62559","","null","","","null","39","","","","","","","","","","","","","","","",""
"","ITI","","html-keyboard-response","265","326111","0.0-1.0-360.0","0","0","62559","","null","","","null","39","","","","","","","","","","","","","","","NaN",""
"","S1","","html-keyboard-response","266","326368","0.0-1.0-362.0","0","0","62559","","null","","","null","40","","","","","","","","","","","","","","","",""
"","ISI","","html-keyboard-response","267","327371","0.0-1.0-363.0","0","0","62559","","null","","","null","40","NaN","","","","","","","","","","","","","","",""
"","S2","","html-keyboard-response","268","327623","0.0-1.0-364.0","0","0","62559","","null","","","null","40","","NaN","","","","","","","","","","","","","",""
"","response","","html-keyboard-response","269","328024","0.0-1.0-365.0-0.0","0","0","62559","","399","","","68","40","","","1","40","training","adjacent","FG","6","7","P.jpg","O.jpg","0","1","0","",""
"","feedback","","html-keyboard-response","270","329027","0.0-1.0-366.0-0.0","0","0","62559","","null","","","null","40","","","","","","","","","","","","","","","",""
"","time_out","","html-keyboard-response","271","331035","0.0-1.0-368.0-0.0","0","0","62559","","null","","","null","40","","","","","","","","","","","","","","","",""
"","ITI","","html-keyboard-response","272","332037","0.0-1.0-369.0","0","0","62559","","null","","","null","40","","","","","","","","","","","","","","","NaN",""
"","S1","","html-keyboard-response","273","332289","0.0-1.0-371.0","0","0","62559","","null","","","null","41","","","","","","","","","","","","","","","",""
"","ISI","","html-keyboard-response","274","333293","0.0-1.0-372.0","0","0","62559","","null","","","null","41","NaN","","","","","","","","","","","","","","",""
"","S2","","html-keyboard-response","275","333545","0.0-1.0-373.0","0","0","62559","","null","","","null","41","","NaN","","","","","","","","","","","","","",""
"","response","","html-keyboard-response","276","334046","0.0-1.0-374.0-0.0","0","0","62559","","499","","","75","41","","","1","41","training","adjacent","EF","5","6","R.jpg","P.jpg","1","1","1","",""
"","feedback","","html-keyboard-response","277","335049","0.0-1.0-375.0-0.0","0","0","62559","","null","","","null","41","","","","","","","","","","","","","","","",""
"","ITI","","html-keyboard-response","278","336050","0.0-1.0-378.0","0","0","62559","","null","","","null","41","","","","","","","","","","","","","","","NaN",""
"","S1","","html-keyboard-response","279","336303","0.0-1.0-380.0","0","0","62559","","null","","","null","42","","","","","","","","","","","","","","","",""
"","ISI","","html-keyboard-response","280","337304","0.0-1.0-381.0","0","0","62559","","null","","","null","42","NaN","","","","","","","","","","","","","","",""
"","S2","","html-keyboard-response","281","337556","0.0-1.0-382.0","0","0","62559","","null","","","null","42","","NaN","","","","","","","","","","","","","",""
"","response","","html-keyboard-response","282","337869","0.0-1.0-383.0-0.0","0","0","62559","","311","","","75","42","","","1","42","training","adjacent","CD","3","4","N.jpg","M.jpg","1","1","1","",""
"","feedback","","html-keyboard-response","283","338871","0.0-1.0-384.0-0.0","0","0","62559","","null","","","null","42","","","","","","","","","","","","","","","",""
"","ITI","","html-keyboard-response","284","339873","0.0-1.0-387.0","0","0","62559","","null","","","null","42","","","","","","","","","","","","","","","NaN",""
"","S1","","html-keyboard-response","285","340126","0.0-1.0-389.0","0","0","62559","","null","","","null","43","","","","","","","","","","","","","","","",""
"","ISI","","html-keyboard-response","286","341128","0.0-1.0-390.0","0","0","62559","","null","","","null","43","NaN","","","","","","","","","","","","","","",""
"","S2","","html-keyboard-response","287","341381","0.0-1.0-391.0","0","0","62559","","null","","","null","43","","NaN","","","","","","","","","","","","","",""
"","response","","html-keyboard-response","288","342003","0.0-1.0-392.0-0.0","0","0","62559","","621","","","68","43","","","1","43","training","adjacent","BC","2","3","L.jpg","N.jpg","0","1","0","",""
"","feedback","","html-keyboard-response","289","343005","0.0-1.0-393.0-0.0","0","0","62559","","null","","","null","43","","","","","","","","","","","","","","","",""
"","time_out","","html-keyboard-response","290","345007","0.0-1.0-395.0-0.0","0","0","62559","","null","","","null","43","","","","","","","","","","","","","","","",""
"","ITI","","html-keyboard-response","291","346009","0.0-1.0-396.0","0","0","62559","","null","","","null","43","","","","","","","","","","","","","","","NaN",""
"","S1","","html-keyboard-response","292","346262","0.0-1.0-398.0","0","0","62559","","null","","","null","44","","","","","","","","","","","","","","","",""
"","ISI","","html-keyboard-response","293","347264","0.0-1.0-399.0","0","0","62559","","null","","","null","44","NaN","","","","","","","","","","","","","","",""
"","S2","","html-keyboard-response","294","347517","0.0-1.0-400.0","0","0","62559","","null","","","null","44","","NaN","","","","","","","","","","","","","",""
"","response","","html-keyboard-response","295","348209","0.0-1.0-401.0-0.0","0","0","62559","","690","","","75","44","","","1","44","training","adjacent","FE","6","5","P.jpg","R.jpg","1","0","0","",""
"","feedback","","html-keyboard-response","296","349212","0.0-1.0-402.0-0.0","0","0","62559","","null","","","null","44","","","","","","","","","","","","","","","",""
"","time_out","","html-keyboard-response","297","351215","0.0-1.0-404.0-0.0","0","0","62559","","null","","","null","44","","","","","","","","","","","","","","","",""
"","ITI","","html-keyboard-response","298","352216","0.0-1.0-405.0","0","0","62559","","null","","","null","44","","","","","","","","","","","","","","","NaN",""
"","S1","","html-keyboard-response","299","352469","0.0-1.0-407.0","0","0","62559","","null","","","null","45","","","","","","","","","","","","","","","",""
"","ISI","","html-keyboard-response","300","353472","0.0-1.0-408.0","0","0","62559","","null","","","null","45","NaN","","","","","","","","","","","","","","",""
"","S2","","html-keyboard-response","301","353723","0.0-1.0-409.0","0","0","62559","","null","","","null","45","","NaN","","","","","","","","","","","","","",""
"","response","","html-keyboard-response","302","354024","0.0-1.0-410.0-0.0","0","0","62559","","299","","","68","45","","","1","45","training","adjacent","BC","2","3","L.jpg","N.jpg","0","1","0","",""
"","feedback","","html-keyboard-response","303","355027","0.0-1.0-411.0-0.0","0","0","62559","","null","","","null","45","","","","","","","","","","","","","","","",""
"","time_out","","html-keyboard-response","304","357029","0.0-1.0-413.0-0.0","0","0","62559","","null","","","null","45","","","","","","","","","","","","","","","",""
"","ITI","","html-keyboard-response","305","358030","0.0-1.0-414.0","0","0","62559","","null","","","null","45","","","","","","","","","","","","","","","NaN",""
"","S1","","html-keyboard-response","306","358282","0.0-1.0-416.0","0","0","62559","","null","","","null","46","","","","","","","","","","","","","","","",""
"","ISI","","html-keyboard-response","307","359284","0.0-1.0-417.0","0","0","62559","","null","","","null","46","NaN","","","","","","","","","","","","","","",""
"","S2","","html-keyboard-response","308","359536","0.0-1.0-418.0","0","0","62559","","null","","","null","46","","NaN","","","","","","","","","","","","","",""
"","response","","html-keyboard-response","309","360736","0.0-1.0-419.0-0.0","0","0","62559","","1197","","","75","46","","","1","46","training","adjacent","CB","3","2","N.jpg","L.jpg","1","0","0","",""
"","feedback","","html-keyboard-response","310","361739","0.0-1.0-420.0-0.0","0","0","62559","","null","","","null","46","","","","","","","","","","","","","","","",""
"","time_out","","html-keyboard-response","311","363741","0.0-1.0-422.0-0.0","0","0","62559","","null","","","null","46","","","","","","","","","","","","","","","",""
"","ITI","","html-keyboard-response","312","364744","0.0-1.0-423.0","0","0","62559","","null","","","null","46","","","","","","","","","","","","","","","NaN",""
"","S1","","html-keyboard-response","313","364996","0.0-1.0-425.0","0","0","62559","","null","","","null","47","","","","","","","","","","","","","","","",""
"","ISI","","html-keyboard-response","314","365998","0.0-1.0-426.0","0","0","62559","","null","","","null","47","NaN","","","","","","","","","","","","","","",""
"","S2","","html-keyboard-response","315","366252","0.0-1.0-427.0","0","0","62559","","null","","","null","47","","NaN","","","","","","","","","","","","","",""
"","response","","html-keyboard-response","316","366324","0.0-1.0-428.0-0.0","0","0","62559","","71","","","75","47","","","1","47","training","adjacent","FE","6","5","P.jpg","R.jpg","1","0","0","",""
"","feedback","","html-keyboard-response","317","367326","0.0-1.0-429.0-0.0","0","0","62559","","null","","","null","47","","","","","","","","","","","","","","","",""
"","time_out","","html-keyboard-response","318","369328","0.0-1.0-431.0-0.0","0","0","62559","","null","","","null","47","","","","","","","","","","","","","","","",""
"","ITI","","html-keyboard-response","319","370330","0.0-1.0-432.0","0","0","62559","","null","","","null","47","","","","","","","","","","","","","","","NaN",""
"","block_over","","html-keyboard-response","320","436048","0.0-1.0-433.0-0.0","0","0","62559","","65716","","","32","47","","","","","","","","","","","","","","","",""
"","S1","","html-keyboard-response","321","436302","0.0-1.0-434.0","0","0","62559","","null","","","null","48","","","","","","","","","","","","","","","",""
"","ISI","","html-keyboard-response","322","437304","0.0-1.0-435.0","0","0","62559","","null","","","null","48","NaN","","","","","","","","","","","","","","",""
"","S2","","html-keyboard-response","323","437556","0.0-1.0-436.0","0","0","62559","","null","","","null","48","","NaN","","","","","","","","","","","","","",""
"","response","","html-keyboard-response","324","437742","0.0-1.0-437.0-0.0","0","0","62559","","183","","","68","48","","","2","48","training","adjacent","FE","6","5","P.jpg","R.jpg","0","0","1","",""
"","feedback","","html-keyboard-response","325","438749","0.0-1.0-438.0-0.0","0","0","62559","","null","","","null","48","","","","","","","","","","","","","","","",""
"","ITI","","html-keyboard-response","326","439751","0.0-1.0-441.0","0","0","62559","","null","","","null","48","","","","","","","","","","","","","","","NaN",""
"","S1","","html-keyboard-response","327","440003","0.0-1.0-443.0","0","0","62559","","null","","","null","49","","","","","","","","","","","","","","","",""
"","ISI","","html-keyboard-response","328","441006","0.0-1.0-444.0","0","0","62559","","null","","","null","49","NaN","","","","","","","","","","","","","","",""
"","S2","","html-keyboard-response","329","441258","0.0-1.0-445.0","0","0","62559","","null","","","null","49","","NaN","","","","","","","","","","","","","",""
"","response","","html-keyboard-response","330","441683","0.0-1.0-446.0-0.0","0","0","62559","","424","","","75","49","","","2","49","training","adjacent","EF","5","6","R.jpg","P.jpg","1","1","1","",""
"","feedback","","html-keyboard-response","331","442688","0.0-1.0-447.0-0.0","0","0","62559","","null","","","null","49","","","","","","","","","","","","","","","",""
"","ITI","","html-keyboard-response","332","443691","0.0-1.0-450.0","0","0","62559","","null","","","null","49","","","","","","","","","","","","","","","NaN",""
"","S1","","html-keyboard-response","333","443944","0.0-1.0-452.0","0","0","62559","","null","","","null","50","","","","","","","","","","","","","","","",""
"","ISI","","html-keyboard-response","334","444946","0.0-1.0-453.0","0","0","62559","","null","","","null","50","NaN","","","","","","","","","","","","","","",""
"","S2","","html-keyboard-response","335","445198","0.0-1.0-454.0","0","0","62559","","null","","","null","50","","NaN","","","","","","","","","","","","","",""
"","response","","html-keyboard-response","336","445366","0.0-1.0-455.0-0.0","0","0","62559","","166","","","68","50","","","2","50","training","adjacent","EF","5","6","R.jpg","P.jpg","0","1","0","",""
"","feedback","","html-keyboard-response","337","446383","0.0-1.0-456.0-0.0","0","0","62559","","null","","","null","50","","","","","","","","","","","","","","","",""
"","time_out","","html-keyboard-response","338","448386","0.0-1.0-458.0-0.0","0","0","62559","","null","","","null","50","","","","","","","","","","","","","","","",""
"","ITI","","html-keyboard-response","339","449388","0.0-1.0-459.0","0","0","62559","","null","","","null","50","","","","","","","","","","","","","","","NaN",""
"","S1","","html-keyboard-response","340","449640","0.0-1.0-461.0","0","0","62559","","null","","","null","51","","","","","","","","","","","","","","","",""
"","ISI","","html-keyboard-response","341","450643","0.0-1.0-462.0","0","0","62559","","null","","","null","51","NaN","","","","","","","","","","","","","","",""
"","S2","","html-keyboard-response","342","450895","0.0-1.0-463.0","0","0","62559","","null","","","null","51","","NaN","","","","","","","","","","","","","",""
"","response","","html-keyboard-response","343","450960","0.0-1.0-464.0-0.0","0","0","62559","","63","","","68","51","","","2","51","training","adjacent","CB","3","2","N.jpg","L.jpg","0","0","1","",""
"","feedback","","html-keyboard-response","344","451963","0.0-1.0-465.0-0.0","0","0","62559","","null","","","null","51","","","","","","","","","","","","","","","",""
"","ITI","","html-keyboard-response","345","452965","0.0-1.0-468.0","0","0","62559","","null","","","null","51","","","","","","","","","","","","","","","NaN",""
"","S1","","html-keyboard-response","346","453217","0.0-1.0-470.0","0","0","62559","","null","","","null","52","","","","","","","","","","","","","","","",""
"","ISI","","html-keyboard-response","347","454219","0.0-1.0-471.0","0","0","62559","","null","","","null","52","NaN","","","","","","","","","","","","","","",""
"","S2","","html-keyboard-response","348","454472","0.0-1.0-472.0","0","0","62559","","null","","","null","52","","NaN","","","","","","","","","","","","","",""
"","response","","html-keyboard-response","349","454771","0.0-1.0-473.0-0.0","0","0","62559","","298","","","75","52","","","2","52","training","adjacent","AB","1","2","Q.jpg","L.jpg","1","1","1","",""
"","feedback","","html-keyboard-response","350","455774","0.0-1.0-474.0-0.0","0","0","62559","","null","","","null","52","","","","","","","","","","","","","","","",""
"","ITI","","html-keyboard-response","351","456776","0.0-1.0-477.0","0","0","62559","","null","","","null","52","","","","","","","","","","","","","","","NaN",""
"","S1","","html-keyboard-response","352","457029","0.0-1.0-479.0","0","0","62559","","null","","","null","53","","","","","","","","","","","","","","","",""
"","ISI","","html-keyboard-response","353","458032","0.0-1.0-480.0","0","0","62559","","null","","","null","53","NaN","","","","","","","","","","","","","","",""
"","S2","","html-keyboard-response","354","458284","0.0-1.0-481.0","0","0","62559","","null","","","null","53","","NaN","","","","","","","","","","","","","",""
"","response","","html-keyboard-response","355","458622","0.0-1.0-482.0-0.0","0","0","62559","","337","","","75","53","","","2","53","training","adjacent","DC","4","3","M.jpg","N.jpg","1","0","0","",""
"","feedback","","html-keyboard-response","356","459624","0.0-1.0-483.0-0.0","0","0","62559","","null","","","null","53","","","","","","","","","","","","","","","",""
"","time_out","","html-keyboard-response","357","461626","0.0-1.0-485.0-0.0","0","0","62559","","null","","","null","53","","","","","","","","","","","","","","","",""
"","ITI","","html-keyboard-response","358","462629","0.0-1.0-486.0","0","0","62559","","null","","","null","53","","","","","","","","","","","","","","","NaN",""
"","S1","","html-keyboard-response","359","462881","0.0-1.0-488.0","0","0","62559","","null","","","null","54","","","","","","","","","","","","","","","",""
"","ISI","","html-keyboard-response","360","463883","0.0-1.0-489.0","0","0","62559","","null","","","null","54","NaN","","","","","","","","","","","","","","",""
"","S2","","html-keyboard-response","361","464135","0.0-1.0-490.0","0","0","62559","","null","","","null","54","","NaN","","","","","","","","","","","","","",""
"","response","","html-keyboard-response","362","464766","0.0-1.0-491.0-0.0","0","0","62559","","630","","","68","54","","","2","54","training","adjacent","ED","5","4","R.jpg","M.jpg","0","0","1","",""
"","feedback","","html-keyboard-response","363","465769","0.0-1.0-492.0-0.0","0","0","62559","","null","","","null","54","","","","","","","","","","","","","","","",""
"","ITI","","html-keyboard-response","364","466771","0.0-1.0-495.0","0","0","62559","","null","","","null","54","","","","","","","","","","","","","","","NaN",""
"","S1","","html-keyboard-response","365","467023","0.0-1.0-497.0","0","0","62559","","null","","","null","55","","","","","","","","","","","","","","","",""
"","ISI","","html-keyboard-response","366","468025","0.0-1.0-498.0","0","0","62559","","null","","","null","55","NaN","","","","","","","","","","","","","","",""
"","S2","","html-keyboard-response","367","468277","0.0-1.0-499.0","0","0","62559","","null","","","null","55","","NaN","","","","","","","","","","","","","",""
"","response","","html-keyboard-response","368","468831","0.0-1.0-500.0-0.0","0","0","62559","","554","","","68","55","","","2","55","training","adjacent","DE","4","5","M.jpg","R.jpg","0","1","0","",""
"","feedback","","html-keyboard-response","369","469847","0.0-1.0-501.0-0.0","0","0","62559","","null","","","null","55","","","","","","","","","","","","","","","",""
"","time_out","","html-keyboard-response","370","471850","0.0-1.0-503.0-0.0","0","0","62559","","null","","","null","55","","","","","","","","","","","","","","","",""
"","ITI","","html-keyboard-response","371","472853","0.0-1.0-504.0","0","0","62559","","null","","","null","55","","","","","","","","","","","","","","","NaN",""
"","S1","","html-keyboard-response","372","473104","0.0-1.0-506.0","0","0","62559","","null","","","null","56","","","","","","","","","","","","","","","",""
"","ISI","","html-keyboard-response","373","474106","0.0-1.0-507.0","0","0","62559","","372","","","75","56","k","","","","","","","","","","","","","","",""
"","S2","","html-keyboard-response","374","474359","0.0-1.0-508.0","0","0","62559","","null","","","null","56","","NaN","","","","","","","","","","","","","",""
"","response","","html-keyboard-response","375","474390","0.0-1.0-509.0-0.0","0","0","62559","","29","","","75","56","","","2","56","training","adjacent","FG","6","7","P.jpg","O.jpg","1","1","1","",""
"","feedback","","html-keyboard-response","376","475392","0.0-1.0-510.0-0.0","0","0","62559","","null","","","null","56","","","","","","","","","","","","","","","",""
"","ITI","","html-keyboard-response","377","476395","0.0-1.0-513.0","0","0","62559","","null","","","null","56","","","","","","","","","","","","","","","NaN",""
"","S1","","html-keyboard-response","378","476648","0.0-1.0-515.0","0","0","62559","","null","","","null","57","","","","","","","","","","","","","","","",""
"","ISI","","html-keyboard-response","379","477650","0.0-1.0-516.0","0","0","62559","","null","","","null","57","NaN","","","","","","","","","","","","","","",""
"","S2","","html-keyboard-response","380","477902","0.0-1.0-517.0","0","0","62559","","null","","","null","57","","NaN","","","","","","","","","","","","","",""
"","response","","html-keyboard-response","381","478510","0.0-1.0-518.0-0.0","0","0","62559","","607","","","68","57","","","2","57","training","adjacent","GF","7","6","O.jpg","P.jpg","0","0","1","",""
"","feedback","","html-keyboard-response","382","479512","0.0-1.0-519.0-0.0","0","0","62559","","null","","","null","57","","","","","","","","","","","","","","","",""
"","ITI","","html-keyboard-response","383","480515","0.0-1.0-522.0","0","0","62559","","null","","","null","57","","","","","","","","","","","","","","","NaN",""
"","S1","","html-keyboard-response","384","480768","0.0-1.0-524.0","0","0","62559","","null","","","null","58","","","","","","","","","","","","","","","",""
"","ISI","","html-keyboard-response","385","481771","0.0-1.0-525.0","0","0","62559","","null","","","null","58","NaN","","","","","","","","","","","","","","",""
"","S2","","html-keyboard-response","386","482023","0.0-1.0-526.0","0","0","62559","","null","","","null","58","","NaN","","","","","","","","","","","","","",""
"","response","","html-keyboard-response","387","482513","0.0-1.0-527.0-0.0","0","0","62559","","488","","","75","58","","","2","58","training","adjacent","BA","2","1","L.jpg","Q.jpg","1","0","0","",""
"","feedback","","html-keyboard-response","388","483514","0.0-1.0-528.0-0.0","0","0","62559","","null","","","null","58","","","","","","","","","","","","","","","",""
"","time_out","","html-keyboard-response","389","485517","0.0-1.0-530.0-0.0","0","0","62559","","null","","","null","58","","","","","","","","","","","","","","","",""
"","ITI","","html-keyboard-response","390","486521","0.0-1.0-531.0","0","0","62559","","null","","","null","58","","","","","","","","","","","","","","","NaN",""
"","S1","","html-keyboard-response","391","486774","0.0-1.0-533.0","0","0","62559","","null","","","null","59","","","","","","","","","","","","","","","",""
"","ISI","","html-keyboard-response","392","487787","0.0-1.0-534.0","0","0","62559","","407","","","68","59","d","","","","","","","","","","","","","","",""
"","S2","","html-keyboard-response","393","488039","0.0-1.0-535.0","0","0","62559","","null","","","null","59","","NaN","","","","","","","","","","","","","",""
"","response","","html-keyboard-response","394","488120","0.0-1.0-536.0-0.0","0","0","62559","","79","","","68","59","","","2","59","training","adjacent","CD","3","4","N.jpg","M.jpg","0","1","0","",""
"","feedback","","html-keyboard-response","395","489122","0.0-1.0-537.0-0.0","0","0","62559","","null","","","null","59","","","","","","","","","","","","","","","",""
"","time_out","","html-keyboard-response","396","491125","0.0-1.0-539.0-0.0","0","0","62559","","null","","","null","59","","","","","","","","","","","","","","","",""
"","ITI","","html-keyboard-response","397","492127","0.0-1.0-540.0","0","0","62559","","null","","","null","59","","","","","","","","","","","","","","","NaN",""
"","S1","","html-keyboard-response","398","492380","0.0-1.0-542.0","0","0","62559","","null","","","null","60","","","","","","","","","","","","","","","",""
"","ISI","","html-keyboard-response","399","493382","0.0-1.0-543.0","0","0","62559","","234","","","75","60","k","","","","","","","","","","","","","","",""
"","S2","","html-keyboard-response","400","493634","0.0-1.0-544.0","0","0","62559","","null","","","null","60","","NaN","","","","","","","","","","","","","",""
"","response","","html-keyboard-response","401","493671","0.0-1.0-545.0-0.0","0","0","62559","","36","","","75","60","","","2","60","training","adjacent","CB","3","2","N.jpg","L.jpg","1","0","0","",""
"","feedback","","html-keyboard-response","402","494679","0.0-1.0-546.0-0.0","0","0","62559","","null","","","null","60","","","","","","","","","","","","","","","",""
"","time_out","","html-keyboard-response","403","496682","0.0-1.0-548.0-0.0","0","0","62559","","null","","","null","60","","","","","","","","","","","","","","","",""
"","ITI","","html-keyboard-response","404","497686","0.0-1.0-549.0","0","0","62559","","null","","","null","60","","","","","","","","","","","","","","","NaN",""
"","S1","","html-keyboard-response","405","497938","0.0-1.0-551.0","0","0","62559","","null","","","null","61","","","","","","","","","","","","","","","",""
"","ISI","","html-keyboard-response","406","498940","0.0-1.0-552.0","0","0","62559","","null","","","null","61","NaN","","","","","","","","","","","","","","",""
"","S2","","html-keyboard-response","407","499196","0.0-1.0-553.0","0","0","62559","","null","","","null","61","","NaN","","","","","","","","","","","","","",""
"","response","","html-keyboard-response","408","499442","0.0-1.0-554.0-0.0","0","0","62559","","245","","","75","61","","","2","61","training","adjacent","BA","2","1","L.jpg","Q.jpg","1","0","0","",""
"","feedback","","html-keyboard-response","409","500445","0.0-1.0-555.0-0.0","0","0","62559","","null","","","null","61","","","","","","","","","","","","","","","",""
"","time_out","","html-keyboard-response","410","502448","0.0-1.0-557.0-0.0","0","0","62559","","null","","","null","61","","","","","","","","","","","","","","","",""
"","ITI","","html-keyboard-response","411","503450","0.0-1.0-558.0","0","0","62559","","null","","","null","61","","","","","","","","","","","","","","","NaN",""
"","S1","","html-keyboard-response","412","503703","0.0-1.0-560.0","0","0","62559","","null","","","null","62","","","","","","","","","","","","","","","",""
"","ISI","","html-keyboard-response","413","504705","0.0-1.0-561.0","0","0","62559","","null","","","null","62","NaN","","","","","","","","","","","","","","",""
"","S2","","html-keyboard-response","414","504957","0.0-1.0-562.0","0","0","62559","","null","","","null","62","","NaN","","","","","","","","","","","","","",""
"","response","","html-keyboard-response","415","505193","0.0-1.0-563.0-0.0","0","0","62559","","233","","","68","62","","","2","62","training","adjacent","DC","4","3","M.jpg","N.jpg","0","0","1","",""
"","feedback","","html-keyboard-response","416","506195","0.0-1.0-564.0-0.0","0","0","62559","","null","","","null","62","","","","","","","","","","","","","","","",""
"","ITI","","html-keyboard-response","417","507197","0.0-1.0-567.0","0","0","62559","","null","","","null","62","","","","","","","","","","","","","","","NaN",""
"","S1","","html-keyboard-response","418","507449","0.0-1.0-569.0","0","0","62559","","null","","","null","63","","","","","","","","","","","","","","","",""
"","ISI","","html-keyboard-response","419","508451","0.0-1.0-570.0","0","0","62559","","null","","","null","63","NaN","","","","","","","","","","","","","","",""
"","S2","","html-keyboard-response","420","508703","0.0-1.0-571.0","0","0","62559","","null","","","null","63","","NaN","","","","","","","","","","","","","",""
"","response","","html-keyboard-response","421","509075","0.0-1.0-572.0-0.0","0","0","62559","","369","","","75","63","","","2","63","training","adjacent","CD","3","4","N.jpg","M.jpg","1","1","1","",""
"","feedback","","html-keyboard-response","422","510077","0.0-1.0-573.0-0.0","0","0","62559","","null","","","null","63","","","","","","","","","","","","","","","",""
"","ITI","","html-keyboard-response","423","511079","0.0-1.0-576.0","0","0","62559","","null","","","null","63","","","","","","","","","","","","","","","NaN",""
"","S1","","html-keyboard-response","424","511331","0.0-1.0-578.0","0","0","62559","","null","","","null","64","","","","","","","","","","","","","","","",""
"","ISI","","html-keyboard-response","425","512334","0.0-1.0-579.0","0","0","62559","","null","","","null","64","NaN","","","","","","","","","","","","","","",""
"","S2","","html-keyboard-response","426","512587","0.0-1.0-580.0","0","0","62559","","null","","","null","64","","NaN","","","","","","","","","","","","","",""
"","response","","html-keyboard-response","427","513344","0.0-1.0-581.0-0.0","0","0","62559","","756","","","75","64","","","2","64","training","adjacent","FE","6","5","P.jpg","R.jpg","1","0","0","",""
"","feedback","","html-keyboard-response","428","514346","0.0-1.0-582.0-0.0","0","0","62559","","null","","","null","64","","","","","","","","","","","","","","","",""
"","time_out","","html-keyboard-response","429","516349","0.0-1.0-584.0-0.0","0","0","62559","","null","","","null","64","","","","","","","","","","","","","","","",""
"","ITI","","html-keyboard-response","430","517351","0.0-1.0-585.0","0","0","62559","","null","","","null","64","","","","","","","","","","","","","","","NaN",""
"","S1","","html-keyboard-response","431","517603","0.0-1.0-587.0","0","0","62559","","null","","","null","65","","","","","","","","","","","","","","","",""
"","ISI","","html-keyboard-response","432","518605","0.0-1.0-588.0","0","0","62559","","null","","","null","65","NaN","","","","","","","","","","","","","","",""
"","S2","","html-keyboard-response","433","518858","0.0-1.0-589.0","0","0","62559","","null","","","null","65","","NaN","","","","","","","","","","","","","",""
"","response","","html-keyboard-response","434","518900","0.0-1.0-590.0-0.0","0","0","62559","","42","","","68","65","","","2","65","training","adjacent","FG","6","7","P.jpg","O.jpg","0","1","0","",""
"","feedback","","html-keyboard-response","435","519902","0.0-1.0-591.0-0.0","0","0","62559","","null","","","null","65","","","","","","","","","","","","","","","",""
"","time_out","","html-keyboard-response","436","521911","0.0-1.0-593.0-0.0","0","0","62559","","null","","","null","65","","","","","","","","","","","","","","","",""
"","ITI","","html-keyboard-response","437","522912","0.0-1.0-594.0","0","0","62559","","null","","","null","65","","","","","","","","","","","","","","","NaN",""
"","S1","","html-keyboard-response","438","523164","0.0-1.0-596.0","0","0","62559","","null","","","null","66","","","","","","","","","","","","","","","",""
"","ISI","","html-keyboard-response","439","524166","0.0-1.0-597.0","0","0","62559","","null","","","null","66","NaN","","","","","","","","","","","","","","",""
"","S2","","html-keyboard-response","440","524419","0.0-1.0-598.0","0","0","62559","","null","","","null","66","","NaN","","","","","","","","","","","","","",""
"","response","","html-keyboard-response","441","524716","0.0-1.0-599.0-0.0","0","0","62559","","296","","","75","66","","","2","66","training","adjacent","CD","3","4","N.jpg","M.jpg","1","1","1","",""
"","feedback","","html-keyboard-response","442","525718","0.0-1.0-600.0-0.0","0","0","62559","","null","","","null","66","","","","","","","","","","","","","","","",""
"","ITI","","html-keyboard-response","443","526720","0.0-1.0-603.0","0","0","62559","","null","","","null","66","","","","","","","","","","","","","","","NaN",""
"","S1","","html-keyboard-response","444","526977","0.0-1.0-605.0","0","0","62559","","null","","","null","67","","","","","","","","","","","","","","","",""
"","ISI","","html-keyboard-response","445","527979","0.0-1.0-606.0","0","0","62559","","null","","","null","67","NaN","","","","","","","","","","","","","","",""
"","S2","","html-keyboard-response","446","528232","0.0-1.0-607.0","0","0","62559","","null","","","null","67","","NaN","","","","","","","","","","","","","",""
"","response","","html-keyboard-response","447","529055","0.0-1.0-608.0-0.0","0","0","62559","","822","","","75","67","","","2","67","training","adjacent","EF","5","6","R.jpg","P.jpg","1","1","1","",""
"","feedback","","html-keyboard-response","448","530057","0.0-1.0-609.0-0.0","0","0","62559","","null","","","null","67","","","","","","","","","","","","","","","",""
"","ITI","","html-keyboard-response","449","531059","0.0-1.0-612.0","0","0","62559","","null","","","null","67","","","","","","","","","","","","","","","NaN",""
"","S1","","html-keyboard-response","450","531311","0.0-1.0-614.0","0","0","62559","","null","","","null","68","","","","","","","","","","","","","","","",""
"","ISI","","html-keyboard-response","451","532313","0.0-1.0-615.0","0","0","62559","","null","","","null","68","NaN","","","","","","","","","","","","","","",""
"","S2","","html-keyboard-response","452","532565","0.0-1.0-616.0","0","0","62559","","null","","","null","68","","NaN","","","","","","","","","","","","","",""
"","response","","html-keyboard-response","453","532913","0.0-1.0-617.0-0.0","0","0","62559","","348","","","75","68","","","2","68","training","adjacent","CB","3","2","N.jpg","L.jpg","1","0","0","",""
"","feedback","","html-keyboard-response","454","533916","0.0-1.0-618.0-0.0","0","0","62559","","null","","","null","68","","","","","","","","","","","","","","","",""
"","time_out","","html-keyboard-response","455","535917","0.0-1.0-620.0-0.0","0","0","62559","","null","","","null","68","","","","","","","","","","","","","","","",""
"","ITI","","html-keyboard-response","456","536919","0.0-1.0-621.0","0","0","62559","","null","","","null","68","","","","","","","","","","","","","","","NaN",""
"","S1","","html-keyboard-response","457","537171","0.0-1.0-623.0","0","0","62559","","null","","","null","69","","","","","","","","","","","","","","","",""
"","ISI","","html-keyboard-response","458","538174","0.0-1.0-624.0","0","0","62559","","null","","","null","69","NaN","","","","","","","","","","","","","","",""
"","S2","","html-keyboard-response","459","538426","0.0-1.0-625.0","0","0","62559","","null","","","null","69","","NaN","","","","","","","","","","","","","",""
"","response","","html-keyboard-response","460","538878","0.0-1.0-626.0-0.0","0","0","62559","","451","","","68","69","","","2","69","training","adjacent","DE","4","5","M.jpg","R.jpg","0","1","0","",""
"","feedback","","html-keyboard-response","461","539880","0.0-1.0-627.0-0.0","0","0","62559","","null","","","null","69","","","","","","","","","","","","","","","",""
"","time_out","","html-keyboard-response","462","541883","0.0-1.0-629.0-0.0","0","0","62559","","null","","","null","69","","","","","","","","","","","","","","","",""
"","ITI","","html-keyboard-response","463","542885","0.0-1.0-630.0","0","0","62559","","null","","","null","69","","","","","","","","","","","","","","","NaN",""
"","S1","","html-keyboard-response","464","543137","0.0-1.0-632.0","0","0","62559","","null","","","null","70","","","","","","","","","","","","","","","",""
"","ISI","","html-keyboard-response","465","544139","0.0-1.0-633.0","0","0","62559","","161","","","75","70","k","","","","","","","","","","","","","","",""
"","S2","","html-keyboard-response","466","544391","0.0-1.0-634.0","0","0","62559","","null","","","null","70","","NaN","","","","","","","","","","","","","",""
"","response","","html-keyboard-response","467","544595","0.0-1.0-635.0-0.0","0","0","62559","","203","","","75","70","","","2","70","training","adjacent","BA","2","1","L.jpg","Q.jpg","1","0","0","",""
"","feedback","","html-keyboard-response","468","545598","0.0-1.0-636.0-0.0","0","0","62559","","null","","","null","70","","","","","","","","","","","","","","","",""
"","time_out","","html-keyboard-response","469","547600","0.0-1.0-638.0-0.0","0","0","62559","","null","","","null","70","","","","","","","","","","","","","","","",""
"","ITI","","html-keyboard-response","470","548602","0.0-1.0-639.0","0","0","62559","","null","","","null","70","","","","","","","","","","","","","","","NaN",""
"","S1","","html-keyboard-response","471","548854","0.0-1.0-641.0","0","0","62559","","null","","","null","71","","","","","","","","","","","","","","","",""
"","ISI","","html-keyboard-response","472","549855","0.0-1.0-642.0","0","0","62559","","null","","","null","71","NaN","","","","","","","","","","","","","","",""
"","S2","","html-keyboard-response","473","550107","0.0-1.0-643.0","0","0","62559","","null","","","null","71","","NaN","","","","","","","","","","","","","",""
"","response","","html-keyboard-response","474","550171","0.0-1.0-644.0-0.0","0","0","62559","","63","","","75","71","","","2","71","training","adjacent","DC","4","3","M.jpg","N.jpg","1","0","0","",""
"","feedback","","html-keyboard-response","475","551173","0.0-1.0-645.0-0.0","0","0","62559","","null","","","null","71","","","","","","","","","","","","","","","",""
"","time_out","","html-keyboard-response","476","553175","0.0-1.0-647.0-0.0","0","0","62559","","null","","","null","71","","","","","","","","","","","","","","","",""
"","ITI","","html-keyboard-response","477","554177","0.0-1.0-648.0","0","0","62559","","null","","","null","71","","","","","","","","","","","","","","","NaN",""
"","S1","","html-keyboard-response","478","554428","0.0-1.0-650.0","0","0","62559","","null","","","null","72","","","","","","","","","","","","","","","",""
"","ISI","","html-keyboard-response","479","555431","0.0-1.0-651.0","0","0","62559","","null","","","null","72","NaN","","","","","","","","","","","","","","",""
"","S2","","html-keyboard-response","480","555683","0.0-1.0-652.0","0","0","62559","","null","","","null","72","","NaN","","","","","","","","","","","","","",""
"","response","","html-keyboard-response","481","555921","0.0-1.0-653.0-0.0","0","0","62559","","236","","","68","72","","","2","72","training","adjacent","BA","2","1","L.jpg","Q.jpg","0","0","1","",""
"","feedback","","html-keyboard-response","482","556923","0.0-1.0-654.0-0.0","0","0","62559","","null","","","null","72","","","","","","","","","","","","","","","",""
"","ITI","","html-keyboard-response","483","557926","0.0-1.0-657.0","0","0","62559","","null","","","null","72","","","","","","","","","","","","","","","NaN",""
"","S1","","html-keyboard-response","484","558178","0.0-1.0-659.0","0","0","62559","","null","","","null","73","","","","","","","","","","","","","","","",""
"","ISI","","html-keyboard-response","485","559180","0.0-1.0-660.0","0","0","62559","","null","","","null","73","NaN","","","","","","","","","","","","","","",""
"","S2","","html-keyboard-response","486","559432","0.0-1.0-661.0","0","0","62559","","null","","","null","73","","NaN","","","","","","","","","","","","","",""
"","response","","html-keyboard-response","487","559550","0.0-1.0-662.0-0.0","0","0","62559","","116","","","75","73","","","2","73","training","adjacent","AB","1","2","Q.jpg","L.jpg","1","1","1","",""
"","feedback","","html-keyboard-response","488","560556","0.0-1.0-663.0-0.0","0","0","62559","","null","","","null","73","","","","","","","","","","","","","","","",""
"","ITI","","html-keyboard-response","489","561558","0.0-1.0-666.0","0","0","62559","","null","","","null","73","","","","","","","","","","","","","","","NaN",""
"","S1","","html-keyboard-response","490","561811","0.0-1.0-668.0","0","0","62559","","null","","","null","74","","","","","","","","","","","","","","","",""
"","ISI","","html-keyboard-response","491","562813","0.0-1.0-669.0","0","0","62559","","null","","","null","74","NaN","","","","","","","","","","","","","","",""
"","S2","","html-keyboard-response","492","563066","0.0-1.0-670.0","0","0","62559","","null","","","null","74","","NaN","","","","","","","","","","","","","",""
"","response","","html-keyboard-response","493","563492","0.0-1.0-671.0-0.0","0","0","62559","","425","","","75","74","","","2","74","training","adjacent","FE","6","5","P.jpg","R.jpg","1","0","0","",""
"","feedback","","html-keyboard-response","494","564494","0.0-1.0-672.0-0.0","0","0","62559","","null","","","null","74","","","","","","","","","","","","","","","",""
"","time_out","","html-keyboard-response","495","566496","0.0-1.0-674.0-0.0","0","0","62559","","null","","","null","74","","","","","","","","","","","","","","","",""
"","ITI","","html-keyboard-response","496","567498","0.0-1.0-675.0","0","0","62559","","null","","","null","74","","","","","","","","","","","","","","","NaN",""
"","S1","","html-keyboard-response","497","567750","0.0-1.0-677.0","0","0","62559","","null","","","null","75","","","","","","","","","","","","","","","",""
"","ISI","","html-keyboard-response","498","568753","0.0-1.0-678.0","0","0","62559","","null","","","null","75","NaN","","","","","","","","","","","","","","",""
"","S2","","html-keyboard-response","499","569005","0.0-1.0-679.0","0","0","62559","","null","","","null","75","","NaN","","","","","","","","","","","","","",""
"","response","","html-keyboard-response","500","569245","0.0-1.0-680.0-0.0","0","0","62559","","239","","","68","75","","","2","75","training","adjacent","ED","5","4","R.jpg","M.jpg","0","0","1","",""
"","feedback","","html-keyboard-response","501","570247","0.0-1.0-681.0-0.0","0","0","62559","","null","","","null","75","","","","","","","","","","","","","","","",""
"","ITI","","html-keyboard-response","502","571249","0.0-1.0-684.0","0","0","62559","","null","","","null","75","","","","","","","","","","","","","","","NaN",""
"","S1","","html-keyboard-response","503","571501","0.0-1.0-686.0","0","0","62559","","null","","","null","76","","","","","","","","","","","","","","","",""
"","ISI","","html-keyboard-response","504","572504","0.0-1.0-687.0","0","0","62559","","null","","","null","76","NaN","","","","","","","","","","","","","","",""
"","S2","","html-keyboard-response","505","572756","0.0-1.0-688.0","0","0","62559","","null","","","null","76","","NaN","","","","","","","","","","","","","",""
"","response","","html-keyboard-response","506","573497","0.0-1.0-689.0-0.0","0","0","62559","","740","","","68","76","","","2","76","training","adjacent","BC","2","3","L.jpg","N.jpg","0","1","0","",""
"","feedback","","html-keyboard-response","507","574499","0.0-1.0-690.0-0.0","0","0","62559","","null","","","null","76","","","","","","","","","","","","","","","",""
"","time_out","","html-keyboard-response","508","576502","0.0-1.0-692.0-0.0","0","0","62559","","null","","","null","76","","","","","","","","","","","","","","","",""
"","ITI","","html-keyboard-response","509","577505","0.0-1.0-693.0","0","0","62559","","null","","","null","76","","","","","","","","","","","","","","","NaN",""
"","S1","","html-keyboard-response","510","577757","0.0-1.0-695.0","0","0","62559","","null","","","null","77","","","","","","","","","","","","","","","",""
"","ISI","","html-keyboard-response","511","578760","0.0-1.0-696.0","0","0","62559","","152","","","75","77","k","","","","","","","","","","","","","","",""
"","S2","","html-keyboard-response","512","579012","0.0-1.0-697.0","0","0","62559","","null","","","null","77","","NaN","","","","","","","","","","","","","",""
"","response","","html-keyboard-response","513","579079","0.0-1.0-698.0-0.0","0","0","62559","","67","","","68","77","","","2","77","training","adjacent","BC","2","3","L.jpg","N.jpg","0","1","0","",""
"","feedback","","html-keyboard-response","514","580082","0.0-1.0-699.0-0.0","0","0","62559","","null","","","null","77","","","","","","","","","","","","","","","",""
"","time_out","","html-keyboard-response","515","582084","0.0-1.0-701.0-0.0","0","0","62559","","null","","","null","77","","","","","","","","","","","","","","","",""
"","ITI","","html-keyboard-response","516","583086","0.0-1.0-702.0","0","0","62559","","null","","","null","77","","","","","","","","","","","","","","","NaN",""
"","S1","","html-keyboard-response","517","583338","0.0-1.0-704.0","0","0","62559","","null","","","null","78","","","","","","","","","","","","","","","",""
"","ISI","","html-keyboard-response","518","584340","0.0-1.0-705.0","0","0","62559","","null","","","null","78","NaN","","","","","","","","","","","","","","",""
"","S2","","html-keyboard-response","519","584592","0.0-1.0-706.0","0","0","62559","","null","","","null","78","","NaN","","","","","","","","","","","","","",""
"","response","","html-keyboard-response","520","584959","0.0-1.0-707.0-0.0","0","0","62559","","366","","","75","78","","","2","78","training","adjacent","CD","3","4","N.jpg","M.jpg","1","1","1","",""
"","feedback","","html-keyboard-response","521","585962","0.0-1.0-708.0-0.0","0","0","62559","","null","","","null","78","","","","","","","","","","","","","","","",""
"","ITI","","html-keyboard-response","522","586963","0.0-1.0-711.0","0","0","62559","","null","","","null","78","","","","","","","","","","","","","","","NaN",""
"","S1","","html-keyboard-response","523","587215","0.0-1.0-713.0","0","0","62559","","null","","","null","79","","","","","","","","","","","","","","","",""
"","ISI","","html-keyboard-response","524","588217","0.0-1.0-714.0","0","0","62559","","null","","","null","79","NaN","","","","","","","","","","","","","","",""
"","S2","","html-keyboard-response","525","588469","0.0-1.0-715.0","0","0","62559","","null","","","null","79","","NaN","","","","","","","","","","","","","",""
"","response","","html-keyboard-response","526","588818","0.0-1.0-716.0-0.0","0","0","62559","","348","","","68","79","","","2","79","training","adjacent","GF","7","6","O.jpg","P.jpg","0","0","1","",""
"","feedback","","html-keyboard-response","527","589821","0.0-1.0-717.0-0.0","0","0","62559","","null","","","null","79","","","","","","","","","","","","","","","",""
"","ITI","","html-keyboard-response","528","590823","0.0-1.0-720.0","0","0","62559","","null","","","null","79","","","","","","","","","","","","","","","NaN",""
"","S1","","html-keyboard-response","529","591076","0.0-1.0-722.0","0","0","62559","","null","","","null","80","","","","","","","","","","","","","","","",""
"","ISI","","html-keyboard-response","530","592079","0.0-1.0-723.0","0","0","62559","","null","","","null","80","NaN","","","","","","","","","","","","","","",""
"","S2","","html-keyboard-response","531","592330","0.0-1.0-724.0","0","0","62559","","null","","","null","80","","NaN","","","","","","","","","","","","","",""
"","response","","html-keyboard-response","532","592816","0.0-1.0-725.0-0.0","0","0","62559","","484","","","75","80","","","2","80","training","adjacent","ED","5","4","R.jpg","M.jpg","1","0","0","",""
"","feedback","","html-keyboard-response","533","593818","0.0-1.0-726.0-0.0","0","0","62559","","null","","","null","80","","","","","","","","","","","","","","","",""
"","time_out","","html-keyboard-response","534","595820","0.0-1.0-728.0-0.0","0","0","62559","","null","","","null","80","","","","","","","","","","","","","","","",""
"","ITI","","html-keyboard-response","535","596821","0.0-1.0-729.0","0","0","62559","","null","","","null","80","","","","","","","","","","","","","","","NaN",""
"","S1","","html-keyboard-response","536","597074","0.0-1.0-731.0","0","0","62559","","null","","","null","81","","","","","","","","","","","","","","","",""
"","ISI","","html-keyboard-response","537","598076","0.0-1.0-732.0","0","0","62559","","null","","","null","81","NaN","","","","","","","","","","","","","","",""
"","S2","","html-keyboard-response","538","598329","0.0-1.0-733.0","0","0","62559","","null","","","null","81","","NaN","","","","","","","","","","","","","",""
"","response","","html-keyboard-response","539","600081","0.0-1.0-734.0-0.0","0","0","62559","","null","","","null","81","","","2","81","training","adjacent","CB","3","2","N.jpg","L.jpg","NaN","0","0","",""
"","too_slow_prompt","","html-keyboard-response","540","601083","0.0-1.0-736.0-0.0","1","0","62559","","null","","","null","","","","","","","","","","","","","","","","",""
"","time_out","","html-keyboard-response","541","603085","0.0-1.0-737.0-0.0","0","0","62559","","null","","","null","81","","","","","","","","","","","","","","","",""
"","ITI","","html-keyboard-response","542","604087","0.0-1.0-738.0","0","0","62559","","null","","","null","81","","","","","","","","","","","","","","","NaN",""
"","S1","","html-keyboard-response","543","604340","0.0-1.0-740.0","0","0","62559","","null","","","null","82","","","","","","","","","","","","","","","",""
"","ISI","","html-keyboard-response","544","605342","0.0-1.0-741.0","0","0","62559","","127","","","75","82","k","","","","","","","","","","","","","","",""
"","S2","","html-keyboard-response","545","605595","0.0-1.0-742.0","0","0","62559","","null","","","null","82","","NaN","","","","","","","","","","","","","",""
"","response","","html-keyboard-response","546","605647","0.0-1.0-743.0-0.0","0","0","62559","","51","","","68","82","","","2","82","training","adjacent","AB","1","2","Q.jpg","L.jpg","0","1","0","",""
"","feedback","","html-keyboard-response","547","606650","0.0-1.0-744.0-0.0","0","0","62559","","null","","","null","82","","","","","","","","","","","","","","","",""
"","time_out","","html-keyboard-response","548","608664","0.0-1.0-746.0-0.0","0","0","62559","","null","","","null","82","","","","","","","","","","","","","","","",""
"","ITI","","html-keyboard-response","549","609666","0.0-1.0-747.0","0","0","62559","","null","","","null","82","","","","","","","","","","","","","","","NaN",""
"","S1","","html-keyboard-response","550","609918","0.0-1.0-749.0","0","0","62559","","null","","","null","83","","","","","","","","","","","","","","","",""
"","ISI","","html-keyboard-response","551","610920","0.0-1.0-750.0","0","0","62559","","101","","","75","83","k","","","","","","","","","","","","","","",""
"","S2","","html-keyboard-response","552","611186","0.0-1.0-751.0","0","0","62559","","null","","","null","83","","NaN","","","","","","","","","","","","","",""
"","response","","html-keyboard-response","553","611243","0.0-1.0-752.0-0.0","0","0","62559","","56","","","75","83","","","2","83","training","adjacent","BC","2","3","L.jpg","N.jpg","1","1","1","",""
"","feedback","","html-keyboard-response","554","612245","0.0-1.0-753.0-0.0","0","0","62559","","null","","","null","83","","","","","","","","","","","","","","","",""
"","ITI","","html-keyboard-response","555","613248","0.0-1.0-756.0","0","0","62559","","null","","","null","83","","","","","","","","","","","","","","","NaN",""
"","S1","","html-keyboard-response","556","613500","0.0-1.0-758.0","0","0","62559","","null","","","null","84","","","","","","","","","","","","","","","",""
"","ISI","","html-keyboard-response","557","614502","0.0-1.0-759.0","0","0","62559","","null","","","null","84","NaN","","","","","","","","","","","","","","",""
"","S2","","html-keyboard-response","558","614755","0.0-1.0-760.0","0","0","62559","","null","","","null","84","","NaN","","","","","","","","","","","","","",""
"","response","","html-keyboard-response","559","615236","0.0-1.0-761.0-0.0","0","0","62559","","481","","","68","84","","","2","84","training","adjacent","DC","4","3","M.jpg","N.jpg","0","0","1","",""
"","feedback","","html-keyboard-response","560","616239","0.0-1.0-762.0-0.0","0","0","62559","","null","","","null","84","","","","","","","","","","","","","","","",""
"","ITI","","html-keyboard-response","561","617241","0.0-1.0-765.0","0","0","62559","","null","","","null","84","","","","","","","","","","","","","","","NaN",""
"","S1","","html-keyboard-response","562","617494","0.0-1.0-767.0","0","0","62559","","null","","","null","85","","","","","","","","","","","","","","","",""
"","ISI","","html-keyboard-response","563","618496","0.0-1.0-768.0","0","0","62559","","null","","","null","85","NaN","","","","","","","","","","","","","","",""
"","S2","","html-keyboard-response","564","618748","0.0-1.0-769.0","0","0","62559","","null","","","null","85","","NaN","","","","","","","","","","","","","",""
"","response","","html-keyboard-response","565","619097","0.0-1.0-770.0-0.0","0","0","62559","","348","","","75","85","","","2","85","training","adjacent","GF","7","6","O.jpg","P.jpg","1","0","0","",""
"","feedback","","html-keyboard-response","566","620100","0.0-1.0-771.0-0.0","0","0","62559","","null","","","null","85","","","","","","","","","","","","","","","",""
"","time_out","","html-keyboard-response","567","622103","0.0-1.0-773.0-0.0","0","0","62559","","null","","","null","85","","","","","","","","","","","","","","","",""
"","ITI","","html-keyboard-response","568","623105","0.0-1.0-774.0","0","0","62559","","null","","","null","85","","","","","","","","","","","","","","","NaN",""
"","S1","","html-keyboard-response","569","623357","0.0-1.0-776.0","0","0","62559","","null","","","null","86","","","","","","","","","","","","","","","",""
"","ISI","","html-keyboard-response","570","624359","0.0-1.0-777.0","0","0","62559","","null","","","null","86","NaN","","","","","","","","","","","","","","",""
"","S2","","html-keyboard-response","571","624611","0.0-1.0-778.0","0","0","62559","","null","","","null","86","","NaN","","","","","","","","","","","","","",""
"","response","","html-keyboard-response","572","624747","0.0-1.0-779.0-0.0","0","0","62559","","136","","","68","86","","","2","86","training","adjacent","ED","5","4","R.jpg","M.jpg","0","0","1","",""
"","feedback","","html-keyboard-response","573","625749","0.0-1.0-780.0-0.0","0","0","62559","","null","","","null","86","","","","","","","","","","","","","","","",""
"","ITI","","html-keyboard-response","574","626752","0.0-1.0-783.0","0","0","62559","","null","","","null","86","","","","","","","","","","","","","","","NaN",""
"","S1","","html-keyboard-response","575","627003","0.0-1.0-785.0","0","0","62559","","null","","","null","87","","","","","","","","","","","","","","","",""
"","ISI","","html-keyboard-response","576","628005","0.0-1.0-786.0","0","0","62559","","null","","","null","87","NaN","","","","","","","","","","","","","","",""
"","S2","","html-keyboard-response","577","628258","0.0-1.0-787.0","0","0","62559","","null","","","null","87","","NaN","","","","","","","","","","","","","",""
"","response","","html-keyboard-response","578","628721","0.0-1.0-788.0-0.0","0","0","62559","","462","","","75","87","","","2","87","training","adjacent","GF","7","6","O.jpg","P.jpg","1","0","0","",""
"","feedback","","html-keyboard-response","579","629724","0.0-1.0-789.0-0.0","0","0","62559","","null","","","null","87","","","","","","","","","","","","","","","",""
"","time_out","","html-keyboard-response","580","631726","0.0-1.0-791.0-0.0","0","0","62559","","null","","","null","87","","","","","","","","","","","","","","","",""
