"success","ttype","start_time","trial_type","trial_index","time_elapsed","internal_node_id","warning","missed_checkup","PID","view_history","rt","responses","repeat_instructions","key_press","index","keypress_isi","keypress_S2","block","trial_num","phase","group_type","pair_type","S1_stim","S2_stim","S1_img","S2_img","S1_chosen","S1_higher","accuracy","keypress_iti","total_bonus_tally"
"true","full_screen","d04152023hr1150","fullscreen","0","6894","0.0-0.0","0","0","95436","","","","","","","","","","","","","","","","","","","","","",""
"","instructions","","instructions","1","53489","0.0-1.0-0.0-0.0","0","0","95436","[{""page_index"":0,""viewing_time"":3838},{""page_index"":1,""viewing_time"":25576},{""page_index"":2,""viewing_time"":11122},{""page_index"":3,""viewing_time"":6056}]","46593","","","","","","","","","","","","","","","","","","","",""
"","comprehension_check","","survey-multi-choice","2","97086","0.0-1.0-0.0-1.0","0","0","95436","","43591","{""Q0"":""True"",""Q1"":""D"",""Q2"":""Once the second image appears and while the screen 'MAKE A CHOICE' is shown"",""Q3"":""Green mark"",""Q4"":""either D or K""}","0","","","","","","","","","","","","","","","","","",""
"","start_exp","","html-keyboard-response","3","100417","0.0-1.0-1.0","0","0","95436","","3327","","","32","","","","","","","","","","","","","","","","",""
"","S1","","html-keyboard-response","4","100670","0.0-1.0-2.0","0","0","95436","","null","","","null","0","","","","","","","","","","","","","","","",""
"","ISI","","html-keyboard-response","5","101672","0.0-1.0-3.0","0","0","95436","","null","","","null","0","NaN","","","","","","","","","","","","","","",""
"","S2","","html-keyboard-response","6","101926","0.0-1.0-4.0","0","0","95436","","null","","","null","0","","NaN","","","","","","","","","","","","","",""
"","response","","html-keyboard-response","7","103680","0.0-1.0-5.0-0.0","0","0","95436","","null","","","null","0","","","1","0","training","adjacent","AB","1","2","N.jpg","Q.jpg","NaN","1","0","",""
"","too_slow_prompt","","html-keyboard-response","8","104683","0.0-1.0-7.0-0.0","1","0","95436","","null","","","null","","","","","","","","","","","","","","","","",""
"","time_out","","html-keyboard-response","9","106685","0.0-1.0-8.0-0.0","0","0","95436","","null","","","null","0","","","","","","","","","","","","","","","",""
"","ITI","","html-keyboard-response","10","107687","0.0-1.0-9.0","0","0","95436","","926","","","75","0","","","","","","","","","","","","","","","k",""
"","S1","","html-keyboard-response","11","107941","0.0-1.0-11.0","0","0","95436","","null","","","null","1","","","","","","","","","","","","","","","",""
"","ISI","","html-keyboard-response","12","108945","0.0-1.0-12.0","0","0","95436","","null","","","null","1","NaN","","","","","","","","","","","","","","",""
"","S2","","html-keyboard-response","13","109197","0.0-1.0-13.0","0","0","95436","","null","","","null","1","","NaN","","","","","","","","","","","","","",""
"","response","","html-keyboard-response","14","109233","0.0-1.0-14.0-0.0","0","0","95436","","33","","","68","1","","","1","1","training","adjacent","BA","2","1","Q.jpg","N.jpg","1","0","0","",""
"","feedback","","html-keyboard-response","15","110237","0.0-1.0-15.0-0.0","0","0","95436","","null","","","null","1","","","","","","","","","","","","","","","",""
"","time_out","","html-keyboard-response","16","112240","0.0-1.0-17.0-0.0","0","0","95436","","null","","","null","1","","","","","","","","","","","","","","","",""
"","ITI","","html-keyboard-response","17","113242","0.0-1.0-18.0","0","0","95436","","null","","","null","1","","","","","","","","","","","","","","","NaN",""
"","S1","","html-keyboard-response","18","113494","0.0-1.0-20.0","0","0","95436","","null","","","null","2","","","","","","","","","","","","","","","",""
"","ISI","","html-keyboard-response","19","114497","0.0-1.0-21.0","0","0","95436","","null","","","null","2","NaN","","","","","","","","","","","","","","",""
"","S2","","html-keyboard-response","20","114752","0.0-1.0-22.0","0","0","95436","","null","","","null","2","","NaN","","","","","","","","","","","","","",""
"","response","","html-keyboard-response","21","115694","0.0-1.0-23.0-0.0","0","0","95436","","940","","","68","2","","","1","2","training","adjacent","CD","3","4","P.jpg","R.jpg","1","1","1","",""
"","feedback","","html-keyboard-response","22","116705","0.0-1.0-24.0-0.0","0","0","95436","","null","","","null","2","","","","","","","","","","","","","","","",""
"","ITI","","html-keyboard-response","23","117707","0.0-1.0-27.0","0","0","95436","","null","","","null","2","","","","","","","","","","","","","","","NaN",""
"","S1","","html-keyboard-response","24","117959","0.0-1.0-29.0","0","0","95436","","null","","","null","3","","","","","","","","","","","","","","","",""
"","ISI","","html-keyboard-response","25","118962","0.0-1.0-30.0","0","0","95436","","null","","","null","3","NaN","","","","","","","","","","","","","","",""
"","S2","","html-keyboard-response","26","119215","0.0-1.0-31.0","0","0","95436","","null","","","null","3","","NaN","","","","","","","","","","","","","",""
"","response","","html-keyboard-response","27","119976","0.0-1.0-32.0-0.0","0","0","95436","","759","","","68","3","","","1","3","training","adjacent","BA","2","1","Q.jpg","N.jpg","1","0","0","",""
"","feedback","","html-keyboard-response","28","120979","0.0-1.0-33.0-0.0","0","0","95436","","null","","","null","3","","","","","","","","","","","","","","","",""
"","time_out","","html-keyboard-response","29","122986","0.0-1.0-35.0-0.0","0","0","95436","","null","","","null","3","","","","","","","","","","","","","","","",""
"","ITI","","html-keyboard-response","30","123988","0.0-1.0-36.0","0","0","95436","","null","","","null","3","","","","","","","","","","","","","","","NaN",""
"","S1","","html-keyboard-response","31","124241","0.0-1.0-38.0","0","0","95436","","null","","","null","4","","","","","","","","","","","","","","","",""
"","ISI","","html-keyboard-response","32","125244","0.0-1.0-39.0","0","0","95436","","null","","","null","4","NaN","","","","","","","","","","","","","","",""
"","S2","","html-keyboard-response","33","125497","0.0-1.0-40.0","0","0","95436","","null","","","null","4","","NaN","","","","","","","","","","","","","",""
"","response","","html-keyboard-response","34","125897","0.0-1.0-41.0-0.0","0","0","95436","","398","","","75","4","","","1","4","training","adjacent","BA","2","1","Q.jpg","N.jpg","0","0","1","",""
"","feedback","","html-keyboard-response","35","126900","0.0-1.0-42.0-0.0","0","0","95436","","null","","","null","4","","","","","","","","","","","","","","","",""
"","ITI","","html-keyboard-response","36","127911","0.0-1.0-45.0","0","0","95436","","null","","","null","4","","","","","","","","","","","","","","","NaN",""
"","S1","","html-keyboard-response","37","128165","0.0-1.0-47.0","0","0","95436","","null","","","null","5","","","","","","","","","","","","","","","",""
"","ISI","","html-keyboard-response","38","129168","0.0-1.0-48.0","0","0","95436","","null","","","null","5","NaN","","","","","","","","","","","","","","",""
"","S2","","html-keyboard-response","39","129421","0.0-1.0-49.0","0","0","95436","","null","","","null","5","","NaN","","","","","","","","","","","","","",""
"","response","","html-keyboard-response","40","130568","0.0-1.0-50.0-0.0","0","0","95436","","1144","","","68","5","","","1","5","training","adjacent","AB","1","2","N.jpg","Q.jpg","1","1","1","",""
"","feedback","","html-keyboard-response","41","131571","0.0-1.0-51.0-0.0","0","0","95436","","null","","","null","5","","","","","","","","","","","","","","","",""
"","ITI","","html-keyboard-response","42","132573","0.0-1.0-54.0","0","0","95436","","null","","","null","5","","","","","","","","","","","","","","","NaN",""
"","S1","","html-keyboard-response","43","132826","0.0-1.0-56.0","0","0","95436","","null","","","null","6","","","","","","","","","","","","","","","",""
"","ISI","","html-keyboard-response","44","133828","0.0-1.0-57.0","0","0","95436","","null","","","null","6","NaN","","","","","","","","","","","","","","",""
"","S2","","html-keyboard-response","45","134082","0.0-1.0-58.0","0","0","95436","","null","","","null","6","","NaN","","","","","","","","","","","","","",""
"","response","","html-keyboard-response","46","134732","0.0-1.0-59.0-0.0","0","0","95436","","648","","","75","6","","","1","6","training","adjacent","DC","4","3","R.jpg","P.jpg","0","0","1","",""
"","feedback","","html-keyboard-response","47","135735","0.0-1.0-60.0-0.0","0","0","95436","","null","","","null","6","","","","","","","","","","","","","","","",""
"","ITI","","html-keyboard-response","48","136738","0.0-1.0-63.0","0","0","95436","","null","","","null","6","","","","","","","","","","","","","","","NaN",""
"","S1","","html-keyboard-response","49","136990","0.0-1.0-65.0","0","0","95436","","null","","","null","7","","","","","","","","","","","","","","","",""
"","ISI","","html-keyboard-response","50","137992","0.0-1.0-66.0","0","0","95436","","null","","","null","7","NaN","","","","","","","","","","","","","","",""
"","S2","","html-keyboard-response","51","138257","0.0-1.0-67.0","0","0","95436","","null","","","null","7","","NaN","","","","","","","","","","","","","",""
"","response","","html-keyboard-response","52","139161","0.0-1.0-68.0-0.0","0","0","95436","","902","","","68","7","","","1","7","training","adjacent","GF","7","6","L.jpg","M.jpg","1","0","0","",""
"","feedback","","html-keyboard-response","53","140175","0.0-1.0-69.0-0.0","0","0","95436","","null","","","null","7","","","","","","","","","","","","","","","",""
"","time_out","","html-keyboard-response","54","142177","0.0-1.0-71.0-0.0","0","0","95436","","null","","","null","7","","","","","","","","","","","","","","","",""
"","ITI","","html-keyboard-response","55","143179","0.0-1.0-72.0","0","0","95436","","null","","","null","7","","","","","","","","","","","","","","","NaN",""
"","S1","","html-keyboard-response","56","143432","0.0-1.0-74.0","0","0","95436","","null","","","null","8","","","","","","","","","","","","","","","",""
"","ISI","","html-keyboard-response","57","144435","0.0-1.0-75.0","0","0","95436","","null","","","null","8","NaN","","","","","","","","","","","","","","",""
"","S2","","html-keyboard-response","58","144689","0.0-1.0-76.0","0","0","95436","","null","","","null","8","","NaN","","","","","","","","","","","","","",""
"","response","","html-keyboard-response","59","145042","0.0-1.0-77.0-0.0","0","0","95436","","351","","","75","8","","","1","8","training","adjacent","DC","4","3","R.jpg","P.jpg","0","0","1","",""
"","feedback","","html-keyboard-response","60","146045","0.0-1.0-78.0-0.0","0","0","95436","","null","","","null","8","","","","","","","","","","","","","","","",""
"","ITI","","html-keyboard-response","61","147047","0.0-1.0-81.0","0","0","95436","","null","","","null","8","","","","","","","","","","","","","","","NaN",""
"","S1","","html-keyboard-response","62","147299","0.0-1.0-83.0","0","0","95436","","null","","","null","9","","","","","","","","","","","","","","","",""
"","ISI","","html-keyboard-response","63","148313","0.0-1.0-84.0","0","0","95436","","null","","","null","9","NaN","","","","","","","","","","","","","","",""
"","S2","","html-keyboard-response","64","148569","0.0-1.0-85.0","0","0","95436","","null","","","null","9","","NaN","","","","","","","","","","","","","",""
"","response","","html-keyboard-response","65","149331","0.0-1.0-86.0-0.0","0","0","95436","","760","","","75","9","","","1","9","training","adjacent","FG","6","7","M.jpg","L.jpg","0","1","0","",""
"","feedback","","html-keyboard-response","66","150334","0.0-1.0-87.0-0.0","0","0","95436","","null","","","null","9","","","","","","","","","","","","","","","",""
"","time_out","","html-keyboard-response","67","152338","0.0-1.0-89.0-0.0","0","0","95436","","null","","","null","9","","","","","","","","","","","","","","","",""
"","ITI","","html-keyboard-response","68","153344","0.0-1.0-90.0","0","0","95436","","null","","","null","9","","","","","","","","","","","","","","","NaN",""
"","S1","","html-keyboard-response","69","153597","0.0-1.0-92.0","0","0","95436","","null","","","null","10","","","","","","","","","","","","","","","",""
"","ISI","","html-keyboard-response","70","154608","0.0-1.0-93.0","0","0","95436","","null","","","null","10","NaN","","","","","","","","","","","","","","",""
"","S2","","html-keyboard-response","71","154861","0.0-1.0-94.0","0","0","95436","","null","","","null","10","","NaN","","","","","","","","","","","","","",""
"","response","","html-keyboard-response","72","155196","0.0-1.0-95.0-0.0","0","0","95436","","334","","","68","10","","","1","10","training","adjacent","FE","6","5","M.jpg","O.jpg","1","0","0","",""
"","feedback","","html-keyboard-response","73","156199","0.0-1.0-96.0-0.0","0","0","95436","","null","","","null","10","","","","","","","","","","","","","","","",""
"","time_out","","html-keyboard-response","74","158202","0.0-1.0-98.0-0.0","0","0","95436","","null","","","null","10","","","","","","","","","","","","","","","",""
"","ITI","","html-keyboard-response","75","159204","0.0-1.0-99.0","0","0","95436","","null","","","null","10","","","","","","","","","","","","","","","NaN",""
"","S1","","html-keyboard-response","76","159458","0.0-1.0-101.0","0","0","95436","","null","","","null","11","","","","","","","","","","","","","","","",""
"","ISI","","html-keyboard-response","77","160461","0.0-1.0-102.0","0","0","95436","","null","","","null","11","NaN","","","","","","","","","","","","","","",""
"","S2","","html-keyboard-response","78","160714","0.0-1.0-103.0","0","0","95436","","null","","","null","11","","NaN","","","","","","","","","","","","","",""
"","response","","html-keyboard-response","79","161708","0.0-1.0-104.0-0.0","0","0","95436","","993","","","68","11","","","1","11","training","adjacent","BC","2","3","Q.jpg","P.jpg","1","1","1","",""
"","feedback","","html-keyboard-response","80","162712","0.0-1.0-105.0-0.0","0","0","95436","","null","","","null","11","","","","","","","","","","","","","","","",""
"","ITI","","html-keyboard-response","81","163725","0.0-1.0-108.0","0","0","95436","","null","","","null","11","","","","","","","","","","","","","","","NaN",""
"","S1","","html-keyboard-response","82","163977","0.0-1.0-110.0","0","0","95436","","null","","","null","12","","","","","","","","","","","","","","","",""
"","ISI","","html-keyboard-response","83","164980","0.0-1.0-111.0","0","0","95436","","null","","","null","12","NaN","","","","","","","","","","","","","","",""
"","S2","","html-keyboard-response","84","165233","0.0-1.0-112.0","0","0","95436","","null","","","null","12","","NaN","","","","","","","","","","","","","",""
"","response","","html-keyboard-response","85","166067","0.0-1.0-113.0-0.0","0","0","95436","","831","","","68","12","","","1","12","training","adjacent","DE","4","5","R.jpg","O.jpg","1","1","1","",""
"","feedback","","html-keyboard-response","86","167069","0.0-1.0-114.0-0.0","0","0","95436","","null","","","null","12","","","","","","","","","","","","","","","",""
"","ITI","","html-keyboard-response","87","168071","0.0-1.0-117.0","0","0","95436","","null","","","null","12","","","","","","","","","","","","","","","NaN",""
"","S1","","html-keyboard-response","88","168335","0.0-1.0-119.0","0","0","95436","","null","","","null","13","","","","","","","","","","","","","","","",""
"","ISI","","html-keyboard-response","89","169338","0.0-1.0-120.0","0","0","95436","","null","","","null","13","NaN","","","","","","","","","","","","","","",""
"","S2","","html-keyboard-response","90","169591","0.0-1.0-121.0","0","0","95436","","null","","","null","13","","NaN","","","","","","","","","","","","","",""
"","response","","html-keyboard-response","91","170552","0.0-1.0-122.0-0.0","0","0","95436","","958","","","68","13","","","1","13","training","adjacent","GF","7","6","L.jpg","M.jpg","1","0","0","",""
"","feedback","","html-keyboard-response","92","171556","0.0-1.0-123.0-0.0","0","0","95436","","null","","","null","13","","","","","","","","","","","","","","","",""
"","time_out","","html-keyboard-response","93","173559","0.0-1.0-125.0-0.0","0","0","95436","","null","","","null","13","","","","","","","","","","","","","","","",""
"","ITI","","html-keyboard-response","94","174563","0.0-1.0-126.0","0","0","95436","","null","","","null","13","","","","","","","","","","","","","","","NaN",""
"","S1","","html-keyboard-response","95","174815","0.0-1.0-128.0","0","0","95436","","null","","","null","14","","","","","","","","","","","","","","","",""
"","ISI","","html-keyboard-response","96","175818","0.0-1.0-129.0","0","0","95436","","null","","","null","14","NaN","","","","","","","","","","","","","","",""
"","S2","","html-keyboard-response","97","176071","0.0-1.0-130.0","0","0","95436","","null","","","null","14","","NaN","","","","","","","","","","","","","",""
"","response","","html-keyboard-response","98","176742","0.0-1.0-131.0-0.0","0","0","95436","","668","","","75","14","","","1","14","training","adjacent","CD","3","4","P.jpg","R.jpg","0","1","0","",""
"","feedback","","html-keyboard-response","99","177745","0.0-1.0-132.0-0.0","0","0","95436","","null","","","null","14","","","","","","","","","","","","","","","",""
"","time_out","","html-keyboard-response","100","179748","0.0-1.0-134.0-0.0","0","0","95436","","null","","","null","14","","","","","","","","","","","","","","","",""
"","ITI","","html-keyboard-response","101","180751","0.0-1.0-135.0","0","0","95436","","null","","","null","14","","","","","","","","","","","","","","","NaN",""
"","S1","","html-keyboard-response","102","181005","0.0-1.0-137.0","0","0","95436","","null","","","null","15","","","","","","","","","","","","","","","",""
"","ISI","","html-keyboard-response","103","182008","0.0-1.0-138.0","0","0","95436","","null","","","null","15","NaN","","","","","","","","","","","","","","",""
"","S2","","html-keyboard-response","104","182262","0.0-1.0-139.0","0","0","95436","","null","","","null","15","","NaN","","","","","","","","","","","","","",""
"","response","","html-keyboard-response","105","182919","0.0-1.0-140.0-0.0","0","0","95436","","654","","","68","15","","","1","15","training","adjacent","ED","5","4","O.jpg","R.jpg","1","0","0","",""
"","feedback","","html-keyboard-response","106","183922","0.0-1.0-141.0-0.0","0","0","95436","","null","","","null","15","","","","","","","","","","","","","","","",""
"","time_out","","html-keyboard-response","107","185926","0.0-1.0-143.0-0.0","0","0","95436","","null","","","null","15","","","","","","","","","","","","","","","",""
"","ITI","","html-keyboard-response","108","186929","0.0-1.0-144.0","0","0","95436","","null","","","null","15","","","","","","","","","","","","","","","NaN",""
"","S1","","html-keyboard-response","109","187188","0.0-1.0-146.0","0","0","95436","","null","","","null","16","","","","","","","","","","","","","","","",""
"","ISI","","html-keyboard-response","110","188191","0.0-1.0-147.0","0","0","95436","","null","","","null","16","NaN","","","","","","","","","","","","","","",""
"","S2","","html-keyboard-response","111","188444","0.0-1.0-148.0","0","0","95436","","null","","","null","16","","NaN","","","","","","","","","","","","","",""
"","response","","html-keyboard-response","112","189259","0.0-1.0-149.0-0.0","0","0","95436","","812","","","75","16","","","1","16","training","adjacent","CB","3","2","P.jpg","Q.jpg","0","0","1","",""
"","feedback","","html-keyboard-response","113","190261","0.0-1.0-150.0-0.0","0","0","95436","","null","","","null","16","","","","","","","","","","","","","","","",""
"","ITI","","html-keyboard-response","114","191263","0.0-1.0-153.0","0","0","95436","","null","","","null","16","","","","","","","","","","","","","","","NaN",""
"","S1","","html-keyboard-response","115","191516","0.0-1.0-155.0","0","0","95436","","null","","","null","17","","","","","","","","","","","","","","","",""
"","ISI","","html-keyboard-response","116","192518","0.0-1.0-156.0","0","0","95436","","null","","","null","17","NaN","","","","","","","","","","","","","","",""
"","S2","","html-keyboard-response","117","192778","0.0-1.0-157.0","0","0","95436","","null","","","null","17","","NaN","","","","","","","","","","","","","",""
"","response","","html-keyboard-response","118","193466","0.0-1.0-158.0-0.0","0","0","95436","","685","","","68","17","","","1","17","training","adjacent","ED","5","4","O.jpg","R.jpg","1","0","0","",""
"","feedback","","html-keyboard-response","119","194469","0.0-1.0-159.0-0.0","0","0","95436","","null","","","null","17","","","","","","","","","","","","","","","",""
"","time_out","","html-keyboard-response","120","196471","0.0-1.0-161.0-0.0","0","0","95436","","null","","","null","17","","","","","","","","","","","","","","","",""
"","ITI","","html-keyboard-response","121","197475","0.0-1.0-162.0","0","0","95436","","null","","","null","17","","","","","","","","","","","","","","","NaN",""
"","S1","","html-keyboard-response","122","197738","0.0-1.0-164.0","0","0","95436","","null","","","null","18","","","","","","","","","","","","","","","",""
"","ISI","","html-keyboard-response","123","198741","0.0-1.0-165.0","0","0","95436","","null","","","null","18","NaN","","","","","","","","","","","","","","",""
"","S2","","html-keyboard-response","124","198994","0.0-1.0-166.0","0","0","95436","","null","","","null","18","","NaN","","","","","","","","","","","","","",""
"","response","","html-keyboard-response","125","199457","0.0-1.0-167.0-0.0","0","0","95436","","462","","","75","18","","","1","18","training","adjacent","ED","5","4","O.jpg","R.jpg","0","0","1","",""
"","feedback","","html-keyboard-response","126","200460","0.0-1.0-168.0-0.0","0","0","95436","","null","","","null","18","","","","","","","","","","","","","","","",""
"","ITI","","html-keyboard-response","127","201462","0.0-1.0-171.0","0","0","95436","","null","","","null","18","","","","","","","","","","","","","","","NaN",""
"","S1","","html-keyboard-response","128","201714","0.0-1.0-173.0","0","0","95436","","null","","","null","19","","","","","","","","","","","","","","","",""
"","ISI","","html-keyboard-response","129","202716","0.0-1.0-174.0","0","0","95436","","null","","","null","19","NaN","","","","","","","","","","","","","","",""
"","S2","","html-keyboard-response","130","202969","0.0-1.0-175.0","0","0","95436","","null","","","null","19","","NaN","","","","","","","","","","","","","",""
"","response","","html-keyboard-response","131","203761","0.0-1.0-176.0-0.0","0","0","95436","","789","","","75","19","","","1","19","training","adjacent","CD","3","4","P.jpg","R.jpg","0","1","0","",""
"","feedback","","html-keyboard-response","132","204776","0.0-1.0-177.0-0.0","0","0","95436","","null","","","null","19","","","","","","","","","","","","","","","",""
"","time_out","","html-keyboard-response","133","206781","0.0-1.0-179.0-0.0","0","0","95436","","null","","","null","19","","","","","","","","","","","","","","","",""
"","ITI","","html-keyboard-response","134","207798","0.0-1.0-180.0","0","0","95436","","null","","","null","19","","","","","","","","","","","","","","","NaN",""
"","S1","","html-keyboard-response","135","208051","0.0-1.0-182.0","0","0","95436","","null","","","null","20","","","","","","","","","","","","","","","",""
"","ISI","","html-keyboard-response","136","209058","0.0-1.0-183.0","0","0","95436","","null","","","null","20","NaN","","","","","","","","","","","","","","",""
"","S2","","html-keyboard-response","137","209311","0.0-1.0-184.0","0","0","95436","","null","","","null","20","","NaN","","","","","","","","","","","","","",""
"","response","","html-keyboard-response","138","210094","0.0-1.0-185.0-0.0","0","0","95436","","782","","","68","20","","","1","20","training","adjacent","FG","6","7","M.jpg","L.jpg","1","1","1","",""
"","feedback","","html-keyboard-response","139","211097","0.0-1.0-186.0-0.0","0","0","95436","","null","","","null","20","","","","","","","","","","","","","","","",""
"","ITI","","html-keyboard-response","140","212099","0.0-1.0-189.0","0","0","95436","","null","","","null","20","","","","","","","","","","","","","","","NaN",""
"","S1","","html-keyboard-response","141","212353","0.0-1.0-191.0","0","0","95436","","null","","","null","21","","","","","","","","","","","","","","","",""
"","ISI","","html-keyboard-response","142","213355","0.0-1.0-192.0","0","0","95436","","null","","","null","21","NaN","","","","","","","","","","","","","","",""
"","S2","","html-keyboard-response","143","213623","0.0-1.0-193.0","0","0","95436","","null","","","null","21","","NaN","","","","","","","","","","","","","",""
"","response","","html-keyboard-response","144","214865","0.0-1.0-194.0-0.0","0","0","95436","","1238","","","68","21","","","1","21","training","adjacent","BA","2","1","Q.jpg","N.jpg","1","0","0","",""
"","feedback","","html-keyboard-response","145","215869","0.0-1.0-195.0-0.0","0","0","95436","","null","","","null","21","","","","","","","","","","","","","","","",""
"","time_out","","html-keyboard-response","146","217872","0.0-1.0-197.0-0.0","0","0","95436","","null","","","null","21","","","","","","","","","","","","","","","",""
"","ITI","","html-keyboard-response","147","218876","0.0-1.0-198.0","0","0","95436","","null","","","null","21","","","","","","","","","","","","","","","NaN",""
"","S1","","html-keyboard-response","148","219129","0.0-1.0-200.0","0","0","95436","","null","","","null","22","","","","","","","","","","","","","","","",""
"","ISI","","html-keyboard-response","149","220133","0.0-1.0-201.0","0","0","95436","","null","","","null","22","NaN","","","","","","","","","","","","","","",""
"","S2","","html-keyboard-response","150","220389","0.0-1.0-202.0","0","0","95436","","null","","","null","22","","NaN","","","","","","","","","","","","","",""
"","response","","html-keyboard-response","151","221118","0.0-1.0-203.0-0.0","0","0","95436","","726","","","75","22","","","1","22","training","adjacent","EF","5","6","O.jpg","M.jpg","0","1","0","",""
"","feedback","","html-keyboard-response","152","222137","0.0-1.0-204.0-0.0","0","0","95436","","null","","","null","22","","","","","","","","","","","","","","","",""
"","time_out","","html-keyboard-response","153","224140","0.0-1.0-206.0-0.0","0","0","95436","","null","","","null","22","","","","","","","","","","","","","","","",""
"","ITI","","html-keyboard-response","154","225144","0.0-1.0-207.0","0","0","95436","","null","","","null","22","","","","","","","","","","","","","","","NaN",""
"","S1","","html-keyboard-response","155","225397","0.0-1.0-209.0","0","0","95436","","null","","","null","23","","","","","","","","","","","","","","","",""
"","ISI","","html-keyboard-response","156","226400","0.0-1.0-210.0","0","0","95436","","null","","","null","23","NaN","","","","","","","","","","","","","","",""
"","S2","","html-keyboard-response","157","226653","0.0-1.0-211.0","0","0","95436","","null","","","null","23","","NaN","","","","","","","","","","","","","",""
"","response","","html-keyboard-response","158","226932","0.0-1.0-212.0-0.0","0","0","95436","","278","","","68","23","","","1","23","training","adjacent","FG","6","7","M.jpg","L.jpg","1","1","1","",""
"","feedback","","html-keyboard-response","159","227935","0.0-1.0-213.0-0.0","0","0","95436","","null","","","null","23","","","","","","","","","","","","","","","",""
"","ITI","","html-keyboard-response","160","228938","0.0-1.0-216.0","0","0","95436","","null","","","null","23","","","","","","","","","","","","","","","NaN",""
"","S1","","html-keyboard-response","161","229191","0.0-1.0-218.0","0","0","95436","","null","","","null","24","","","","","","","","","","","","","","","",""
"","ISI","","html-keyboard-response","162","230195","0.0-1.0-219.0","0","0","95436","","null","","","null","24","NaN","","","","","","","","","","","","","","",""
"","S2","","html-keyboard-response","163","230449","0.0-1.0-220.0","0","0","95436","","null","","","null","24","","NaN","","","","","","","","","","","","","",""
"","response","","html-keyboard-response","164","230734","0.0-1.0-221.0-0.0","0","0","95436","","282","","","68","24","","","1","24","training","adjacent","FG","6","7","M.jpg","L.jpg","1","1","1","",""
"","feedback","","html-keyboard-response","165","231737","0.0-1.0-222.0-0.0","0","0","95436","","null","","","null","24","","","","","","","","","","","","","","","",""
"","ITI","","html-keyboard-response","166","232740","0.0-1.0-225.0","0","0","95436","","null","","","null","24","","","","","","","","","","","","","","","NaN",""
"","S1","","html-keyboard-response","167","232993","0.0-1.0-227.0","0","0","95436","","null","","","null","25","","","","","","","","","","","","","","","",""
"","ISI","","html-keyboard-response","168","233996","0.0-1.0-228.0","0","0","95436","","null","","","null","25","NaN","","","","","","","","","","","","","","",""
"","S2","","html-keyboard-response","169","234250","0.0-1.0-229.0","0","0","95436","","null","","","null","25","","NaN","","","","","","","","","","","","","",""
"","response","","html-keyboard-response","170","234612","0.0-1.0-230.0-0.0","0","0","95436","","358","","","68","25","","","1","25","training","adjacent","FE","6","5","M.jpg","O.jpg","1","0","0","",""
"","feedback","","html-keyboard-response","171","235617","0.0-1.0-231.0-0.0","0","0","95436","","null","","","null","25","","","","","","","","","","","","","","","",""
"","time_out","","html-keyboard-response","172","237621","0.0-1.0-233.0-0.0","0","0","95436","","null","","","null","25","","","","","","","","","","","","","","","",""
"","ITI","","html-keyboard-response","173","238624","0.0-1.0-234.0","0","0","95436","","null","","","null","25","","","","","","","","","","","","","","","NaN",""
"","S1","","html-keyboard-response","174","238878","0.0-1.0-236.0","0","0","95436","","null","","","null","26","","","","","","","","","","","","","","","",""
"","ISI","","html-keyboard-response","175","239881","0.0-1.0-237.0","0","0","95436","","null","","","null","26","NaN","","","","","","","","","","","","","","",""
"","S2","","html-keyboard-response","176","240135","0.0-1.0-238.0","0","0","95436","","null","","","null","26","","NaN","","","","","","","","","","","","","",""
"","response","","html-keyboard-response","177","240584","0.0-1.0-239.0-0.0","0","0","95436","","445","","","75","26","","","1","26","training","adjacent","DE","4","5","R.jpg","O.jpg","0","1","0","",""
"","feedback","","html-keyboard-response","178","241586","0.0-1.0-240.0-0.0","0","0","95436","","null","","","null","26","","","","","","","","","","","","","","","",""
"","time_out","","html-keyboard-response","179","243589","0.0-1.0-242.0-0.0","0","0","95436","","null","","","null","26","","","","","","","","","","","","","","","",""
"","ITI","","html-keyboard-response","180","244605","0.0-1.0-243.0","0","0","95436","","null","","","null","26","","","","","","","","","","","","","","","NaN",""
"","S1","","html-keyboard-response","181","244857","0.0-1.0-245.0","0","0","95436","","null","","","null","27","","","","","","","","","","","","","","","",""
"","ISI","","html-keyboard-response","182","245860","0.0-1.0-246.0","0","0","95436","","null","","","null","27","NaN","","","","","","","","","","","","","","",""
"","S2","","html-keyboard-response","183","246113","0.0-1.0-247.0","0","0","95436","","null","","","null","27","","NaN","","","","","","","","","","","","","",""
"","response","","html-keyboard-response","184","246579","0.0-1.0-248.0-0.0","0","0","95436","","464","","","68","27","","","1","27","training","adjacent","CB","3","2","P.jpg","Q.jpg","1","0","0","",""
"","feedback","","html-keyboard-response","185","247582","0.0-1.0-249.0-0.0","0","0","95436","","null","","","null","27","","","","","","","","","","","","","","","",""
"","time_out","","html-keyboard-response","186","249585","0.0-1.0-251.0-0.0","0","0","95436","","null","","","null","27","","","","","","","","","","","","","","","",""
"","ITI","","html-keyboard-response","187","250588","0.0-1.0-252.0","0","0","95436","","null","","","null","27","","","","","","","","","","","","","","","NaN",""
"","S1","","html-keyboard-response","188","250840","0.0-1.0-254.0","0","0","95436","","null","","","null","28","","","","","","","","","","","","","","","",""
"","ISI","","html-keyboard-response","189","251844","0.0-1.0-255.0","0","0","95436","","null","","","null","28","NaN","","","","","","","","","","","","","","",""
"","S2","","html-keyboard-response","190","252097","0.0-1.0-256.0","0","0","95436","","null","","","null","28","","NaN","","","","","","","","","","","","","",""
"","response","","html-keyboard-response","191","252420","0.0-1.0-257.0-0.0","0","0","95436","","322","","","75","28","","","1","28","training","adjacent","EF","5","6","O.jpg","M.jpg","0","1","0","",""
"","feedback","","html-keyboard-response","192","253424","0.0-1.0-258.0-0.0","0","0","95436","","null","","","null","28","","","","","","","","","","","","","","","",""
"","time_out","","html-keyboard-response","193","255427","0.0-1.0-260.0-0.0","0","0","95436","","null","","","null","28","","","","","","","","","","","","","","","",""
"","ITI","","html-keyboard-response","194","256429","0.0-1.0-261.0","0","0","95436","","null","","","null","28","","","","","","","","","","","","","","","NaN",""
"","S1","","html-keyboard-response","195","256684","0.0-1.0-263.0","0","0","95436","","null","","","null","29","","","","","","","","","","","","","","","",""
"","ISI","","html-keyboard-response","196","257687","0.0-1.0-264.0","0","0","95436","","null","","","null","29","NaN","","","","","","","","","","","","","","",""
"","S2","","html-keyboard-response","197","257940","0.0-1.0-265.0","0","0","95436","","null","","","null","29","","NaN","","","","","","","","","","","","","",""
"","response","","html-keyboard-response","198","258800","0.0-1.0-266.0-0.0","0","0","95436","","858","","","75","29","","","1","29","training","adjacent","CB","3","2","P.jpg","Q.jpg","0","0","1","",""
"","feedback","","html-keyboard-response","199","259804","0.0-1.0-267.0-0.0","0","0","95436","","null","","","null","29","","","","","","","","","","","","","","","",""
"","ITI","","html-keyboard-response","200","260807","0.0-1.0-270.0","0","0","95436","","null","","","null","29","","","","","","","","","","","","","","","NaN",""
"","S1","","html-keyboard-response","201","261060","0.0-1.0-272.0","0","0","95436","","null","","","null","30","","","","","","","","","","","","","","","",""
"","ISI","","html-keyboard-response","202","262063","0.0-1.0-273.0","0","0","95436","","null","","","null","30","NaN","","","","","","","","","","","","","","",""
"","S2","","html-keyboard-response","203","262324","0.0-1.0-274.0","0","0","95436","","null","","","null","30","","NaN","","","","","","","","","","","","","",""
"","response","","html-keyboard-response","204","262896","0.0-1.0-275.0-0.0","0","0","95436","","570","","","68","30","","","1","30","training","adjacent","FE","6","5","M.jpg","O.jpg","1","0","0","",""
"","feedback","","html-keyboard-response","205","263898","0.0-1.0-276.0-0.0","0","0","95436","","null","","","null","30","","","","","","","","","","","","","","","",""
"","time_out","","html-keyboard-response","206","265902","0.0-1.0-278.0-0.0","0","0","95436","","null","","","null","30","","","","","","","","","","","","","","","",""
"","ITI","","html-keyboard-response","207","266908","0.0-1.0-279.0","0","0","95436","","null","","","null","30","","","","","","","","","","","","","","","NaN",""
"","S1","","html-keyboard-response","208","267164","0.0-1.0-281.0","0","0","95436","","null","","","null","31","","","","","","","","","","","","","","","",""
"","ISI","","html-keyboard-response","209","268167","0.0-1.0-282.0","0","0","95436","","null","","","null","31","NaN","","","","","","","","","","","","","","",""
"","S2","","html-keyboard-response","210","268421","0.0-1.0-283.0","0","0","95436","","null","","","null","31","","NaN","","","","","","","","","","","","","",""
"","response","","html-keyboard-response","211","268793","0.0-1.0-284.0-0.0","0","0","95436","","370","","","68","31","","","1","31","training","adjacent","BC","2","3","Q.jpg","P.jpg","1","1","1","",""
"","feedback","","html-keyboard-response","212","269796","0.0-1.0-285.0-0.0","0","0","95436","","null","","","null","31","","","","","","","","","","","","","","","",""
"","ITI","","html-keyboard-response","213","270799","0.0-1.0-288.0","0","0","95436","","null","","","null","31","","","","","","","","","","","","","","","NaN",""
"","S1","","html-keyboard-response","214","271052","0.0-1.0-290.0","0","0","95436","","null","","","null","32","","","","","","","","","","","","","","","",""
"","ISI","","html-keyboard-response","215","272055","0.0-1.0-291.0","0","0","95436","","null","","","null","32","NaN","","","","","","","","","","","","","","",""
"","S2","","html-keyboard-response","216","272309","0.0-1.0-292.0","0","0","95436","","null","","","null","32","","NaN","","","","","","","","","","","","","",""
"","response","","html-keyboard-response","217","273107","0.0-1.0-293.0-0.0","0","0","95436","","797","","","68","32","","","1","32","training","adjacent","DE","4","5","R.jpg","O.jpg","1","1","1","",""
"","feedback","","html-keyboard-response","218","274110","0.0-1.0-294.0-0.0","0","0","95436","","null","","","null","32","","","","","","","","","","","","","","","",""
"","ITI","","html-keyboard-response","219","275117","0.0-1.0-297.0","0","0","95436","","null","","","null","32","","","","","","","","","","","","","","","NaN",""
"","S1","","html-keyboard-response","220","275371","0.0-1.0-299.0","0","0","95436","","null","","","null","33","","","","","","","","","","","","","","","",""
"","ISI","","html-keyboard-response","221","276374","0.0-1.0-300.0","0","0","95436","","null","","","null","33","NaN","","","","","","","","","","","","","","",""
"","S2","","html-keyboard-response","222","276627","0.0-1.0-301.0","0","0","95436","","null","","","null","33","","NaN","","","","","","","","","","","","","",""
"","response","","html-keyboard-response","223","276934","0.0-1.0-302.0-0.0","0","0","95436","","305","","","68","33","","","1","33","training","adjacent","BC","2","3","Q.jpg","P.jpg","1","1","1","",""
"","feedback","","html-keyboard-response","224","277937","0.0-1.0-303.0-0.0","0","0","95436","","null","","","null","33","","","","","","","","","","","","","","","",""
"","ITI","","html-keyboard-response","225","278939","0.0-1.0-306.0","0","0","95436","","null","","","null","33","","","","","","","","","","","","","","","NaN",""
"","S1","","html-keyboard-response","226","279192","0.0-1.0-308.0","0","0","95436","","null","","","null","34","","","","","","","","","","","","","","","",""
"","ISI","","html-keyboard-response","227","280194","0.0-1.0-309.0","0","0","95436","","null","","","null","34","NaN","","","","","","","","","","","","","","",""
"","S2","","html-keyboard-response","228","280448","0.0-1.0-310.0","0","0","95436","","null","","","null","34","","NaN","","","","","","","","","","","","","",""
"","response","","html-keyboard-response","229","280862","0.0-1.0-311.0-0.0","0","0","95436","","412","","","68","34","","","1","34","training","adjacent","AB","1","2","N.jpg","Q.jpg","1","1","1","",""
"","feedback","","html-keyboard-response","230","281865","0.0-1.0-312.0-0.0","0","0","95436","","null","","","null","34","","","","","","","","","","","","","","","",""
"","ITI","","html-keyboard-response","231","282867","0.0-1.0-315.0","0","0","95436","","null","","","null","34","","","","","","","","","","","","","","","NaN",""
"","S1","","html-keyboard-response","232","283127","0.0-1.0-317.0","0","0","95436","","null","","","null","35","","","","","","","","","","","","","","","",""
"","ISI","","html-keyboard-response","233","284129","0.0-1.0-318.0","0","0","95436","","null","","","null","35","NaN","","","","","","","","","","","","","","",""
"","S2","","html-keyboard-response","234","284391","0.0-1.0-319.0","0","0","95436","","null","","","null","35","","NaN","","","","","","","","","","","","","",""
"","response","","html-keyboard-response","235","285554","0.0-1.0-320.0-0.0","0","0","95436","","1162","","","75","35","","","1","35","training","adjacent","GF","7","6","L.jpg","M.jpg","0","0","1","",""
"","feedback","","html-keyboard-response","236","286561","0.0-1.0-321.0-0.0","0","0","95436","","null","","","null","35","","","","","","","","","","","","","","","",""
"","ITI","","html-keyboard-response","237","287567","0.0-1.0-324.0","0","0","95436","","null","","","null","35","","","","","","","","","","","","","","","NaN",""
"","S1","","html-keyboard-response","238","287821","0.0-1.0-326.0","0","0","95436","","null","","","null","36","","","","","","","","","","","","","","","",""
"","ISI","","html-keyboard-response","239","288824","0.0-1.0-327.0","0","0","95436","","null","","","null","36","NaN","","","","","","","","","","","","","","",""
"","S2","","html-keyboard-response","240","289078","0.0-1.0-328.0","0","0","95436","","null","","","null","36","","NaN","","","","","","","","","","","","","",""
"","response","","html-keyboard-response","241","289699","0.0-1.0-329.0-0.0","0","0","95436","","619","","","75","36","","","1","36","training","adjacent","GF","7","6","L.jpg","M.jpg","0","0","1","",""
"","feedback","","html-keyboard-response","242","290702","0.0-1.0-330.0-0.0","0","0","95436","","null","","","null","36","","","","","","","","","","","","","","","",""
"","ITI","","html-keyboard-response","243","291706","0.0-1.0-333.0","0","0","95436","","null","","","null","36","","","","","","","","","","","","","","","NaN",""
"","S1","","html-keyboard-response","244","291958","0.0-1.0-335.0","0","0","95436","","null","","","null","37","","","","","","","","","","","","","","","",""
"","ISI","","html-keyboard-response","245","292961","0.0-1.0-336.0","0","0","95436","","null","","","null","37","NaN","","","","","","","","","","","","","","",""
"","S2","","html-keyboard-response","246","293214","0.0-1.0-337.0","0","0","95436","","null","","","null","37","","NaN","","","","","","","","","","","","","",""
"","response","","html-keyboard-response","247","293710","0.0-1.0-338.0-0.0","0","0","95436","","493","","","68","37","","","1","37","training","adjacent","FE","6","5","M.jpg","O.jpg","1","0","0","",""
"","feedback","","html-keyboard-response","248","294713","0.0-1.0-339.0-0.0","0","0","95436","","null","","","null","37","","","","","","","","","","","","","","","",""
"","time_out","","html-keyboard-response","249","296716","0.0-1.0-341.0-0.0","0","0","95436","","null","","","null","37","","","","","","","","","","","","","","","",""
"","ITI","","html-keyboard-response","250","297718","0.0-1.0-342.0","0","0","95436","","null","","","null","37","","","","","","","","","","","","","","","NaN",""
"","S1","","html-keyboard-response","251","297971","0.0-1.0-344.0","0","0","95436","","null","","","null","38","","","","","","","","","","","","","","","",""
"","ISI","","html-keyboard-response","252","298974","0.0-1.0-345.0","0","0","95436","","null","","","null","38","NaN","","","","","","","","","","","","","","",""
"","S2","","html-keyboard-response","253","299227","0.0-1.0-346.0","0","0","95436","","null","","","null","38","","NaN","","","","","","","","","","","","","",""
"","response","","html-keyboard-response","254","299562","0.0-1.0-347.0-0.0","0","0","95436","","333","","","68","38","","","1","38","training","adjacent","DC","4","3","R.jpg","P.jpg","1","0","0","",""
"","feedback","","html-keyboard-response","255","300565","0.0-1.0-348.0-0.0","0","0","95436","","null","","","null","38","","","","","","","","","","","","","","","",""
"","time_out","","html-keyboard-response","256","302568","0.0-1.0-350.0-0.0","0","0","95436","","null","","","null","38","","","","","","","","","","","","","","","",""
"","ITI","","html-keyboard-response","257","303571","0.0-1.0-351.0","0","0","95436","","null","","","null","38","","","","","","","","","","","","","","","NaN",""
"","S1","","html-keyboard-response","258","303824","0.0-1.0-353.0","0","0","95436","","null","","","null","39","","","","","","","","","","","","","","","",""
"","ISI","","html-keyboard-response","259","304838","0.0-1.0-354.0","0","0","95436","","null","","","null","39","NaN","","","","","","","","","","","","","","",""
"","S2","","html-keyboard-response","260","305090","0.0-1.0-355.0","0","0","95436","","null","","","null","39","","NaN","","","","","","","","","","","","","",""
"","response","","html-keyboard-response","261","305410","0.0-1.0-356.0-0.0","0","0","95436","","317","","","75","39","","","1","39","training","adjacent","EF","5","6","O.jpg","M.jpg","0","1","0","",""
"","feedback","","html-keyboard-response","262","306413","0.0-1.0-357.0-0.0","0","0","95436","","null","","","null","39","","","","","","","","","","","","","","","",""
"","time_out","","html-keyboard-response","263","308417","0.0-1.0-359.0-0.0","0","0","95436","","null","","","null","39","","","","","","","","","","","","","","","",""
"","ITI","","html-keyboard-response","264","309420","0.0-1.0-360.0","0","0","95436","","null","","","null","39","","","","","","","","","","","","","","","NaN",""
"","S1","","html-keyboard-response","265","309674","0.0-1.0-362.0","0","0","95436","","null","","","null","40","","","","","","","","","","","","","","","",""
"","ISI","","html-keyboard-response","266","310677","0.0-1.0-363.0","0","0","95436","","null","","","null","40","NaN","","","","","","","","","","","","","","",""
"","S2","","html-keyboard-response","267","310929","0.0-1.0-364.0","0","0","95436","","null","","","null","40","","NaN","","","","","","","","","","","","","",""
"","response","","html-keyboard-response","268","311511","0.0-1.0-365.0-0.0","0","0","95436","","579","","","68","40","","","1","40","training","adjacent","DC","4","3","R.jpg","P.jpg","1","0","0","",""
"","feedback","","html-keyboard-response","269","312515","0.0-1.0-366.0-0.0","0","0","95436","","null","","","null","40","","","","","","","","","","","","","","","",""
"","time_out","","html-keyboard-response","270","314519","0.0-1.0-368.0-0.0","0","0","95436","","null","","","null","40","","","","","","","","","","","","","","","",""
"","ITI","","html-keyboard-response","271","315521","0.0-1.0-369.0","0","0","95436","","null","","","null","40","","","","","","","","","","","","","","","NaN",""
"","S1","","html-keyboard-response","272","315773","0.0-1.0-371.0","0","0","95436","","null","","","null","41","","","","","","","","","","","","","","","",""
"","ISI","","html-keyboard-response","273","316776","0.0-1.0-372.0","0","0","95436","","null","","","null","41","NaN","","","","","","","","","","","","","","",""
"","S2","","html-keyboard-response","274","317030","0.0-1.0-373.0","0","0","95436","","null","","","null","41","","NaN","","","","","","","","","","","","","",""
"","response","","html-keyboard-response","275","317410","0.0-1.0-374.0-0.0","0","0","95436","","377","","","75","41","","","1","41","training","adjacent","AB","1","2","N.jpg","Q.jpg","0","1","0","",""
"","feedback","","html-keyboard-response","276","318412","0.0-1.0-375.0-0.0","0","0","95436","","null","","","null","41","","","","","","","","","","","","","","","",""
"","time_out","","html-keyboard-response","277","320418","0.0-1.0-377.0-0.0","0","0","95436","","null","","","null","41","","","","","","","","","","","","","","","",""
"","ITI","","html-keyboard-response","278","321419","0.0-1.0-378.0","0","0","95436","","null","","","null","41","","","","","","","","","","","","","","","NaN",""
"","S1","","html-keyboard-response","279","321672","0.0-1.0-380.0","0","0","95436","","null","","","null","42","","","","","","","","","","","","","","","",""
"","ISI","","html-keyboard-response","280","322674","0.0-1.0-381.0","0","0","95436","","164","","","68","42","d","","","","","","","","","","","","","","",""
"","S2","","html-keyboard-response","281","322927","0.0-1.0-382.0","0","0","95436","","null","","","null","42","","NaN","","","","","","","","","","","","","",""
"","response","","html-keyboard-response","282","323029","0.0-1.0-383.0-0.0","0","0","95436","","99","","","68","42","","","1","42","training","adjacent","EF","5","6","O.jpg","M.jpg","1","1","1","",""
"","feedback","","html-keyboard-response","283","324032","0.0-1.0-384.0-0.0","0","0","95436","","null","","","null","42","","","","","","","","","","","","","","","",""
"","ITI","","html-keyboard-response","284","325034","0.0-1.0-387.0","0","0","95436","","null","","","null","42","","","","","","","","","","","","","","","NaN",""
"","S1","","html-keyboard-response","285","325287","0.0-1.0-389.0","0","0","95436","","null","","","null","43","","","","","","","","","","","","","","","",""
"","ISI","","html-keyboard-response","286","326290","0.0-1.0-390.0","0","0","95436","","null","","","null","43","NaN","","","","","","","","","","","","","","",""
"","S2","","html-keyboard-response","287","326456","0.0-1.0-391.0","0","0","95436","","164","","","68","43","","d","1","43","training","adjacent","BC","2","3","Q.jpg","P.jpg","1","1","1","",""
"","feedback","","html-keyboard-response","288","327459","0.0-1.0-393.0-0.0","0","0","95436","","null","","","null","43","","","","","","","","","","","","","","","",""
"","ITI","","html-keyboard-response","289","328462","0.0-1.0-396.0","0","0","95436","","null","","","null","43","","","","","","","","","","","","","","","NaN",""
"","S1","","html-keyboard-response","290","328716","0.0-1.0-398.0","0","0","95436","","null","","","null","44","","","","","","","","","","","","","","","",""
"","ISI","","html-keyboard-response","291","329718","0.0-1.0-399.0","0","0","95436","","null","","","null","44","NaN","","","","","","","","","","","","","","",""
"","S2","","html-keyboard-response","292","329979","0.0-1.0-400.0","0","0","95436","","null","","","null","44","","NaN","","","","","","","","","","","","","",""
"","response","","html-keyboard-response","293","330700","0.0-1.0-401.0-0.0","0","0","95436","","720","","","68","44","","","1","44","training","adjacent","CB","3","2","P.jpg","Q.jpg","1","0","0","",""
"","feedback","","html-keyboard-response","294","331707","0.0-1.0-402.0-0.0","0","0","95436","","null","","","null","44","","","","","","","","","","","","","","","",""
"","time_out","","html-keyboard-response","295","333709","0.0-1.0-404.0-0.0","0","0","95436","","null","","","null","44","","","","","","","","","","","","","","","",""
"","ITI","","html-keyboard-response","296","334712","0.0-1.0-405.0","0","0","95436","","null","","","null","44","","","","","","","","","","","","","","","NaN",""
"","S1","","html-keyboard-response","297","334964","0.0-1.0-407.0","0","0","95436","","null","","","null","45","","","","","","","","","","","","","","","",""
"","ISI","","html-keyboard-response","298","335968","0.0-1.0-408.0","0","0","95436","","null","","","null","45","NaN","","","","","","","","","","","","","","",""
"","S2","","html-keyboard-response","299","336220","0.0-1.0-409.0","0","0","95436","","null","","","null","45","","NaN","","","","","","","","","","","","","",""
"","response","","html-keyboard-response","300","336568","0.0-1.0-410.0-0.0","0","0","95436","","345","","","75","45","","","1","45","training","adjacent","DE","4","5","R.jpg","O.jpg","0","1","0","",""
"","feedback","","html-keyboard-response","301","337570","0.0-1.0-411.0-0.0","0","0","95436","","null","","","null","45","","","","","","","","","","","","","","","",""
"","time_out","","html-keyboard-response","302","339573","0.0-1.0-413.0-0.0","0","0","95436","","null","","","null","45","","","","","","","","","","","","","","","",""
"","ITI","","html-keyboard-response","303","340583","0.0-1.0-414.0","0","0","95436","","null","","","null","45","","","","","","","","","","","","","","","NaN",""
"","S1","","html-keyboard-response","304","340835","0.0-1.0-416.0","0","0","95436","","null","","","null","46","","","","","","","","","","","","","","","",""
"","ISI","","html-keyboard-response","305","341851","0.0-1.0-417.0","0","0","95436","","null","","","null","46","NaN","","","","","","","","","","","","","","",""
"","S2","","html-keyboard-response","306","342104","0.0-1.0-418.0","0","0","95436","","null","","","null","46","","NaN","","","","","","","","","","","","","",""
"","response","","html-keyboard-response","307","342477","0.0-1.0-419.0-0.0","0","0","95436","","372","","","68","46","","","1","46","training","adjacent","CD","3","4","P.jpg","R.jpg","1","1","1","",""
"","feedback","","html-keyboard-response","308","343480","0.0-1.0-420.0-0.0","0","0","95436","","null","","","null","46","","","","","","","","","","","","","","","",""
"","ITI","","html-keyboard-response","309","344482","0.0-1.0-423.0","0","0","95436","","null","","","null","46","","","","","","","","","","","","","","","NaN",""
"","S1","","html-keyboard-response","310","344736","0.0-1.0-425.0","0","0","95436","","null","","","null","47","","","","","","","","","","","","","","","",""
"","ISI","","html-keyboard-response","311","345738","0.0-1.0-426.0","0","0","95436","","null","","","null","47","NaN","","","","","","","","","","","","","","",""
"","S2","","html-keyboard-response","312","345992","0.0-1.0-427.0","0","0","95436","","null","","","null","47","","NaN","","","","","","","","","","","","","",""
"","response","","html-keyboard-response","313","346922","0.0-1.0-428.0-0.0","0","0","95436","","929","","","68","47","","","1","47","training","adjacent","ED","5","4","O.jpg","R.jpg","1","0","0","",""
"","feedback","","html-keyboard-response","314","347925","0.0-1.0-429.0-0.0","0","0","95436","","null","","","null","47","","","","","","","","","","","","","","","",""
"","time_out","","html-keyboard-response","315","349927","0.0-1.0-431.0-0.0","0","0","95436","","null","","","null","47","","","","","","","","","","","","","","","",""
"","ITI","","html-keyboard-response","316","350930","0.0-1.0-432.0","0","0","95436","","null","","","null","47","","","","","","","","","","","","","","","NaN",""
"","block_over","","html-keyboard-response","317","359520","0.0-1.0-433.0-0.0","0","0","95436","","8587","","","32","47","","","","","","","","","","","","","","","",""
"","S1","","html-keyboard-response","318","359773","0.0-1.0-434.0","0","0","95436","","null","","","null","48","","","","","","","","","","","","","","","",""
"","ISI","","html-keyboard-response","319","360775","0.0-1.0-435.0","0","0","95436","","null","","","null","48","NaN","","","","","","","","","","","","","","",""
"","S2","","html-keyboard-response","320","361039","0.0-1.0-436.0","0","0","95436","","null","","","null","48","","NaN","","","","","","","","","","","","","",""
"","response","","html-keyboard-response","321","362089","0.0-1.0-437.0-0.0","0","0","95436","","1048","","","75","48","","","2","48","training","adjacent","ED","5","4","O.jpg","R.jpg","0","0","1","",""
"","feedback","","html-keyboard-response","322","363092","0.0-1.0-438.0-0.0","0","0","95436","","null","","","null","48","","","","","","","","","","","","","","","",""
"","ITI","","html-keyboard-response","323","364095","0.0-1.0-441.0","0","0","95436","","null","","","null","48","","","","","","","","","","","","","","","NaN",""
"","S1","","html-keyboard-response","324","364359","0.0-1.0-443.0","0","0","95436","","null","","","null","49","","","","","","","","","","","","","","","",""
"","ISI","","html-keyboard-response","325","365361","0.0-1.0-444.0","0","0","95436","","null","","","null","49","NaN","","","","","","","","","","","","","","",""
"","S2","","html-keyboard-response","326","365624","0.0-1.0-445.0","0","0","95436","","null","","","null","49","","NaN","","","","","","","","","","","","","",""
"","response","","html-keyboard-response","327","366096","0.0-1.0-446.0-0.0","0","0","95436","","469","","","68","49","","","2","49","training","adjacent","FG","6","7","M.jpg","L.jpg","1","1","1","",""
"","feedback","","html-keyboard-response","328","367098","0.0-1.0-447.0-0.0","0","0","95436","","null","","","null","49","","","","","","","","","","","","","","","",""
"","ITI","","html-keyboard-response","329","368100","0.0-1.0-450.0","0","0","95436","","null","","","null","49","","","","","","","","","","","","","","","NaN",""
"","S1","","html-keyboard-response","330","368352","0.0-1.0-452.0","0","0","95436","","null","","","null","50","","","","","","","","","","","","","","","",""
"","ISI","","html-keyboard-response","331","369369","0.0-1.0-453.0","0","0","95436","","null","","","null","50","NaN","","","","","","","","","","","","","","",""
"","S2","","html-keyboard-response","332","369623","0.0-1.0-454.0","0","0","95436","","null","","","null","50","","NaN","","","","","","","","","","","","","",""
"","response","","html-keyboard-response","333","370011","0.0-1.0-455.0-0.0","0","0","95436","","387","","","75","50","","","2","50","training","adjacent","DE","4","5","R.jpg","O.jpg","0","1","0","",""
"","feedback","","html-keyboard-response","334","371025","0.0-1.0-456.0-0.0","0","0","95436","","null","","","null","50","","","","","","","","","","","","","","","",""
"","time_out","","html-keyboard-response","335","373029","0.0-1.0-458.0-0.0","0","0","95436","","null","","","null","50","","","","","","","","","","","","","","","",""
"","ITI","","html-keyboard-response","336","374031","0.0-1.0-459.0","0","0","95436","","null","","","null","50","","","","","","","","","","","","","","","NaN",""
"","S1","","html-keyboard-response","337","374284","0.0-1.0-461.0","0","0","95436","","null","","","null","51","","","","","","","","","","","","","","","",""
"","ISI","","html-keyboard-response","338","375287","0.0-1.0-462.0","0","0","95436","","null","","","null","51","NaN","","","","","","","","","","","","","","",""
"","S2","","html-keyboard-response","339","375540","0.0-1.0-463.0","0","0","95436","","null","","","null","51","","NaN","","","","","","","","","","","","","",""
"","response","","html-keyboard-response","340","375647","0.0-1.0-464.0-0.0","0","0","95436","","104","","","68","51","","","2","51","training","adjacent","CB","3","2","P.jpg","Q.jpg","1","0","0","",""
"","feedback","","html-keyboard-response","341","376650","0.0-1.0-465.0-0.0","0","0","95436","","null","","","null","51","","","","","","","","","","","","","","","",""
"","time_out","","html-keyboard-response","342","378653","0.0-1.0-467.0-0.0","0","0","95436","","null","","","null","51","","","","","","","","","","","","","","","",""
"","ITI","","html-keyboard-response","343","379656","0.0-1.0-468.0","0","0","95436","","null","","","null","51","","","","","","","","","","","","","","","NaN",""
"","S1","","html-keyboard-response","344","379908","0.0-1.0-470.0","0","0","95436","","null","","","null","52","","","","","","","","","","","","","","","",""
"","ISI","","html-keyboard-response","345","380915","0.0-1.0-471.0","0","0","95436","","35","","","75","52","k","","","","","","","","","","","","","","",""
"","S2","","html-keyboard-response","346","381181","0.0-1.0-472.0","0","0","95436","","null","","","null","52","","NaN","","","","","","","","","","","","","",""
"","response","","html-keyboard-response","347","381725","0.0-1.0-473.0-0.0","0","0","95436","","542","","","75","52","","","2","52","training","adjacent","FE","6","5","M.jpg","O.jpg","0","0","1","",""
"","feedback","","html-keyboard-response","348","382727","0.0-1.0-474.0-0.0","0","0","95436","","null","","","null","52","","","","","","","","","","","","","","","",""
"","ITI","","html-keyboard-response","349","383730","0.0-1.0-477.0","0","0","95436","","null","","","null","52","","","","","","","","","","","","","","","NaN",""
"","S1","","html-keyboard-response","350","383983","0.0-1.0-479.0","0","0","95436","","null","","","null","53","","","","","","","","","","","","","","","",""
"","ISI","","html-keyboard-response","351","384986","0.0-1.0-480.0","0","0","95436","","null","","","null","53","NaN","","","","","","","","","","","","","","",""
"","S2","","html-keyboard-response","352","385240","0.0-1.0-481.0","0","0","95436","","null","","","null","53","","NaN","","","","","","","","","","","","","",""
"","response","","html-keyboard-response","353","385714","0.0-1.0-482.0-0.0","0","0","95436","","473","","","75","53","","","2","53","training","adjacent","DC","4","3","R.jpg","P.jpg","0","0","1","",""
"","feedback","","html-keyboard-response","354","386717","0.0-1.0-483.0-0.0","0","0","95436","","null","","","null","53","","","","","","","","","","","","","","","",""
"","ITI","","html-keyboard-response","355","387733","0.0-1.0-486.0","0","0","95436","","null","","","null","53","","","","","","","","","","","","","","","NaN",""
"","S1","","html-keyboard-response","356","387986","0.0-1.0-488.0","0","0","95436","","null","","","null","54","","","","","","","","","","","","","","","",""
"","ISI","","html-keyboard-response","357","388994","0.0-1.0-489.0","0","0","95436","","null","","","null","54","NaN","","","","","","","","","","","","","","",""
"","S2","","html-keyboard-response","358","389260","0.0-1.0-490.0","0","0","95436","","null","","","null","54","","NaN","","","","","","","","","","","","","",""
"","response","","html-keyboard-response","359","389642","0.0-1.0-491.0-0.0","0","0","95436","","380","","","75","54","","","2","54","training","adjacent","GF","7","6","L.jpg","M.jpg","0","0","1","",""
"","feedback","","html-keyboard-response","360","390645","0.0-1.0-492.0-0.0","0","0","95436","","null","","","null","54","","","","","","","","","","","","","","","",""
"","ITI","","html-keyboard-response","361","391648","0.0-1.0-495.0","0","0","95436","","null","","","null","54","","","","","","","","","","","","","","","NaN",""
"","S1","","html-keyboard-response","362","391908","0.0-1.0-497.0","0","0","95436","","null","","","null","55","","","","","","","","","","","","","","","",""
"","ISI","","html-keyboard-response","363","392910","0.0-1.0-498.0","0","0","95436","","null","","","null","55","NaN","","","","","","","","","","","","","","",""
"","S2","","html-keyboard-response","364","393163","0.0-1.0-499.0","0","0","95436","","null","","","null","55","","NaN","","","","","","","","","","","","","",""
"","response","","html-keyboard-response","365","393835","0.0-1.0-500.0-0.0","0","0","95436","","670","","","68","55","","","2","55","training","adjacent","ED","5","4","O.jpg","R.jpg","1","0","0","",""
"","feedback","","html-keyboard-response","366","394838","0.0-1.0-501.0-0.0","0","0","95436","","null","","","null","55","","","","","","","","","","","","","","","",""
"","time_out","","html-keyboard-response","367","396841","0.0-1.0-503.0-0.0","0","0","95436","","null","","","null","55","","","","","","","","","","","","","","","",""
"","ITI","","html-keyboard-response","368","397843","0.0-1.0-504.0","0","0","95436","","null","","","null","55","","","","","","","","","","","","","","","NaN",""
"","S1","","html-keyboard-response","369","398097","0.0-1.0-506.0","0","0","95436","","null","","","null","56","","","","","","","","","","","","","","","",""
"","ISI","","html-keyboard-response","370","399100","0.0-1.0-507.0","0","0","95436","","null","","","null","56","NaN","","","","","","","","","","","","","","",""
"","S2","","html-keyboard-response","371","399355","0.0-1.0-508.0","0","0","95436","","null","","","null","56","","NaN","","","","","","","","","","","","","",""
"","response","","html-keyboard-response","372","399747","0.0-1.0-509.0-0.0","0","0","95436","","389","","","75","56","","","2","56","training","adjacent","DE","4","5","R.jpg","O.jpg","0","1","0","",""
"","feedback","","html-keyboard-response","373","400758","0.0-1.0-510.0-0.0","0","0","95436","","null","","","null","56","","","","","","","","","","","","","","","",""
"","time_out","","html-keyboard-response","374","402761","0.0-1.0-512.0-0.0","0","0","95436","","null","","","null","56","","","","","","","","","","","","","","","",""
"","ITI","","html-keyboard-response","375","403764","0.0-1.0-513.0","0","0","95436","","null","","","null","56","","","","","","","","","","","","","","","NaN",""
"","S1","","html-keyboard-response","376","404017","0.0-1.0-515.0","0","0","95436","","null","","","null","57","","","","","","","","","","","","","","","",""
"","ISI","","html-keyboard-response","377","405020","0.0-1.0-516.0","0","0","95436","","null","","","null","57","NaN","","","","","","","","","","","","","","",""
"","S2","","html-keyboard-response","378","405273","0.0-1.0-517.0","0","0","95436","","null","","","null","57","","NaN","","","","","","","","","","","","","",""
"","response","","html-keyboard-response","379","405659","0.0-1.0-518.0-0.0","0","0","95436","","383","","","68","57","","","2","57","training","adjacent","CB","3","2","P.jpg","Q.jpg","1","0","0","",""
"","feedback","","html-keyboard-response","380","406661","0.0-1.0-519.0-0.0","0","0","95436","","null","","","null","57","","","","","","","","","","","","","","","",""
"","time_out","","html-keyboard-response","381","408664","0.0-1.0-521.0-0.0","0","0","95436","","null","","","null","57","","","","","","","","","","","","","","","",""
"","ITI","","html-keyboard-response","382","409667","0.0-1.0-522.0","0","0","95436","","null","","","null","57","","","","","","","","","","","","","","","NaN",""
"","S1","","html-keyboard-response","383","409921","0.0-1.0-524.0","0","0","95436","","null","","","null","58","","","","","","","","","","","","","","","",""
"","ISI","","html-keyboard-response","384","410924","0.0-1.0-525.0","0","0","95436","","null","","","null","58","NaN","","","","","","","","","","","","","","",""
"","S2","","html-keyboard-response","385","411178","0.0-1.0-526.0","0","0","95436","","null","","","null","58","","NaN","","","","","","","","","","","","","",""
"","response","","html-keyboard-response","386","411478","0.0-1.0-527.0-0.0","0","0","95436","","297","","","68","58","","","2","58","training","adjacent","FG","6","7","M.jpg","L.jpg","1","1","1","",""
"","feedback","","html-keyboard-response","387","412480","0.0-1.0-528.0-0.0","0","0","95436","","null","","","null","58","","","","","","","","","","","","","","","",""
"","ITI","","html-keyboard-response","388","413482","0.0-1.0-531.0","0","0","95436","","null","","","null","58","","","","","","","","","","","","","","","NaN",""
"","S1","","html-keyboard-response","389","413735","0.0-1.0-533.0","0","0","95436","","null","","","null","59","","","","","","","","","","","","","","","",""
"","ISI","","html-keyboard-response","390","414743","0.0-1.0-534.0","0","0","95436","","null","","","null","59","NaN","","","","","","","","","","","","","","",""
"","S2","","html-keyboard-response","391","414998","0.0-1.0-535.0","0","0","95436","","null","","","null","59","","NaN","","","","","","","","","","","","","",""
"","response","","html-keyboard-response","392","415688","0.0-1.0-536.0-0.0","0","0","95436","","688","","","68","59","","","2","59","training","adjacent","BA","2","1","Q.jpg","N.jpg","1","0","0","",""
"","feedback","","html-keyboard-response","393","416691","0.0-1.0-537.0-0.0","0","0","95436","","null","","","null","59","","","","","","","","","","","","","","","",""
"","time_out","","html-keyboard-response","394","418694","0.0-1.0-539.0-0.0","0","0","95436","","null","","","null","59","","","","","","","","","","","","","","","",""
"","ITI","","html-keyboard-response","395","419697","0.0-1.0-540.0","0","0","95436","","null","","","null","59","","","","","","","","","","","","","","","NaN",""
"","S1","","html-keyboard-response","396","419950","0.0-1.0-542.0","0","0","95436","","null","","","null","60","","","","","","","","","","","","","","","",""
"","ISI","","html-keyboard-response","397","420960","0.0-1.0-543.0","0","0","95436","","null","","","null","60","NaN","","","","","","","","","","","","","","",""
"","S2","","html-keyboard-response","398","421213","0.0-1.0-544.0","0","0","95436","","null","","","null","60","","NaN","","","","","","","","","","","","","",""
"","response","","html-keyboard-response","399","421687","0.0-1.0-545.0-0.0","0","0","95436","","473","","","75","60","","","2","60","training","adjacent","GF","7","6","L.jpg","M.jpg","0","0","1","",""
"","feedback","","html-keyboard-response","400","422700","0.0-1.0-546.0-0.0","0","0","95436","","null","","","null","60","","","","","","","","","","","","","","","",""
"","ITI","","html-keyboard-response","401","423703","0.0-1.0-549.0","0","0","95436","","null","","","null","60","","","","","","","","","","","","","","","NaN",""
"","S1","","html-keyboard-response","402","423955","0.0-1.0-551.0","0","0","95436","","null","","","null","61","","","","","","","","","","","","","","","",""
"","ISI","","html-keyboard-response","403","424958","0.0-1.0-552.0","0","0","95436","","525","","","68","61","d","","","","","","","","","","","","","","",""
"","S2","","html-keyboard-response","404","425212","0.0-1.0-553.0","0","0","95436","","null","","","null","61","","NaN","","","","","","","","","","","","","",""
"","response","","html-keyboard-response","405","426566","0.0-1.0-554.0-0.0","0","0","95436","","1353","","","68","61","","","2","61","training","adjacent","AB","1","2","N.jpg","Q.jpg","1","1","1","",""
"","feedback","","html-keyboard-response","406","427576","0.0-1.0-555.0-0.0","0","0","95436","","null","","","null","61","","","","","","","","","","","","","","","",""
"","ITI","","html-keyboard-response","407","428579","0.0-1.0-558.0","0","0","95436","","null","","","null","61","","","","","","","","","","","","","","","NaN",""
"","S1","","html-keyboard-response","408","428831","0.0-1.0-560.0","0","0","95436","","null","","","null","62","","","","","","","","","","","","","","","",""
"","ISI","","html-keyboard-response","409","429834","0.0-1.0-561.0","0","0","95436","","null","","","null","62","NaN","","","","","","","","","","","","","","",""
"","S2","","html-keyboard-response","410","430087","0.0-1.0-562.0","0","0","95436","","null","","","null","62","","NaN","","","","","","","","","","","","","",""
"","response","","html-keyboard-response","411","430365","0.0-1.0-563.0-0.0","0","0","95436","","277","","","75","62","","","2","62","training","adjacent","FE","6","5","M.jpg","O.jpg","0","0","1","",""
"","feedback","","html-keyboard-response","412","431375","0.0-1.0-564.0-0.0","0","0","95436","","null","","","null","62","","","","","","","","","","","","","","","",""
"","ITI","","html-keyboard-response","413","432378","0.0-1.0-567.0","0","0","95436","","null","","","null","62","","","","","","","","","","","","","","","NaN",""
"","S1","","html-keyboard-response","414","432631","0.0-1.0-569.0","0","0","95436","","null","","","null","63","","","","","","","","","","","","","","","",""
"","ISI","","html-keyboard-response","415","433635","0.0-1.0-570.0","0","0","95436","","null","","","null","63","NaN","","","","","","","","","","","","","","",""
"","S2","","html-keyboard-response","416","433887","0.0-1.0-571.0","0","0","95436","","null","","","null","63","","NaN","","","","","","","","","","","","","",""
"","response","","html-keyboard-response","417","434258","0.0-1.0-572.0-0.0","0","0","95436","","369","","","75","63","","","2","63","training","adjacent","BA","2","1","Q.jpg","N.jpg","0","0","1","",""
"","feedback","","html-keyboard-response","418","435261","0.0-1.0-573.0-0.0","0","0","95436","","null","","","null","63","","","","","","","","","","","","","","","",""
"","ITI","","html-keyboard-response","419","436277","0.0-1.0-576.0","0","0","95436","","null","","","null","63","","","","","","","","","","","","","","","NaN",""
"","S1","","html-keyboard-response","420","436530","0.0-1.0-578.0","0","0","95436","","null","","","null","64","","","","","","","","","","","","","","","",""
"","ISI","","html-keyboard-response","421","437534","0.0-1.0-579.0","0","0","95436","","null","","","null","64","NaN","","","","","","","","","","","","","","",""
"","S2","","html-keyboard-response","422","437787","0.0-1.0-580.0","0","0","95436","","null","","","null","64","","NaN","","","","","","","","","","","","","",""
"","response","","html-keyboard-response","423","439137","0.0-1.0-581.0-0.0","0","0","95436","","1347","","","75","64","","","2","64","training","adjacent","DC","4","3","R.jpg","P.jpg","0","0","1","",""
"","feedback","","html-keyboard-response","424","440140","0.0-1.0-582.0-0.0","0","0","95436","","null","","","null","64","","","","","","","","","","","","","","","",""
"","ITI","","html-keyboard-response","425","441155","0.0-1.0-585.0","0","0","95436","","null","","","null","64","","","","","","","","","","","","","","","NaN",""
"","S1","","html-keyboard-response","426","441421","0.0-1.0-587.0","0","0","95436","","null","","","null","65","","","","","","","","","","","","","","","",""
"","ISI","","html-keyboard-response","427","442423","0.0-1.0-588.0","0","0","95436","","null","","","null","65","NaN","","","","","","","","","","","","","","",""
"","S2","","html-keyboard-response","428","442676","0.0-1.0-589.0","0","0","95436","","null","","","null","65","","NaN","","","","","","","","","","","","","",""
"","response","","html-keyboard-response","429","443072","0.0-1.0-590.0-0.0","0","0","95436","","394","","","75","65","","","2","65","training","adjacent","BC","2","3","Q.jpg","P.jpg","0","1","0","",""
"","feedback","","html-keyboard-response","430","444076","0.0-1.0-591.0-0.0","0","0","95436","","null","","","null","65","","","","","","","","","","","","","","","",""
"","time_out","","html-keyboard-response","431","446078","0.0-1.0-593.0-0.0","0","0","95436","","null","","","null","65","","","","","","","","","","","","","","","",""
"","ITI","","html-keyboard-response","432","447095","0.0-1.0-594.0","0","0","95436","","null","","","null","65","","","","","","","","","","","","","","","NaN",""
"","S1","","html-keyboard-response","433","447359","0.0-1.0-596.0","0","0","95436","","null","","","null","66","","","","","","","","","","","","","","","",""
"","ISI","","html-keyboard-response","434","448374","0.0-1.0-597.0","0","0","95436","","null","","","null","66","NaN","","","","","","","","","","","","","","",""
"","S2","","html-keyboard-response","435","448627","0.0-1.0-598.0","0","0","95436","","null","","","null","66","","NaN","","","","","","","","","","","","","",""
"","response","","html-keyboard-response","436","450261","0.0-1.0-599.0-0.0","0","0","95436","","1633","","","75","66","","","2","66","training","adjacent","AB","1","2","N.jpg","Q.jpg","0","1","0","",""
"","feedback","","html-keyboard-response","437","451278","0.0-1.0-600.0-0.0","0","0","95436","","null","","","null","66","","","","","","","","","","","","","","","",""
"","time_out","","html-keyboard-response","438","453280","0.0-1.0-602.0-0.0","0","0","95436","","null","","","null","66","","","","","","","","","","","","","","","",""
"","ITI","","html-keyboard-response","439","454297","0.0-1.0-603.0","0","0","95436","","null","","","null","66","","","","","","","","","","","","","","","NaN",""
"","S1","","html-keyboard-response","440","454550","0.0-1.0-605.0","0","0","95436","","null","","","null","67","","","","","","","","","","","","","","","",""
"","ISI","","html-keyboard-response","441","455552","0.0-1.0-606.0","0","0","95436","","null","","","null","67","NaN","","","","","","","","","","","","","","",""
"","S2","","html-keyboard-response","442","455805","0.0-1.0-607.0","0","0","95436","","null","","","null","67","","NaN","","","","","","","","","","","","","",""
"","response","","html-keyboard-response","443","456104","0.0-1.0-608.0-0.0","0","0","95436","","298","","","68","67","","","2","67","training","adjacent","CD","3","4","P.jpg","R.jpg","1","1","1","",""
"","feedback","","html-keyboard-response","444","457113","0.0-1.0-609.0-0.0","0","0","95436","","null","","","null","67","","","","","","","","","","","","","","","",""
"","ITI","","html-keyboard-response","445","458116","0.0-1.0-612.0","0","0","95436","","null","","","null","67","","","","","","","","","","","","","","","NaN",""
"","S1","","html-keyboard-response","446","458368","0.0-1.0-614.0","0","0","95436","","null","","","null","68","","","","","","","","","","","","","","","",""
"","ISI","","html-keyboard-response","447","459371","0.0-1.0-615.0","0","0","95436","","null","","","null","68","NaN","","","","","","","","","","","","","","",""
"","S2","","html-keyboard-response","448","459623","0.0-1.0-616.0","0","0","95436","","null","","","null","68","","NaN","","","","","","","","","","","","","",""
"","response","","html-keyboard-response","449","460151","0.0-1.0-617.0-0.0","0","0","95436","","525","","","75","68","","","2","68","training","adjacent","EF","5","6","O.jpg","M.jpg","0","1","0","",""
"","feedback","","html-keyboard-response","450","461154","0.0-1.0-618.0-0.0","0","0","95436","","null","","","null","68","","","","","","","","","","","","","","","",""
"","time_out","","html-keyboard-response","451","463157","0.0-1.0-620.0-0.0","0","0","95436","","null","","","null","68","","","","","","","","","","","","","","","",""
"","ITI","","html-keyboard-response","452","464159","0.0-1.0-621.0","0","0","95436","","null","","","null","68","","","","","","","","","","","","","","","NaN",""
"","S1","","html-keyboard-response","453","464413","0.0-1.0-623.0","0","0","95436","","null","","","null","69","","","","","","","","","","","","","","","",""
"","ISI","","html-keyboard-response","454","465427","0.0-1.0-624.0","0","0","95436","","null","","","null","69","NaN","","","","","","","","","","","","","","",""
"","S2","","html-keyboard-response","455","465679","0.0-1.0-625.0","0","0","95436","","null","","","null","69","","NaN","","","","","","","","","","","","","",""
"","response","","html-keyboard-response","456","466137","0.0-1.0-626.0-0.0","0","0","95436","","455","","","68","69","","","2","69","training","adjacent","BC","2","3","Q.jpg","P.jpg","1","1","1","",""
"","feedback","","html-keyboard-response","457","467142","0.0-1.0-627.0-0.0","0","0","95436","","null","","","null","69","","","","","","","","","","","","","","","",""
"","ITI","","html-keyboard-response","458","468145","0.0-1.0-630.0","0","0","95436","","null","","","null","69","","","","","","","","","","","","","","","NaN",""
"","S1","","html-keyboard-response","459","468398","0.0-1.0-632.0","0","0","95436","","null","","","null","70","","","","","","","","","","","","","","","",""
"","ISI","","html-keyboard-response","460","469408","0.0-1.0-633.0","0","0","95436","","null","","","null","70","NaN","","","","","","","","","","","","","","",""
"","S2","","html-keyboard-response","461","469661","0.0-1.0-634.0","0","0","95436","","null","","","null","70","","NaN","","","","","","","","","","","","","",""
"","response","","html-keyboard-response","462","469979","0.0-1.0-635.0-0.0","0","0","95436","","315","","","68","70","","","2","70","training","adjacent","FG","6","7","M.jpg","L.jpg","1","1","1","",""
"","feedback","","html-keyboard-response","463","470995","0.0-1.0-636.0-0.0","0","0","95436","","null","","","null","70","","","","","","","","","","","","","","","",""
"","ITI","","html-keyboard-response","464","472005","0.0-1.0-639.0","0","0","95436","","null","","","null","70","","","","","","","","","","","","","","","NaN",""
"","S1","","html-keyboard-response","465","472257","0.0-1.0-641.0","0","0","95436","","null","","","null","71","","","","","","","","","","","","","","","",""
"","ISI","","html-keyboard-response","466","473260","0.0-1.0-642.0","0","0","95436","","null","","","null","71","NaN","","","","","","","","","","","","","","",""
"","S2","","html-keyboard-response","467","473513","0.0-1.0-643.0","0","0","95436","","null","","","null","71","","NaN","","","","","","","","","","","","","",""
"","response","","html-keyboard-response","468","474378","0.0-1.0-644.0-0.0","0","0","95436","","862","","","68","71","","","2","71","training","adjacent","GF","7","6","L.jpg","M.jpg","1","0","0","",""
"","feedback","","html-keyboard-response","469","475381","0.0-1.0-645.0-0.0","0","0","95436","","null","","","null","71","","","","","","","","","","","","","","","",""
"","time_out","","html-keyboard-response","470","477384","0.0-1.0-647.0-0.0","0","0","95436","","null","","","null","71","","","","","","","","","","","","","","","",""
"","ITI","","html-keyboard-response","471","478387","0.0-1.0-648.0","0","0","95436","","null","","","null","71","","","","","","","","","","","","","","","NaN",""
"","S1","","html-keyboard-response","472","478640","0.0-1.0-650.0","0","0","95436","","null","","","null","72","","","","","","","","","","","","","","","",""
"","ISI","","html-keyboard-response","473","479642","0.0-1.0-651.0","0","0","95436","","null","","","null","72","NaN","","","","","","","","","","","","","","",""
"","S2","","html-keyboard-response","474","479896","0.0-1.0-652.0","0","0","95436","","null","","","null","72","","NaN","","","","","","","","","","","","","",""
"","response","","html-keyboard-response","475","480553","0.0-1.0-653.0-0.0","0","0","95436","","655","","","68","72","","","2","72","training","adjacent","ED","5","4","O.jpg","R.jpg","1","0","0","",""
"","feedback","","html-keyboard-response","476","481555","0.0-1.0-654.0-0.0","0","0","95436","","null","","","null","72","","","","","","","","","","","","","","","",""
"","time_out","","html-keyboard-response","477","483558","0.0-1.0-656.0-0.0","0","0","95436","","null","","","null","72","","","","","","","","","","","","","","","",""
"","ITI","","html-keyboard-response","478","484571","0.0-1.0-657.0","0","0","95436","","null","","","null","72","","","","","","","","","","","","","","","NaN",""
"","S1","","html-keyboard-response","479","484824","0.0-1.0-659.0","0","0","95436","","null","","","null","73","","","","","","","","","","","","","","","",""
"","ISI","","html-keyboard-response","480","485827","0.0-1.0-660.0","0","0","95436","","null","","","null","73","NaN","","","","","","","","","","","","","","",""
"","S2","","html-keyboard-response","481","486079","0.0-1.0-661.0","0","0","95436","","null","","","null","73","","NaN","","","","","","","","","","","","","",""
"","response","","html-keyboard-response","482","486723","0.0-1.0-662.0-0.0","0","0","95436","","642","","","75","73","","","2","73","training","adjacent","DE","4","5","R.jpg","O.jpg","0","1","0","",""
"","feedback","","html-keyboard-response","483","487736","0.0-1.0-663.0-0.0","0","0","95436","","null","","","null","73","","","","","","","","","","","","","","","",""
"","time_out","","html-keyboard-response","484","489746","0.0-1.0-665.0-0.0","0","0","95436","","null","","","null","73","","","","","","","","","","","","","","","",""
"","ITI","","html-keyboard-response","485","490748","0.0-1.0-666.0","0","0","95436","","null","","","null","73","","","","","","","","","","","","","","","NaN",""
"","S1","","html-keyboard-response","486","491002","0.0-1.0-668.0","0","0","95436","","null","","","null","74","","","","","","","","","","","","","","","",""
"","ISI","","html-keyboard-response","487","492005","0.0-1.0-669.0","0","0","95436","","null","","","null","74","NaN","","","","","","","","","","","","","","",""
"","S2","","html-keyboard-response","488","492258","0.0-1.0-670.0","0","0","95436","","null","","","null","74","","NaN","","","","","","","","","","","","","",""
"","response","","html-keyboard-response","489","492942","0.0-1.0-671.0-0.0","0","0","95436","","683","","","75","74","","","2","74","training","adjacent","EF","5","6","O.jpg","M.jpg","0","1","0","",""
"","feedback","","html-keyboard-response","490","493945","0.0-1.0-672.0-0.0","0","0","95436","","null","","","null","74","","","","","","","","","","","","","","","",""
"","time_out","","html-keyboard-response","491","495948","0.0-1.0-674.0-0.0","0","0","95436","","null","","","null","74","","","","","","","","","","","","","","","",""
"","ITI","","html-keyboard-response","492","496950","0.0-1.0-675.0","0","0","95436","","null","","","null","74","","","","","","","","","","","","","","","NaN",""
"","S1","","html-keyboard-response","493","497218","0.0-1.0-677.0","0","0","95436","","null","","","null","75","","","","","","","","","","","","","","","",""
"","ISI","","html-keyboard-response","494","498221","0.0-1.0-678.0","0","0","95436","","null","","","null","75","NaN","","","","","","","","","","","","","","",""
"","S2","","html-keyboard-response","495","498474","0.0-1.0-679.0","0","0","95436","","null","","","null","75","","NaN","","","","","","","","","","","","","",""
"","response","","html-keyboard-response","496","499077","0.0-1.0-680.0-0.0","0","0","95436","","601","","","68","75","","","2","75","training","adjacent","CD","3","4","P.jpg","R.jpg","1","1","1","",""
"","feedback","","html-keyboard-response","497","500080","0.0-1.0-681.0-0.0","0","0","95436","","null","","","null","75","","","","","","","","","","","","","","","",""
"","ITI","","html-keyboard-response","498","501083","0.0-1.0-684.0","0","0","95436","","null","","","null","75","","","","","","","","","","","","","","","NaN",""
"","S1","","html-keyboard-response","499","501335","0.0-1.0-686.0","0","0","95436","","null","","","null","76","","","","","","","","","","","","","","","",""
"","ISI","","html-keyboard-response","500","502338","0.0-1.0-687.0","0","0","95436","","null","","","null","76","NaN","","","","","","","","","","","","","","",""
"","S2","","html-keyboard-response","501","502592","0.0-1.0-688.0","0","0","95436","","null","","","null","76","","NaN","","","","","","","","","","","","","",""
"","response","","html-keyboard-response","502","503034","0.0-1.0-689.0-0.0","0","0","95436","","440","","","75","76","","","2","76","training","adjacent","GF","7","6","L.jpg","M.jpg","0","0","1","",""
"","feedback","","html-keyboard-response","503","504046","0.0-1.0-690.0-0.0","0","0","95436","","null","","","null","76","","","","","","","","","","","","","","","",""
"","ITI","","html-keyboard-response","504","505048","0.0-1.0-693.0","0","0","95436","","null","","","null","76","","","","","","","","","","","","","","","NaN",""
"","S1","","html-keyboard-response","505","505300","0.0-1.0-695.0","0","0","95436","","null","","","null","77","","","","","","","","","","","","","","","",""
"","ISI","","html-keyboard-response","506","506303","0.0-1.0-696.0","0","0","95436","","null","","","null","77","NaN","","","","","","","","","","","","","","",""
"","S2","","html-keyboard-response","507","506556","0.0-1.0-697.0","0","0","95436","","null","","","null","77","","NaN","","","","","","","","","","","","","",""
"","response","","html-keyboard-response","508","506957","0.0-1.0-698.0-0.0","0","0","95436","","399","","","68","77","","","2","77","training","adjacent","CD","3","4","P.jpg","R.jpg","1","1","1","",""
"","feedback","","html-keyboard-response","509","507969","0.0-1.0-699.0-0.0","0","0","95436","","null","","","null","77","","","","","","","","","","","","","","","",""
"","ITI","","html-keyboard-response","510","508971","0.0-1.0-702.0","0","0","95436","","null","","","null","77","","","","","","","","","","","","","","","NaN",""
"","S1","","html-keyboard-response","511","509224","0.0-1.0-704.0","0","0","95436","","null","","","null","78","","","","","","","","","","","","","","","",""
"","ISI","","html-keyboard-response","512","510238","0.0-1.0-705.0","0","0","95436","","null","","","null","78","NaN","","","","","","","","","","","","","","",""
"","S2","","html-keyboard-response","513","510492","0.0-1.0-706.0","0","0","95436","","null","","","null","78","","NaN","","","","","","","","","","","","","",""
"","response","","html-keyboard-response","514","511104","0.0-1.0-707.0-0.0","0","0","95436","","611","","","75","78","","","2","78","training","adjacent","CB","3","2","P.jpg","Q.jpg","0","0","1","",""
"","feedback","","html-keyboard-response","515","512107","0.0-1.0-708.0-0.0","0","0","95436","","null","","","null","78","","","","","","","","","","","","","","","",""
"","ITI","","html-keyboard-response","516","513110","0.0-1.0-711.0","0","0","95436","","null","","","null","78","","","","","","","","","","","","","","","NaN",""
"","S1","","html-keyboard-response","517","513365","0.0-1.0-713.0","0","0","95436","","null","","","null","79","","","","","","","","","","","","","","","",""
"","ISI","","html-keyboard-response","518","514369","0.0-1.0-714.0","0","0","95436","","null","","","null","79","NaN","","","","","","","","","","","","","","",""
"","S2","","html-keyboard-response","519","514626","0.0-1.0-715.0","0","0","95436","","null","","","null","79","","NaN","","","","","","","","","","","","","",""
"","response","","html-keyboard-response","520","515211","0.0-1.0-716.0-0.0","0","0","95436","","583","","","75","79","","","2","79","training","adjacent","DE","4","5","R.jpg","O.jpg","0","1","0","",""
"","feedback","","html-keyboard-response","521","516227","0.0-1.0-717.0-0.0","0","0","95436","","null","","","null","79","","","","","","","","","","","","","","","",""
"","time_out","","html-keyboard-response","522","518229","0.0-1.0-719.0-0.0","0","0","95436","","null","","","null","79","","","","","","","","","","","","","","","",""
"","ITI","","html-keyboard-response","523","519232","0.0-1.0-720.0","0","0","95436","","null","","","null","79","","","","","","","","","","","","","","","NaN",""
"","S1","","html-keyboard-response","524","519485","0.0-1.0-722.0","0","0","95436","","null","","","null","80","","","","","","","","","","","","","","","",""
"","ISI","","html-keyboard-response","525","520488","0.0-1.0-723.0","0","0","95436","","null","","","null","80","NaN","","","","","","","","","","","","","","",""
"","S2","","html-keyboard-response","526","520741","0.0-1.0-724.0","0","0","95436","","null","","","null","80","","NaN","","","","","","","","","","","","","",""
"","response","","html-keyboard-response","527","521377","0.0-1.0-725.0-0.0","0","0","95436","","635","","","75","80","","","2","80","training","adjacent","DC","4","3","R.jpg","P.jpg","0","0","1","",""
"","feedback","","html-keyboard-response","528","522379","0.0-1.0-726.0-0.0","0","0","95436","","null","","","null","80","","","","","","","","","","","","","","","",""
"","ITI","","html-keyboard-response","529","523383","0.0-1.0-729.0","0","0","95436","","null","","","null","80","","","","","","","","","","","","","","","NaN",""
"","S1","","html-keyboard-response","530","523636","0.0-1.0-731.0","0","0","95436","","null","","","null","81","","","","","","","","","","","","","","","",""
"","ISI","","html-keyboard-response","531","524640","0.0-1.0-732.0","0","0","95436","","null","","","null","81","NaN","","","","","","","","","","","","","","",""
"","S2","","html-keyboard-response","532","524894","0.0-1.0-733.0","0","0","95436","","null","","","null","81","","NaN","","","","","","","","","","","","","",""
"","response","","html-keyboard-response","533","525560","0.0-1.0-734.0-0.0","0","0","95436","","665","","","75","81","","","2","81","training","adjacent","DC","4","3","R.jpg","P.jpg","0","0","1","",""
"","feedback","","html-keyboard-response","534","526564","0.0-1.0-735.0-0.0","0","0","95436","","null","","","null","81","","","","","","","","","","","","","","","",""
"","ITI","","html-keyboard-response","535","527566","0.0-1.0-738.0","0","0","95436","","null","","","null","81","","","","","","","","","","","","","","","NaN",""
"","S1","","html-keyboard-response","536","527820","0.0-1.0-740.0","0","0","95436","","null","","","null","82","","","","","","","","","","","","","","","",""
"","ISI","","html-keyboard-response","537","528822","0.0-1.0-741.0","0","0","95436","","null","","","null","82","NaN","","","","","","","","","","","","","","",""
"","S2","","html-keyboard-response","538","529076","0.0-1.0-742.0","0","0","95436","","null","","","null","82","","NaN","","","","","","","","","","","","","",""
"","response","","html-keyboard-response","539","529448","0.0-1.0-743.0-0.0","0","0","95436","","371","","","68","82","","","2","82","training","adjacent","BA","2","1","Q.jpg","N.jpg","1","0","0","",""
"","feedback","","html-keyboard-response","540","530452","0.0-1.0-744.0-0.0","0","0","95436","","null","","","null","82","","","","","","","","","","","","","","","",""
"","time_out","","html-keyboard-response","541","532454","0.0-1.0-746.0-0.0","0","0","95436","","null","","","null","82","","","","","","","","","","","","","","","",""
"","ITI","","html-keyboard-response","542","533457","0.0-1.0-747.0","0","0","95436","","null","","","null","82","","","","","","","","","","","","","","","NaN",""
"","S1","","html-keyboard-response","543","533710","0.0-1.0-749.0","0","0","95436","","null","","","null","83","","","","","","","","","","","","","","","",""
"","ISI","","html-keyboard-response","544","534713","0.0-1.0-750.0","0","0","95436","","null","","","null","83","NaN","","","","","","","","","","","","","","",""
"","S2","","html-keyboard-response","545","534966","0.0-1.0-751.0","0","0","95436","","null","","","null","83","","NaN","","","","","","","","","","","","","",""
"","response","","html-keyboard-response","546","535390","0.0-1.0-752.0-0.0","0","0","95436","","422","","","75","83","","","2","83","training","adjacent","AB","1","2","N.jpg","Q.jpg","0","1","0","",""
"","feedback","","html-keyboard-response","547","536392","0.0-1.0-753.0-0.0","0","0","95436","","null","","","null","83","","","","","","","","","","","","","","","",""
"","time_out","","html-keyboard-response","548","538395","0.0-1.0-755.0-0.0","0","0","95436","","null","","","null","83","","","","","","","","","","","","","","","",""
"","ITI","","html-keyboard-response","549","539397","0.0-1.0-756.0","0","0","95436","","null","","","null","83","","","","","","","","","","","","","","","NaN",""
"","S1","","html-keyboard-response","550","539651","0.0-1.0-758.0","0","0","95436","","null","","","null","84","","","","","","","","","","","","","","","",""
"","ISI","","html-keyboard-response","551","540653","0.0-1.0-759.0","0","0","95436","","null","","","null","84","NaN","","","","","","","","","","","","","","",""
"","S2","","html-keyboard-response","552","540907","0.0-1.0-760.0","0","0","95436","","null","","","null","84","","NaN","","","","","","","","","","","","","",""
"","response","","html-keyboard-response","553","541144","0.0-1.0-761.0-0.0","0","0","95436","","236","","","68","84","","","2","84","training","adjacent","FG","6","7","M.jpg","L.jpg","1","1","1","",""
"","feedback","","html-keyboard-response","554","542147","0.0-1.0-762.0-0.0","0","0","95436","","null","","","null","84","","","","","","","","","","","","","","","",""
"","ITI","","html-keyboard-response","555","543151","0.0-1.0-765.0","0","0","95436","","null","","","null","84","","","","","","","","","","","","","","","NaN",""
"","S1","","html-keyboard-response","556","543403","0.0-1.0-767.0","0","0","95436","","null","","","null","85","","","","","","","","","","","","","","","",""
"","ISI","","html-keyboard-response","557","544408","0.0-1.0-768.0","0","0","95436","","null","","","null","85","NaN","","","","","","","","","","","","","","",""
"","S2","","html-keyboard-response","558","544662","0.0-1.0-769.0","0","0","95436","","null","","","null","85","","NaN","","","","","","","","","","","","","",""
"","response","","html-keyboard-response","559","545272","0.0-1.0-770.0-0.0","0","0","95436","","609","","","68","85","","","2","85","training","adjacent","BC","2","3","Q.jpg","P.jpg","1","1","1","",""
"","feedback","","html-keyboard-response","560","546276","0.0-1.0-771.0-0.0","0","0","95436","","null","","","null","85","","","","","","","","","","","","","","","",""
"","ITI","","html-keyboard-response","561","547279","0.0-1.0-774.0","0","0","95436","","null","","","null","85","","","","","","","","","","","","","","","NaN",""
"","S1","","html-keyboard-response","562","547532","0.0-1.0-776.0","0","0","95436","","null","","","null","86","","","","","","","","","","","","","","","",""
"","ISI","","html-keyboard-response","563","548535","0.0-1.0-777.0","0","0","95436","","null","","","null","86","NaN","","","","","","","","","","","","","","",""
"","S2","","html-keyboard-response","564","548788","0.0-1.0-778.0","0","0","95436","","null","","","null","86","","NaN","","","","","","","","","","","","","",""
"","response","","html-keyboard-response","565","549145","0.0-1.0-779.0-0.0","0","0","95436","","355","","","68","86","","","2","86","training","adjacent","FE","6","5","M.jpg","O.jpg","1","0","0","",""
"","feedback","","html-keyboard-response","566","550148","0.0-1.0-780.0-0.0","0","0","95436","","null","","","null","86","","","","","","","","","","","","","","","",""
"","time_out","","html-keyboard-response","567","552151","0.0-1.0-782.0-0.0","0","0","95436","","null","","","null","86","","","","","","","","","","","","","","","",""
"","ITI","","html-keyboard-response","568","553167","0.0-1.0-783.0","0","0","95436","","null","","","null","86","","","","","","","","","","","","","","","NaN",""
"","S1","","html-keyboard-response","569","553419","0.0-1.0-785.0","0","0","95436","","null","","","null","87","","","","","","","","","","","","","","","",""
"","ISI","","html-keyboard-response","570","554422","0.0-1.0-786.0","0","0","95436","","null","","","null","87","NaN","","","","","","","","","","","","","","",""
"","S2","","html-keyboard-response","571","554675","0.0-1.0-787.0","0","0","95436","","null","","","null","87","","NaN","","","","","","","","","","","","","",""
"","response","","html-keyboard-response","572","554953","0.0-1.0-788.0-0.0","0","0","95436","","276","","","68","87","","","2","87","training","adjacent","CD","3","4","P.jpg","R.jpg","1","1","1","",""
"","feedback","","html-keyboard-response","573","555957","0.0-1.0-789.0-0.0","0","0","95436","","null","","","null","87","","","","","","","","","","","","","","","",""
"","ITI","","html-keyboard-response","574","556960","0.0-1.0-792.0","0","0","95436","","null","","","null","87","","","","","","","","","","","","","","","NaN",""
"","S1","","html-keyboard-response","575","557212","0.0-1.0-794.0","0","0","95436","","null","","","null","88","","","","","","","","","","","","","","","",""
"","ISI","","html-keyboard-response","576","558215","0.0-1.0-795.0","0","0","95436","","null","","","null","88","NaN","","","","","","","","","","","","","","",""
"","S2","","html-keyboard-response","577","558468","0.0-1.0-796.0","0","0","95436","","null","","","null","88","","NaN","","","","","","","","","","","","","",""
"","response","","html-keyboard-response","578","558580","0.0-1.0-797.0-0.0","0","0","95436","","110","","","75","88","","","2","88","training","adjacent","EF","5","6","O.jpg","M.jpg","0","1","0","",""
"","feedback","","html-keyboard-response","579","559584","0.0-1.0-798.0-0.0","0","0","95436","","null","","","null","88","","","","","","","","","","","","","","","",""
"","time_out","","html-keyboard-response","580","561587","0.0-1.0-800.0-0.0","0","0","95436","","null","","","null","88","","","","","","","","","","","","","","","",""
"","ITI","","html-keyboard-response","581","562590","0.0-1.0-801.0","0","0","95436","","null","","","null","88","","","","","","","","","","","","","","","NaN",""
"","S1","","html-keyboard-response","582","562843","0.0-1.0-803.0","0","0","95436","","null","","","null","89","","","","","","","","","","","","","","","",""
