"success","ttype","start_time","trial_type","trial_index","time_elapsed","internal_node_id","warning","missed_checkup","PID","view_history","rt","responses","repeat_instructions","key_press","index","keypress_isi","keypress_S2","block","trial_num","phase","group_type","pair_type","S1_stim","S2_stim","S1_img","S2_img","S1_chosen","S1_higher","accuracy","keypress_iti","total_bonus_tally"
"true","full_screen","d03032023hr2345","fullscreen","0","13930","0.0-0.0","0","0","29851","","","","","","","","","","","","","","","","","","","","","",""
"","instructions","","instructions","1","94279","0.0-1.0-0.0-0.0","0","0","29851","[{""page_index"":0,""viewing_time"":7009},{""page_index"":1,""viewing_time"":52473},{""page_index"":2,""viewing_time"":17087},{""page_index"":3,""viewing_time"":3777}]","80346","","","","","","","","","","","","","","","","","","","",""
"","comprehension_check","","survey-multi-choice","2","127079","0.0-1.0-0.0-1.0","0","0","29851","","32796","{""Q0"":""True"",""Q1"":""K"",""Q2"":""Only when the screen 'MAKE A CHOICE' is shown"",""Q3"":""Green mark"",""Q4"":""either D or K""}","1","","","","","","","","","","","","","","","","","",""
"","missed_instruction_checkup","","html-keyboard-response","3","129563","0.0-1.0-0.0-2.0-0.0","0","1","29851","","2479","","","32","","","","","","","","","","","","","","","","",""
"","instructions","","instructions","4","161182","0.0-1.0-0.1-0.1","0","0","29851","[{""page_index"":0,""viewing_time"":9272},{""page_index"":1,""viewing_time"":16688},{""page_index"":2,""viewing_time"":4488},{""page_index"":3,""viewing_time"":1168}]","31617","","","","","","","","","","","","","","","","","","","",""
"","comprehension_check","","survey-multi-choice","5","187182","0.0-1.0-0.1-1.1","0","0","29851","","25998","{""Q0"":""False"",""Q1"":""K"",""Q2"":""Only when the screen 'MAKE A CHOICE' is shown"",""Q3"":""Green mark"",""Q4"":""either D or K""}","1","","","","","","","","","","","","","","","","","",""
"","missed_instruction_checkup","","html-keyboard-response","6","189144","0.0-1.0-0.1-2.1-0.1","0","1","29851","","1958","","","32","","","","","","","","","","","","","","","","",""
"","instructions","","instructions","7","206213","0.0-1.0-0.2-0.2","0","0","29851","[{""page_index"":0,""viewing_time"":2171},{""page_index"":1,""viewing_time"":13416},{""page_index"":2,""viewing_time"":800},{""page_index"":3,""viewing_time"":680}]","17067","","","","","","","","","","","","","","","","","","","",""
"","comprehension_check","","survey-multi-choice","8","247606","0.0-1.0-0.2-1.2","0","0","29851","","41388","{""Q0"":""False"",""Q1"":""K"",""Q2"":""Only when the screen 'MAKE A CHOICE' is shown"",""Q3"":""Green mark"",""Q4"":""either D or K""}","1","","","","","","","","","","","","","","","","","",""
"","missed_instruction_checkup","","html-keyboard-response","9","249976","0.0-1.0-0.2-2.2-0.2","0","1","29851","","2366","","","32","","","","","","","","","","","","","","","","",""
"","instructions","","instructions","10","285229","0.0-1.0-0.3-0.3","0","0","29851","[{""page_index"":0,""viewing_time"":6603},{""page_index"":1,""viewing_time"":22016},{""page_index"":2,""viewing_time"":5776},{""page_index"":3,""viewing_time"":856}]","35251","","","","","","","","","","","","","","","","","","","",""
"","comprehension_check","","survey-multi-choice","11","306254","0.0-1.0-0.3-1.3","0","0","29851","","21022","{""Q0"":""True"",""Q1"":""K"",""Q2"":""Once the second image appears and while the screen 'MAKE A CHOICE' is shown"",""Q3"":""Green mark"",""Q4"":""either D or K""}","0","","","","","","","","","","","","","","","","","",""
"","start_exp","","html-keyboard-response","12","308448","0.0-1.0-1.0","0","0","29851","","2190","","","32","","","","","","","","","","","","","","","","",""
"","S1","","html-keyboard-response","13","308703","0.0-1.0-2.0","0","0","29851","","null","","","null","0","","","","","","","","","","","","","","","",""
"","ISI","","html-keyboard-response","14","309208","0.0-1.0-3.0","0","0","29851","","null","","","null","0","NaN","","","","","","","","","","","","","","",""
"","S2","","html-keyboard-response","15","309463","0.0-1.0-4.0","0","0","29851","","null","","","null","0","","NaN","","","","","","","","","","","","","",""
"","response","","html-keyboard-response","16","311218","0.0-1.0-5.0-0.0","0","0","29851","","null","","","null","0","","","1","0","training","adjacent","FE","6","5","P.jpg","L.jpg","NaN","0","0","",""
"","too_slow_prompt","","html-keyboard-response","17","312224","0.0-1.0-7.0-0.0","1","0","29851","","null","","","null","","","","","","","","","","","","","","","","",""
"","time_out","","html-keyboard-response","18","314228","0.0-1.0-8.0-0.0","0","0","29851","","null","","","null","0","","","","","","","","","","","","","","","",""
"","ITI","","html-keyboard-response","19","315233","0.0-1.0-9.0","0","0","29851","","null","","","null","0","","","","","","","","","","","","","","","NaN",""
"","S1","","html-keyboard-response","20","315489","0.0-1.0-11.0","0","0","29851","","null","","","null","1","","","","","","","","","","","","","","","",""
"","ISI","","html-keyboard-response","21","315993","0.0-1.0-12.0","0","0","29851","","null","","","null","1","NaN","","","","","","","","","","","","","","",""
"","S2","","html-keyboard-response","22","316248","0.0-1.0-13.0","0","0","29851","","null","","","null","1","","NaN","","","","","","","","","","","","","",""
"","response","","html-keyboard-response","23","317184","0.0-1.0-14.0-0.0","0","0","29851","","932","","","75","1","","","1","1","training","adjacent","DC","4","3","O.jpg","N.jpg","1","0","0","",""
"","feedback","","html-keyboard-response","24","318189","0.0-1.0-15.0-0.0","0","0","29851","","null","","","null","1","","","","","","","","","","","","","","","",""
"","time_out","","html-keyboard-response","25","320192","0.0-1.0-17.0-0.0","0","0","29851","","null","","","null","1","","","","","","","","","","","","","","","",""
"","ITI","","html-keyboard-response","26","321198","0.0-1.0-18.0","0","0","29851","","null","","","null","1","","","","","","","","","","","","","","","NaN",""
"","S1","","html-keyboard-response","27","321452","0.0-1.0-20.0","0","0","29851","","null","","","null","2","","","","","","","","","","","","","","","",""
"","ISI","","html-keyboard-response","28","321956","0.0-1.0-21.0","0","0","29851","","null","","","null","2","NaN","","","","","","","","","","","","","","",""
"","S2","","html-keyboard-response","29","322212","0.0-1.0-22.0","0","0","29851","","null","","","null","2","","NaN","","","","","","","","","","","","","",""
"","response","","html-keyboard-response","30","322696","0.0-1.0-23.0-0.0","0","0","29851","","480","","","68","2","","","1","2","training","adjacent","BC","2","3","M.jpg","N.jpg","0","1","0","",""
"","feedback","","html-keyboard-response","31","323701","0.0-1.0-24.0-0.0","0","0","29851","","null","","","null","2","","","","","","","","","","","","","","","",""
"","time_out","","html-keyboard-response","32","325705","0.0-1.0-26.0-0.0","0","0","29851","","null","","","null","2","","","","","","","","","","","","","","","",""
"","ITI","","html-keyboard-response","33","326710","0.0-1.0-27.0","0","0","29851","","null","","","null","2","","","","","","","","","","","","","","","NaN",""
"","S1","","html-keyboard-response","34","326966","0.0-1.0-29.0","0","0","29851","","null","","","null","3","","","","","","","","","","","","","","","",""
"","ISI","","html-keyboard-response","35","327470","0.0-1.0-30.0","0","0","29851","","null","","","null","3","NaN","","","","","","","","","","","","","","",""
"","S2","","html-keyboard-response","36","327725","0.0-1.0-31.0","0","0","29851","","null","","","null","3","","NaN","","","","","","","","","","","","","",""
"","response","","html-keyboard-response","37","328224","0.0-1.0-32.0-0.0","0","0","29851","","495","","","75","3","","","1","3","training","adjacent","EF","5","6","L.jpg","P.jpg","1","1","1","",""
"","feedback","","html-keyboard-response","38","329229","0.0-1.0-33.0-0.0","0","0","29851","","null","","","null","3","","","","","","","","","","","","","","","",""
"","ITI","","html-keyboard-response","39","330233","0.0-1.0-36.0","0","0","29851","","null","","","null","3","","","","","","","","","","","","","","","NaN",""
"","S1","","html-keyboard-response","40","330488","0.0-1.0-38.0","0","0","29851","","null","","","null","4","","","","","","","","","","","","","","","",""
"","ISI","","html-keyboard-response","41","330992","0.0-1.0-39.0","0","0","29851","","null","","","null","4","NaN","","","","","","","","","","","","","","",""
"","S2","","html-keyboard-response","42","331246","0.0-1.0-40.0","0","0","29851","","null","","","null","4","","NaN","","","","","","","","","","","","","",""
"","response","","html-keyboard-response","43","331560","0.0-1.0-41.0-0.0","0","0","29851","","310","","","68","4","","","1","4","training","adjacent","BA","2","1","M.jpg","Q.jpg","0","0","1","",""
"","feedback","","html-keyboard-response","44","332565","0.0-1.0-42.0-0.0","0","0","29851","","null","","","null","4","","","","","","","","","","","","","","","",""
"","ITI","","html-keyboard-response","45","333569","0.0-1.0-45.0","0","0","29851","","null","","","null","4","","","","","","","","","","","","","","","NaN",""
"","S1","","html-keyboard-response","46","333824","0.0-1.0-47.0","0","0","29851","","null","","","null","5","","","","","","","","","","","","","","","",""
"","ISI","","html-keyboard-response","47","334328","0.0-1.0-48.0","0","0","29851","","null","","","null","5","NaN","","","","","","","","","","","","","","",""
"","S2","","html-keyboard-response","48","334583","0.0-1.0-49.0","0","0","29851","","null","","","null","5","","NaN","","","","","","","","","","","","","",""
"","response","","html-keyboard-response","49","335016","0.0-1.0-50.0-0.0","0","0","29851","","429","","","75","5","","","1","5","training","adjacent","AB","1","2","Q.jpg","M.jpg","1","1","1","",""
"","feedback","","html-keyboard-response","50","336021","0.0-1.0-51.0-0.0","0","0","29851","","null","","","null","5","","","","","","","","","","","","","","","",""
"","ITI","","html-keyboard-response","51","337026","0.0-1.0-54.0","0","0","29851","","null","","","null","5","","","","","","","","","","","","","","","NaN",""
"","S1","","html-keyboard-response","52","337279","0.0-1.0-56.0","0","0","29851","","null","","","null","6","","","","","","","","","","","","","","","",""
"","ISI","","html-keyboard-response","53","337783","0.0-1.0-57.0","0","0","29851","","null","","","null","6","NaN","","","","","","","","","","","","","","",""
"","S2","","html-keyboard-response","54","338037","0.0-1.0-58.0","0","0","29851","","null","","","null","6","","NaN","","","","","","","","","","","","","",""
"","response","","html-keyboard-response","55","338624","0.0-1.0-59.0-0.0","0","0","29851","","583","","","68","6","","","1","6","training","adjacent","DE","4","5","O.jpg","L.jpg","0","1","0","",""
"","feedback","","html-keyboard-response","56","339630","0.0-1.0-60.0-0.0","0","0","29851","","null","","","null","6","","","","","","","","","","","","","","","",""
"","time_out","","html-keyboard-response","57","341634","0.0-1.0-62.0-0.0","0","0","29851","","null","","","null","6","","","","","","","","","","","","","","","",""
"","ITI","","html-keyboard-response","58","342640","0.0-1.0-63.0","0","0","29851","","null","","","null","6","","","","","","","","","","","","","","","NaN",""
"","S1","","html-keyboard-response","59","342895","0.0-1.0-65.0","0","0","29851","","null","","","null","7","","","","","","","","","","","","","","","",""
"","ISI","","html-keyboard-response","60","343400","0.0-1.0-66.0","0","0","29851","","null","","","null","7","NaN","","","","","","","","","","","","","","",""
"","S2","","html-keyboard-response","61","343655","0.0-1.0-67.0","0","0","29851","","null","","","null","7","","NaN","","","","","","","","","","","","","",""
"","response","","html-keyboard-response","62","344136","0.0-1.0-68.0-0.0","0","0","29851","","477","","","68","7","","","1","7","training","adjacent","ED","5","4","L.jpg","O.jpg","0","0","1","",""
"","feedback","","html-keyboard-response","63","345141","0.0-1.0-69.0-0.0","0","0","29851","","null","","","null","7","","","","","","","","","","","","","","","",""
"","ITI","","html-keyboard-response","64","346145","0.0-1.0-72.0","0","0","29851","","null","","","null","7","","","","","","","","","","","","","","","NaN",""
"","S1","","html-keyboard-response","65","346401","0.0-1.0-74.0","0","0","29851","","null","","","null","8","","","","","","","","","","","","","","","",""
"","ISI","","html-keyboard-response","66","346905","0.0-1.0-75.0","0","0","29851","","null","","","null","8","NaN","","","","","","","","","","","","","","",""
"","S2","","html-keyboard-response","67","347161","0.0-1.0-76.0","0","0","29851","","null","","","null","8","","NaN","","","","","","","","","","","","","",""
"","response","","html-keyboard-response","68","347640","0.0-1.0-77.0-0.0","0","0","29851","","475","","","75","8","","","1","8","training","adjacent","GF","7","6","R.jpg","P.jpg","1","0","0","",""
"","feedback","","html-keyboard-response","69","348645","0.0-1.0-78.0-0.0","0","0","29851","","null","","","null","8","","","","","","","","","","","","","","","",""
"","time_out","","html-keyboard-response","70","350649","0.0-1.0-80.0-0.0","0","0","29851","","null","","","null","8","","","","","","","","","","","","","","","",""
"","ITI","","html-keyboard-response","71","351654","0.0-1.0-81.0","0","0","29851","","null","","","null","8","","","","","","","","","","","","","","","NaN",""
"","S1","","html-keyboard-response","72","351908","0.0-1.0-83.0","0","0","29851","","null","","","null","9","","","","","","","","","","","","","","","",""
"","ISI","","html-keyboard-response","73","352413","0.0-1.0-84.0","0","0","29851","","null","","","null","9","NaN","","","","","","","","","","","","","","",""
"","S2","","html-keyboard-response","74","352668","0.0-1.0-85.0","0","0","29851","","null","","","null","9","","NaN","","","","","","","","","","","","","",""
"","response","","html-keyboard-response","75","353048","0.0-1.0-86.0-0.0","0","0","29851","","376","","","75","9","","","1","9","training","adjacent","EF","5","6","L.jpg","P.jpg","1","1","1","",""
"","feedback","","html-keyboard-response","76","354052","0.0-1.0-87.0-0.0","0","0","29851","","null","","","null","9","","","","","","","","","","","","","","","",""
"","ITI","","html-keyboard-response","77","355058","0.0-1.0-90.0","0","0","29851","","null","","","null","9","","","","","","","","","","","","","","","NaN",""
"","S1","","html-keyboard-response","78","355313","0.0-1.0-92.0","0","0","29851","","null","","","null","10","","","","","","","","","","","","","","","",""
"","ISI","","html-keyboard-response","79","355817","0.0-1.0-93.0","0","0","29851","","null","","","null","10","NaN","","","","","","","","","","","","","","",""
"","S2","","html-keyboard-response","80","356073","0.0-1.0-94.0","0","0","29851","","null","","","null","10","","NaN","","","","","","","","","","","","","",""
"","response","","html-keyboard-response","81","356608","0.0-1.0-95.0-0.0","0","0","29851","","531","","","75","10","","","1","10","training","adjacent","GF","7","6","R.jpg","P.jpg","1","0","0","",""
"","feedback","","html-keyboard-response","82","357612","0.0-1.0-96.0-0.0","0","0","29851","","null","","","null","10","","","","","","","","","","","","","","","",""
"","time_out","","html-keyboard-response","83","359617","0.0-1.0-98.0-0.0","0","0","29851","","null","","","null","10","","","","","","","","","","","","","","","",""
"","ITI","","html-keyboard-response","84","360621","0.0-1.0-99.0","0","0","29851","","null","","","null","10","","","","","","","","","","","","","","","NaN",""
"","S1","","html-keyboard-response","85","360876","0.0-1.0-101.0","0","0","29851","","null","","","null","11","","","","","","","","","","","","","","","",""
"","ISI","","html-keyboard-response","86","361380","0.0-1.0-102.0","0","0","29851","","null","","","null","11","NaN","","","","","","","","","","","","","","",""
"","S2","","html-keyboard-response","87","361634","0.0-1.0-103.0","0","0","29851","","null","","","null","11","","NaN","","","","","","","","","","","","","",""
"","response","","html-keyboard-response","88","362304","0.0-1.0-104.0-0.0","0","0","29851","","666","","","68","11","","","1","11","training","adjacent","DC","4","3","O.jpg","N.jpg","0","0","1","",""
"","feedback","","html-keyboard-response","89","363308","0.0-1.0-105.0-0.0","0","0","29851","","null","","","null","11","","","","","","","","","","","","","","","",""
"","ITI","","html-keyboard-response","90","364312","0.0-1.0-108.0","0","0","29851","","null","","","null","11","","","","","","","","","","","","","","","NaN",""
"","S1","","html-keyboard-response","91","364566","0.0-1.0-110.0","0","0","29851","","null","","","null","12","","","","","","","","","","","","","","","",""
"","ISI","","html-keyboard-response","92","365070","0.0-1.0-111.0","0","0","29851","","null","","","null","12","NaN","","","","","","","","","","","","","","",""
"","S2","","html-keyboard-response","93","365325","0.0-1.0-112.0","0","0","29851","","null","","","null","12","","NaN","","","","","","","","","","","","","",""
"","response","","html-keyboard-response","94","365904","0.0-1.0-113.0-0.0","0","0","29851","","575","","","68","12","","","1","12","training","adjacent","CD","3","4","N.jpg","O.jpg","0","1","0","",""
"","feedback","","html-keyboard-response","95","366910","0.0-1.0-114.0-0.0","0","0","29851","","null","","","null","12","","","","","","","","","","","","","","","",""
"","time_out","","html-keyboard-response","96","368915","0.0-1.0-116.0-0.0","0","0","29851","","null","","","null","12","","","","","","","","","","","","","","","",""
"","ITI","","html-keyboard-response","97","369919","0.0-1.0-117.0","0","0","29851","","null","","","null","12","","","","","","","","","","","","","","","NaN",""
"","S1","","html-keyboard-response","98","370175","0.0-1.0-119.0","0","0","29851","","null","","","null","13","","","","","","","","","","","","","","","",""
"","ISI","","html-keyboard-response","99","370679","0.0-1.0-120.0","0","0","29851","","null","","","null","13","NaN","","","","","","","","","","","","","","",""
"","S2","","html-keyboard-response","100","370934","0.0-1.0-121.0","0","0","29851","","null","","","null","13","","NaN","","","","","","","","","","","","","",""
"","response","","html-keyboard-response","101","371456","0.0-1.0-122.0-0.0","0","0","29851","","518","","","75","13","","","1","13","training","adjacent","CD","3","4","N.jpg","O.jpg","1","1","1","",""
"","feedback","","html-keyboard-response","102","372458","0.0-1.0-123.0-0.0","0","0","29851","","null","","","null","13","","","","","","","","","","","","","","","",""
"","ITI","","html-keyboard-response","103","373462","0.0-1.0-126.0","0","0","29851","","null","","","null","13","","","","","","","","","","","","","","","NaN",""
"","S1","","html-keyboard-response","104","373716","0.0-1.0-128.0","0","0","29851","","null","","","null","14","","","","","","","","","","","","","","","",""
"","ISI","","html-keyboard-response","105","374229","0.0-1.0-129.0","0","0","29851","","null","","","null","14","NaN","","","","","","","","","","","","","","",""
"","S2","","html-keyboard-response","106","374484","0.0-1.0-130.0","0","0","29851","","null","","","null","14","","NaN","","","","","","","","","","","","","",""
"","response","","html-keyboard-response","107","374952","0.0-1.0-131.0-0.0","0","0","29851","","464","","","75","14","","","1","14","training","adjacent","CB","3","2","N.jpg","M.jpg","1","0","0","",""
"","feedback","","html-keyboard-response","108","375956","0.0-1.0-132.0-0.0","0","0","29851","","null","","","null","14","","","","","","","","","","","","","","","",""
"","time_out","","html-keyboard-response","109","377961","0.0-1.0-134.0-0.0","0","0","29851","","null","","","null","14","","","","","","","","","","","","","","","",""
"","ITI","","html-keyboard-response","110","378966","0.0-1.0-135.0","0","0","29851","","null","","","null","14","","","","","","","","","","","","","","","NaN",""
"","S1","","html-keyboard-response","111","379220","0.0-1.0-137.0","0","0","29851","","null","","","null","15","","","","","","","","","","","","","","","",""
"","ISI","","html-keyboard-response","112","379723","0.0-1.0-138.0","0","0","29851","","null","","","null","15","NaN","","","","","","","","","","","","","","",""
"","S2","","html-keyboard-response","113","379978","0.0-1.0-139.0","0","0","29851","","null","","","null","15","","NaN","","","","","","","","","","","","","",""
"","response","","html-keyboard-response","114","380593","0.0-1.0-140.0-0.0","0","0","29851","","610","","","75","15","","","1","15","training","adjacent","BA","2","1","M.jpg","Q.jpg","1","0","0","",""
"","feedback","","html-keyboard-response","115","381604","0.0-1.0-141.0-0.0","0","0","29851","","null","","","null","15","","","","","","","","","","","","","","","",""
"","time_out","","html-keyboard-response","116","383609","0.0-1.0-143.0-0.0","0","0","29851","","null","","","null","15","","","","","","","","","","","","","","","",""
"","ITI","","html-keyboard-response","117","384614","0.0-1.0-144.0","0","0","29851","","null","","","null","15","","","","","","","","","","","","","","","NaN",""
"","S1","","html-keyboard-response","118","384868","0.0-1.0-146.0","0","0","29851","","null","","","null","16","","","","","","","","","","","","","","","",""
"","ISI","","html-keyboard-response","119","385373","0.0-1.0-147.0","0","0","29851","","null","","","null","16","NaN","","","","","","","","","","","","","","",""
"","S2","","html-keyboard-response","120","385628","0.0-1.0-148.0","0","0","29851","","null","","","null","16","","NaN","","","","","","","","","","","","","",""
"","response","","html-keyboard-response","121","386176","0.0-1.0-149.0-0.0","0","0","29851","","545","","","68","16","","","1","16","training","adjacent","AB","1","2","Q.jpg","M.jpg","0","1","0","",""
"","feedback","","html-keyboard-response","122","387180","0.0-1.0-150.0-0.0","0","0","29851","","null","","","null","16","","","","","","","","","","","","","","","",""
"","time_out","","html-keyboard-response","123","389185","0.0-1.0-152.0-0.0","0","0","29851","","null","","","null","16","","","","","","","","","","","","","","","",""
"","ITI","","html-keyboard-response","124","390190","0.0-1.0-153.0","0","0","29851","","null","","","null","16","","","","","","","","","","","","","","","NaN",""
"","S1","","html-keyboard-response","125","390445","0.0-1.0-155.0","0","0","29851","","null","","","null","17","","","","","","","","","","","","","","","",""
"","ISI","","html-keyboard-response","126","390960","0.0-1.0-156.0","0","0","29851","","null","","","null","17","NaN","","","","","","","","","","","","","","",""
"","S2","","html-keyboard-response","127","391215","0.0-1.0-157.0","0","0","29851","","null","","","null","17","","NaN","","","","","","","","","","","","","",""
"","response","","html-keyboard-response","128","391720","0.0-1.0-158.0-0.0","0","0","29851","","501","","","75","17","","","1","17","training","adjacent","GF","7","6","R.jpg","P.jpg","1","0","0","",""
"","feedback","","html-keyboard-response","129","392726","0.0-1.0-159.0-0.0","0","0","29851","","null","","","null","17","","","","","","","","","","","","","","","",""
"","time_out","","html-keyboard-response","130","394730","0.0-1.0-161.0-0.0","0","0","29851","","null","","","null","17","","","","","","","","","","","","","","","",""
"","ITI","","html-keyboard-response","131","395735","0.0-1.0-162.0","0","0","29851","","null","","","null","17","","","","","","","","","","","","","","","NaN",""
"","S1","","html-keyboard-response","132","395989","0.0-1.0-164.0","0","0","29851","","null","","","null","18","","","","","","","","","","","","","","","",""
"","ISI","","html-keyboard-response","133","396494","0.0-1.0-165.0","0","0","29851","","null","","","null","18","NaN","","","","","","","","","","","","","","",""
"","S2","","html-keyboard-response","134","396747","0.0-1.0-166.0","0","0","29851","","null","","","null","18","","NaN","","","","","","","","","","","","","",""
"","response","","html-keyboard-response","135","397242","0.0-1.0-167.0-0.0","0","0","29851","","490","","","68","18","","","1","18","training","adjacent","GF","7","6","R.jpg","P.jpg","0","0","1","",""
"","feedback","","html-keyboard-response","136","398247","0.0-1.0-168.0-0.0","0","0","29851","","null","","","null","18","","","","","","","","","","","","","","","",""
"","ITI","","html-keyboard-response","137","399253","0.0-1.0-171.0","0","0","29851","","null","","","null","18","","","","","","","","","","","","","","","NaN",""
"","S1","","html-keyboard-response","138","399505","0.0-1.0-173.0","0","0","29851","","null","","","null","19","","","","","","","","","","","","","","","",""
"","ISI","","html-keyboard-response","139","400010","0.0-1.0-174.0","0","0","29851","","null","","","null","19","NaN","","","","","","","","","","","","","","",""
"","S2","","html-keyboard-response","140","400264","0.0-1.0-175.0","0","0","29851","","null","","","null","19","","NaN","","","","","","","","","","","","","",""
"","response","","html-keyboard-response","141","400648","0.0-1.0-176.0-0.0","0","0","29851","","380","","","75","19","","","1","19","training","adjacent","DE","4","5","O.jpg","L.jpg","1","1","1","",""
"","feedback","","html-keyboard-response","142","401653","0.0-1.0-177.0-0.0","0","0","29851","","null","","","null","19","","","","","","","","","","","","","","","",""
"","ITI","","html-keyboard-response","143","402659","0.0-1.0-180.0","0","0","29851","","null","","","null","19","","","","","","","","","","","","","","","NaN",""
"","S1","","html-keyboard-response","144","402914","0.0-1.0-182.0","0","0","29851","","null","","","null","20","","","","","","","","","","","","","","","",""
"","ISI","","html-keyboard-response","145","403418","0.0-1.0-183.0","0","0","29851","","null","","","null","20","NaN","","","","","","","","","","","","","","",""
"","S2","","html-keyboard-response","146","403674","0.0-1.0-184.0","0","0","29851","","null","","","null","20","","NaN","","","","","","","","","","","","","",""
"","response","","html-keyboard-response","147","404216","0.0-1.0-185.0-0.0","0","0","29851","","538","","","75","20","","","1","20","training","adjacent","DE","4","5","O.jpg","L.jpg","1","1","1","",""
"","feedback","","html-keyboard-response","148","405221","0.0-1.0-186.0-0.0","0","0","29851","","null","","","null","20","","","","","","","","","","","","","","","",""
"","ITI","","html-keyboard-response","149","406226","0.0-1.0-189.0","0","0","29851","","null","","","null","20","","","","","","","","","","","","","","","NaN",""
"","S1","","html-keyboard-response","150","406482","0.0-1.0-191.0","0","0","29851","","null","","","null","21","","","","","","","","","","","","","","","",""
"","ISI","","html-keyboard-response","151","406987","0.0-1.0-192.0","0","0","29851","","null","","","null","21","NaN","","","","","","","","","","","","","","",""
"","S2","","html-keyboard-response","152","407241","0.0-1.0-193.0","0","0","29851","","null","","","null","21","","NaN","","","","","","","","","","","","","",""
"","response","","html-keyboard-response","153","408000","0.0-1.0-194.0-0.0","0","0","29851","","755","","","75","21","","","1","21","training","adjacent","DC","4","3","O.jpg","N.jpg","1","0","0","",""
"","feedback","","html-keyboard-response","154","409005","0.0-1.0-195.0-0.0","0","0","29851","","null","","","null","21","","","","","","","","","","","","","","","",""
"","time_out","","html-keyboard-response","155","411009","0.0-1.0-197.0-0.0","0","0","29851","","null","","","null","21","","","","","","","","","","","","","","","",""
"","ITI","","html-keyboard-response","156","412014","0.0-1.0-198.0","0","0","29851","","null","","","null","21","","","","","","","","","","","","","","","NaN",""
"","S1","","html-keyboard-response","157","412268","0.0-1.0-200.0","0","0","29851","","null","","","null","22","","","","","","","","","","","","","","","",""
"","ISI","","html-keyboard-response","158","412773","0.0-1.0-201.0","0","0","29851","","null","","","null","22","NaN","","","","","","","","","","","","","","",""
"","S2","","html-keyboard-response","159","413031","0.0-1.0-202.0","0","0","29851","","null","","","null","22","","NaN","","","","","","","","","","","","","",""
"","response","","html-keyboard-response","160","413752","0.0-1.0-203.0-0.0","0","0","29851","","717","","","75","22","","","1","22","training","adjacent","ED","5","4","L.jpg","O.jpg","1","0","0","",""
"","feedback","","html-keyboard-response","161","414756","0.0-1.0-204.0-0.0","0","0","29851","","null","","","null","22","","","","","","","","","","","","","","","",""
"","time_out","","html-keyboard-response","162","416760","0.0-1.0-206.0-0.0","0","0","29851","","null","","","null","22","","","","","","","","","","","","","","","",""
"","ITI","","html-keyboard-response","163","417766","0.0-1.0-207.0","0","0","29851","","null","","","null","22","","","","","","","","","","","","","","","NaN",""
"","S1","","html-keyboard-response","164","418020","0.0-1.0-209.0","0","0","29851","","null","","","null","23","","","","","","","","","","","","","","","",""
"","ISI","","html-keyboard-response","165","418524","0.0-1.0-210.0","0","0","29851","","null","","","null","23","NaN","","","","","","","","","","","","","","",""
"","S2","","html-keyboard-response","166","418779","0.0-1.0-211.0","0","0","29851","","null","","","null","23","","NaN","","","","","","","","","","","","","",""
"","response","","html-keyboard-response","167","419512","0.0-1.0-212.0-0.0","0","0","29851","","729","","","75","23","","","1","23","training","adjacent","EF","5","6","L.jpg","P.jpg","1","1","1","",""
"","feedback","","html-keyboard-response","168","420516","0.0-1.0-213.0-0.0","0","0","29851","","null","","","null","23","","","","","","","","","","","","","","","",""
"","ITI","","html-keyboard-response","169","421520","0.0-1.0-216.0","0","0","29851","","null","","","null","23","","","","","","","","","","","","","","","NaN",""
"","S1","","html-keyboard-response","170","421774","0.0-1.0-218.0","0","0","29851","","null","","","null","24","","","","","","","","","","","","","","","",""
"","ISI","","html-keyboard-response","171","422278","0.0-1.0-219.0","0","0","29851","","null","","","null","24","NaN","","","","","","","","","","","","","","",""
"","S2","","html-keyboard-response","172","422533","0.0-1.0-220.0","0","0","29851","","null","","","null","24","","NaN","","","","","","","","","","","","","",""
"","response","","html-keyboard-response","173","422920","0.0-1.0-221.0-0.0","0","0","29851","","383","","","68","24","","","1","24","training","adjacent","CB","3","2","N.jpg","M.jpg","0","0","1","",""
"","feedback","","html-keyboard-response","174","423935","0.0-1.0-222.0-0.0","0","0","29851","","null","","","null","24","","","","","","","","","","","","","","","",""
"","ITI","","html-keyboard-response","175","424940","0.0-1.0-225.0","0","0","29851","","null","","","null","24","","","","","","","","","","","","","","","NaN",""
"","S1","","html-keyboard-response","176","425194","0.0-1.0-227.0","0","0","29851","","null","","","null","25","","","","","","","","","","","","","","","",""
"","ISI","","html-keyboard-response","177","425699","0.0-1.0-228.0","0","0","29851","","null","","","null","25","NaN","","","","","","","","","","","","","","",""
"","S2","","html-keyboard-response","178","425955","0.0-1.0-229.0","0","0","29851","","null","","","null","25","","NaN","","","","","","","","","","","","","",""
"","response","","html-keyboard-response","179","426679","0.0-1.0-230.0-0.0","0","0","29851","","720","","","68","25","","","1","25","training","adjacent","ED","5","4","L.jpg","O.jpg","0","0","1","",""
"","feedback","","html-keyboard-response","180","427684","0.0-1.0-231.0-0.0","0","0","29851","","null","","","null","25","","","","","","","","","","","","","","","",""
"","ITI","","html-keyboard-response","181","428689","0.0-1.0-234.0","0","0","29851","","null","","","null","25","","","","","","","","","","","","","","","NaN",""
"","S1","","html-keyboard-response","182","428943","0.0-1.0-236.0","0","0","29851","","null","","","null","26","","","","","","","","","","","","","","","",""
"","ISI","","html-keyboard-response","183","429446","0.0-1.0-237.0","0","0","29851","","null","","","null","26","NaN","","","","","","","","","","","","","","",""
"","S2","","html-keyboard-response","184","429714","0.0-1.0-238.0","0","0","29851","","null","","","null","26","","NaN","","","","","","","","","","","","","",""
"","response","","html-keyboard-response","185","430448","0.0-1.0-239.0-0.0","0","0","29851","","730","","","75","26","","","1","26","training","adjacent","FE","6","5","P.jpg","L.jpg","1","0","0","",""
"","feedback","","html-keyboard-response","186","431453","0.0-1.0-240.0-0.0","0","0","29851","","null","","","null","26","","","","","","","","","","","","","","","",""
"","time_out","","html-keyboard-response","187","433457","0.0-1.0-242.0-0.0","0","0","29851","","null","","","null","26","","","","","","","","","","","","","","","",""
"","ITI","","html-keyboard-response","188","434462","0.0-1.0-243.0","0","0","29851","","null","","","null","26","","","","","","","","","","","","","","","NaN",""
"","S1","","html-keyboard-response","189","434716","0.0-1.0-245.0","0","0","29851","","null","","","null","27","","","","","","","","","","","","","","","",""
"","ISI","","html-keyboard-response","190","435221","0.0-1.0-246.0","0","0","29851","","null","","","null","27","NaN","","","","","","","","","","","","","","",""
"","S2","","html-keyboard-response","191","435474","0.0-1.0-247.0","0","0","29851","","null","","","null","27","","NaN","","","","","","","","","","","","","",""
"","response","","html-keyboard-response","192","436440","0.0-1.0-248.0-0.0","0","0","29851","","963","","","68","27","","","1","27","training","adjacent","DC","4","3","O.jpg","N.jpg","0","0","1","",""
"","feedback","","html-keyboard-response","193","437446","0.0-1.0-249.0-0.0","0","0","29851","","null","","","null","27","","","","","","","","","","","","","","","",""
"","ITI","","html-keyboard-response","194","438450","0.0-1.0-252.0","0","0","29851","","null","","","null","27","","","","","","","","","","","","","","","NaN",""
"","S1","","html-keyboard-response","195","438704","0.0-1.0-254.0","0","0","29851","","null","","","null","28","","","","","","","","","","","","","","","",""
"","ISI","","html-keyboard-response","196","439208","0.0-1.0-255.0","0","0","29851","","null","","","null","28","NaN","","","","","","","","","","","","","","",""
"","S2","","html-keyboard-response","197","439463","0.0-1.0-256.0","0","0","29851","","null","","","null","28","","NaN","","","","","","","","","","","","","",""
"","response","","html-keyboard-response","198","440040","0.0-1.0-257.0-0.0","0","0","29851","","573","","","75","28","","","1","28","training","adjacent","FG","6","7","P.jpg","R.jpg","1","1","1","",""
"","feedback","","html-keyboard-response","199","441045","0.0-1.0-258.0-0.0","0","0","29851","","null","","","null","28","","","","","","","","","","","","","","","",""
"","ITI","","html-keyboard-response","200","442050","0.0-1.0-261.0","0","0","29851","","null","","","null","28","","","","","","","","","","","","","","","NaN",""
"","S1","","html-keyboard-response","201","442304","0.0-1.0-263.0","0","0","29851","","null","","","null","29","","","","","","","","","","","","","","","",""
"","ISI","","html-keyboard-response","202","442808","0.0-1.0-264.0","0","0","29851","","null","","","null","29","NaN","","","","","","","","","","","","","","",""
"","S2","","html-keyboard-response","203","443063","0.0-1.0-265.0","0","0","29851","","null","","","null","29","","NaN","","","","","","","","","","","","","",""
"","response","","html-keyboard-response","204","443696","0.0-1.0-266.0-0.0","0","0","29851","","629","","","68","29","","","1","29","training","adjacent","AB","1","2","Q.jpg","M.jpg","0","1","0","",""
"","feedback","","html-keyboard-response","205","444702","0.0-1.0-267.0-0.0","0","0","29851","","null","","","null","29","","","","","","","","","","","","","","","",""
"","time_out","","html-keyboard-response","206","446709","0.0-1.0-269.0-0.0","0","0","29851","","null","","","null","29","","","","","","","","","","","","","","","",""
"","ITI","","html-keyboard-response","207","447713","0.0-1.0-270.0","0","0","29851","","null","","","null","29","","","","","","","","","","","","","","","NaN",""
"","S1","","html-keyboard-response","208","447968","0.0-1.0-272.0","0","0","29851","","null","","","null","30","","","","","","","","","","","","","","","",""
"","ISI","","html-keyboard-response","209","448471","0.0-1.0-273.0","0","0","29851","","null","","","null","30","NaN","","","","","","","","","","","","","","",""
"","S2","","html-keyboard-response","210","448727","0.0-1.0-274.0","0","0","29851","","null","","","null","30","","NaN","","","","","","","","","","","","","",""
"","response","","html-keyboard-response","211","449281","0.0-1.0-275.0-0.0","0","0","29851","","549","","","75","30","","","1","30","training","adjacent","DE","4","5","O.jpg","L.jpg","1","1","1","",""
"","feedback","","html-keyboard-response","212","450286","0.0-1.0-276.0-0.0","0","0","29851","","null","","","null","30","","","","","","","","","","","","","","","",""
"","ITI","","html-keyboard-response","213","451291","0.0-1.0-279.0","0","0","29851","","null","","","null","30","","","","","","","","","","","","","","","NaN",""
"","S1","","html-keyboard-response","214","451544","0.0-1.0-281.0","0","0","29851","","null","","","null","31","","","","","","","","","","","","","","","",""
"","ISI","","html-keyboard-response","215","452047","0.0-1.0-282.0","0","0","29851","","null","","","null","31","NaN","","","","","","","","","","","","","","",""
"","S2","","html-keyboard-response","216","452302","0.0-1.0-283.0","0","0","29851","","null","","","null","31","","NaN","","","","","","","","","","","","","",""
"","response","","html-keyboard-response","217","452896","0.0-1.0-284.0-0.0","0","0","29851","","590","","","68","31","","","1","31","training","adjacent","BC","2","3","M.jpg","N.jpg","0","1","0","",""
"","feedback","","html-keyboard-response","218","453901","0.0-1.0-285.0-0.0","0","0","29851","","null","","","null","31","","","","","","","","","","","","","","","",""
"","time_out","","html-keyboard-response","219","455906","0.0-1.0-287.0-0.0","0","0","29851","","null","","","null","31","","","","","","","","","","","","","","","",""
"","ITI","","html-keyboard-response","220","456910","0.0-1.0-288.0","0","0","29851","","null","","","null","31","","","","","","","","","","","","","","","NaN",""
"","S1","","html-keyboard-response","221","457165","0.0-1.0-290.0","0","0","29851","","null","","","null","32","","","","","","","","","","","","","","","",""
"","ISI","","html-keyboard-response","222","457669","0.0-1.0-291.0","0","0","29851","","null","","","null","32","NaN","","","","","","","","","","","","","","",""
"","S2","","html-keyboard-response","223","457926","0.0-1.0-292.0","0","0","29851","","null","","","null","32","","NaN","","","","","","","","","","","","","",""
"","response","","html-keyboard-response","224","458536","0.0-1.0-293.0-0.0","0","0","29851","","606","","","75","32","","","1","32","training","adjacent","CB","3","2","N.jpg","M.jpg","1","0","0","",""
"","feedback","","html-keyboard-response","225","459543","0.0-1.0-294.0-0.0","0","0","29851","","null","","","null","32","","","","","","","","","","","","","","","",""
"","time_out","","html-keyboard-response","226","461547","0.0-1.0-296.0-0.0","0","0","29851","","null","","","null","32","","","","","","","","","","","","","","","",""
"","ITI","","html-keyboard-response","227","462562","0.0-1.0-297.0","0","0","29851","","null","","","null","32","","","","","","","","","","","","","","","NaN",""
"","S1","","html-keyboard-response","228","462816","0.0-1.0-299.0","0","0","29851","","null","","","null","33","","","","","","","","","","","","","","","",""
"","ISI","","html-keyboard-response","229","463335","0.0-1.0-300.0","0","0","29851","","null","","","null","33","NaN","","","","","","","","","","","","","","",""
"","S2","","html-keyboard-response","230","463590","0.0-1.0-301.0","0","0","29851","","null","","","null","33","","NaN","","","","","","","","","","","","","",""
"","response","","html-keyboard-response","231","464288","0.0-1.0-302.0-0.0","0","0","29851","","694","","","68","33","","","1","33","training","adjacent","FG","6","7","P.jpg","R.jpg","0","1","0","",""
"","feedback","","html-keyboard-response","232","465293","0.0-1.0-303.0-0.0","0","0","29851","","null","","","null","33","","","","","","","","","","","","","","","",""
"","time_out","","html-keyboard-response","233","467298","0.0-1.0-305.0-0.0","0","0","29851","","null","","","null","33","","","","","","","","","","","","","","","",""
"","ITI","","html-keyboard-response","234","468302","0.0-1.0-306.0","0","0","29851","","null","","","null","33","","","","","","","","","","","","","","","NaN",""
"","S1","","html-keyboard-response","235","468558","0.0-1.0-308.0","0","0","29851","","null","","","null","34","","","","","","","","","","","","","","","",""
"","ISI","","html-keyboard-response","236","469062","0.0-1.0-309.0","0","0","29851","","null","","","null","34","NaN","","","","","","","","","","","","","","",""
"","S2","","html-keyboard-response","237","469324","0.0-1.0-310.0","0","0","29851","","null","","","null","34","","NaN","","","","","","","","","","","","","",""
"","response","","html-keyboard-response","238","469792","0.0-1.0-311.0-0.0","0","0","29851","","465","","","75","34","","","1","34","training","adjacent","BC","2","3","M.jpg","N.jpg","1","1","1","",""
"","feedback","","html-keyboard-response","239","470797","0.0-1.0-312.0-0.0","0","0","29851","","null","","","null","34","","","","","","","","","","","","","","","",""
"","ITI","","html-keyboard-response","240","471802","0.0-1.0-315.0","0","0","29851","","null","","","null","34","","","","","","","","","","","","","","","NaN",""
"","S1","","html-keyboard-response","241","472056","0.0-1.0-317.0","0","0","29851","","null","","","null","35","","","","","","","","","","","","","","","",""
"","ISI","","html-keyboard-response","242","472560","0.0-1.0-318.0","0","0","29851","","null","","","null","35","NaN","","","","","","","","","","","","","","",""
"","S2","","html-keyboard-response","243","472815","0.0-1.0-319.0","0","0","29851","","null","","","null","35","","NaN","","","","","","","","","","","","","",""
"","response","","html-keyboard-response","244","473504","0.0-1.0-320.0-0.0","0","0","29851","","684","","","68","35","","","1","35","training","adjacent","CD","3","4","N.jpg","O.jpg","0","1","0","",""
"","feedback","","html-keyboard-response","245","474507","0.0-1.0-321.0-0.0","0","0","29851","","null","","","null","35","","","","","","","","","","","","","","","",""
"","time_out","","html-keyboard-response","246","476511","0.0-1.0-323.0-0.0","0","0","29851","","null","","","null","35","","","","","","","","","","","","","","","",""
"","ITI","","html-keyboard-response","247","477515","0.0-1.0-324.0","0","0","29851","","null","","","null","35","","","","","","","","","","","","","","","NaN",""
"","S1","","html-keyboard-response","248","477770","0.0-1.0-326.0","0","0","29851","","null","","","null","36","","","","","","","","","","","","","","","",""
"","ISI","","html-keyboard-response","249","478281","0.0-1.0-327.0","0","0","29851","","null","","","null","36","NaN","","","","","","","","","","","","","","",""
"","S2","","html-keyboard-response","250","478536","0.0-1.0-328.0","0","0","29851","","null","","","null","36","","NaN","","","","","","","","","","","","","",""
"","response","","html-keyboard-response","251","479015","0.0-1.0-329.0-0.0","0","0","29851","","475","","","75","36","","","1","36","training","adjacent","EF","5","6","L.jpg","P.jpg","1","1","1","",""
"","feedback","","html-keyboard-response","252","480020","0.0-1.0-330.0-0.0","0","0","29851","","null","","","null","36","","","","","","","","","","","","","","","",""
"","ITI","","html-keyboard-response","253","481025","0.0-1.0-333.0","0","0","29851","","null","","","null","36","","","","","","","","","","","","","","","NaN",""
"","S1","","html-keyboard-response","254","481300","0.0-1.0-335.0","0","0","29851","","null","","","null","37","","","","","","","","","","","","","","","",""
"","ISI","","html-keyboard-response","255","481803","0.0-1.0-336.0","0","0","29851","","null","","","null","37","NaN","","","","","","","","","","","","","","",""
"","S2","","html-keyboard-response","256","482058","0.0-1.0-337.0","0","0","29851","","null","","","null","37","","NaN","","","","","","","","","","","","","",""
"","response","","html-keyboard-response","257","482736","0.0-1.0-338.0-0.0","0","0","29851","","674","","","68","37","","","1","37","training","adjacent","CB","3","2","N.jpg","M.jpg","0","0","1","",""
"","feedback","","html-keyboard-response","258","483741","0.0-1.0-339.0-0.0","0","0","29851","","null","","","null","37","","","","","","","","","","","","","","","",""
"","ITI","","html-keyboard-response","259","484746","0.0-1.0-342.0","0","0","29851","","null","","","null","37","","","","","","","","","","","","","","","NaN",""
"","S1","","html-keyboard-response","260","485001","0.0-1.0-344.0","0","0","29851","","null","","","null","38","","","","","","","","","","","","","","","",""
"","ISI","","html-keyboard-response","261","485507","0.0-1.0-345.0","0","0","29851","","null","","","null","38","NaN","","","","","","","","","","","","","","",""
"","S2","","html-keyboard-response","262","485761","0.0-1.0-346.0","0","0","29851","","null","","","null","38","","NaN","","","","","","","","","","","","","",""
"","response","","html-keyboard-response","263","486224","0.0-1.0-347.0-0.0","0","0","29851","","458","","","68","38","","","1","38","training","adjacent","CD","3","4","N.jpg","O.jpg","0","1","0","",""
"","feedback","","html-keyboard-response","264","487234","0.0-1.0-348.0-0.0","0","0","29851","","null","","","null","38","","","","","","","","","","","","","","","",""
"","time_out","","html-keyboard-response","265","489239","0.0-1.0-350.0-0.0","0","0","29851","","null","","","null","38","","","","","","","","","","","","","","","",""
"","ITI","","html-keyboard-response","266","490243","0.0-1.0-351.0","0","0","29851","","null","","","null","38","","","","","","","","","","","","","","","NaN",""
"","S1","","html-keyboard-response","267","490498","0.0-1.0-353.0","0","0","29851","","null","","","null","39","","","","","","","","","","","","","","","",""
"","ISI","","html-keyboard-response","268","491003","0.0-1.0-354.0","0","0","29851","","null","","","null","39","NaN","","","","","","","","","","","","","","",""
"","S2","","html-keyboard-response","269","491259","0.0-1.0-355.0","0","0","29851","","null","","","null","39","","NaN","","","","","","","","","","","","","",""
"","response","","html-keyboard-response","270","491975","0.0-1.0-356.0-0.0","0","0","29851","","712","","","68","39","","","1","39","training","adjacent","FE","6","5","P.jpg","L.jpg","0","0","1","",""
"","feedback","","html-keyboard-response","271","492980","0.0-1.0-357.0-0.0","0","0","29851","","null","","","null","39","","","","","","","","","","","","","","","",""
"","ITI","","html-keyboard-response","272","493986","0.0-1.0-360.0","0","0","29851","","null","","","null","39","","","","","","","","","","","","","","","NaN",""
"","S1","","html-keyboard-response","273","494241","0.0-1.0-362.0","0","0","29851","","null","","","null","40","","","","","","","","","","","","","","","",""
"","ISI","","html-keyboard-response","274","494745","0.0-1.0-363.0","0","0","29851","","null","","","null","40","NaN","","","","","","","","","","","","","","",""
"","S2","","html-keyboard-response","275","495010","0.0-1.0-364.0","0","0","29851","","null","","","null","40","","NaN","","","","","","","","","","","","","",""
"","response","","html-keyboard-response","276","495616","0.0-1.0-365.0-0.0","0","0","29851","","601","","","75","40","","","1","40","training","adjacent","AB","1","2","Q.jpg","M.jpg","1","1","1","",""
"","feedback","","html-keyboard-response","277","496621","0.0-1.0-366.0-0.0","0","0","29851","","null","","","null","40","","","","","","","","","","","","","","","",""
"","ITI","","html-keyboard-response","278","497626","0.0-1.0-369.0","0","0","29851","","null","","","null","40","","","","","","","","","","","","","","","NaN",""
"","S1","","html-keyboard-response","279","497881","0.0-1.0-371.0","0","0","29851","","null","","","null","41","","","","","","","","","","","","","","","",""
"","ISI","","html-keyboard-response","280","498385","0.0-1.0-372.0","0","0","29851","","null","","","null","41","NaN","","","","","","","","","","","","","","",""
"","S2","","html-keyboard-response","281","498640","0.0-1.0-373.0","0","0","29851","","null","","","null","41","","NaN","","","","","","","","","","","","","",""
"","response","","html-keyboard-response","282","499311","0.0-1.0-374.0-0.0","0","0","29851","","667","","","68","41","","","1","41","training","adjacent","FG","6","7","P.jpg","R.jpg","0","1","0","",""
"","feedback","","html-keyboard-response","283","500316","0.0-1.0-375.0-0.0","0","0","29851","","null","","","null","41","","","","","","","","","","","","","","","",""
"","time_out","","html-keyboard-response","284","502322","0.0-1.0-377.0-0.0","0","0","29851","","null","","","null","41","","","","","","","","","","","","","","","",""
"","ITI","","html-keyboard-response","285","503327","0.0-1.0-378.0","0","0","29851","","null","","","null","41","","","","","","","","","","","","","","","NaN",""
"","S1","","html-keyboard-response","286","503581","0.0-1.0-380.0","0","0","29851","","null","","","null","42","","","","","","","","","","","","","","","",""
"","ISI","","html-keyboard-response","287","504086","0.0-1.0-381.0","0","0","29851","","null","","","null","42","NaN","","","","","","","","","","","","","","",""
"","S2","","html-keyboard-response","288","504341","0.0-1.0-382.0","0","0","29851","","null","","","null","42","","NaN","","","","","","","","","","","","","",""
"","response","","html-keyboard-response","289","504855","0.0-1.0-383.0-0.0","0","0","29851","","510","","","75","42","","","1","42","training","adjacent","BC","2","3","M.jpg","N.jpg","1","1","1","",""
"","feedback","","html-keyboard-response","290","505861","0.0-1.0-384.0-0.0","0","0","29851","","null","","","null","42","","","","","","","","","","","","","","","",""
"","ITI","","html-keyboard-response","291","506867","0.0-1.0-387.0","0","0","29851","","null","","","null","42","","","","","","","","","","","","","","","NaN",""
"","S1","","html-keyboard-response","292","507124","0.0-1.0-389.0","0","0","29851","","null","","","null","43","","","","","","","","","","","","","","","",""
"","ISI","","html-keyboard-response","293","507635","0.0-1.0-390.0","0","0","29851","","null","","","null","43","NaN","","","","","","","","","","","","","","",""
"","S2","","html-keyboard-response","294","507892","0.0-1.0-391.0","0","0","29851","","null","","","null","43","","NaN","","","","","","","","","","","","","",""
"","response","","html-keyboard-response","295","508464","0.0-1.0-392.0-0.0","0","0","29851","","568","","","75","43","","","1","43","training","adjacent","FE","6","5","P.jpg","L.jpg","1","0","0","",""
"","feedback","","html-keyboard-response","296","509479","0.0-1.0-393.0-0.0","0","0","29851","","null","","","null","43","","","","","","","","","","","","","","","",""
"","time_out","","html-keyboard-response","297","511484","0.0-1.0-395.0-0.0","0","0","29851","","null","","","null","43","","","","","","","","","","","","","","","",""
"","ITI","","html-keyboard-response","298","512490","0.0-1.0-396.0","0","0","29851","","null","","","null","43","","","","","","","","","","","","","","","NaN",""
"","S1","","html-keyboard-response","299","512745","0.0-1.0-398.0","0","0","29851","","null","","","null","44","","","","","","","","","","","","","","","",""
"","ISI","","html-keyboard-response","300","513251","0.0-1.0-399.0","0","0","29851","","null","","","null","44","NaN","","","","","","","","","","","","","","",""
"","S2","","html-keyboard-response","301","513507","0.0-1.0-400.0","0","0","29851","","null","","","null","44","","NaN","","","","","","","","","","","","","",""
"","response","","html-keyboard-response","302","514079","0.0-1.0-401.0-0.0","0","0","29851","","568","","","68","44","","","1","44","training","adjacent","BA","2","1","M.jpg","Q.jpg","0","0","1","",""
"","feedback","","html-keyboard-response","303","515084","0.0-1.0-402.0-0.0","0","0","29851","","null","","","null","44","","","","","","","","","","","","","","","",""
"","ITI","","html-keyboard-response","304","516089","0.0-1.0-405.0","0","0","29851","","null","","","null","44","","","","","","","","","","","","","","","NaN",""
"","S1","","html-keyboard-response","305","516345","0.0-1.0-407.0","0","0","29851","","null","","","null","45","","","","","","","","","","","","","","","",""
"","ISI","","html-keyboard-response","306","516847","0.0-1.0-408.0","0","0","29851","","null","","","null","45","NaN","","","","","","","","","","","","","","",""
"","S2","","html-keyboard-response","307","517101","0.0-1.0-409.0","0","0","29851","","null","","","null","45","","NaN","","","","","","","","","","","","","",""
"","response","","html-keyboard-response","308","517631","0.0-1.0-410.0-0.0","0","0","29851","","526","","","75","45","","","1","45","training","adjacent","FG","6","7","P.jpg","R.jpg","1","1","1","",""
"","feedback","","html-keyboard-response","309","518636","0.0-1.0-411.0-0.0","0","0","29851","","null","","","null","45","","","","","","","","","","","","","","","",""
"","ITI","","html-keyboard-response","310","519641","0.0-1.0-414.0","0","0","29851","","null","","","null","45","","","","","","","","","","","","","","","NaN",""
"","S1","","html-keyboard-response","311","519895","0.0-1.0-416.0","0","0","29851","","null","","","null","46","","","","","","","","","","","","","","","",""
"","ISI","","html-keyboard-response","312","520399","0.0-1.0-417.0","0","0","29851","","null","","","null","46","NaN","","","","","","","","","","","","","","",""
"","S2","","html-keyboard-response","313","520654","0.0-1.0-418.0","0","0","29851","","null","","","null","46","","NaN","","","","","","","","","","","","","",""
"","response","","html-keyboard-response","314","521368","0.0-1.0-419.0-0.0","0","0","29851","","709","","","68","46","","","1","46","training","adjacent","BA","2","1","M.jpg","Q.jpg","0","0","1","",""
"","feedback","","html-keyboard-response","315","522373","0.0-1.0-420.0-0.0","0","0","29851","","null","","","null","46","","","","","","","","","","","","","","","",""
"","ITI","","html-keyboard-response","316","523380","0.0-1.0-423.0","0","0","29851","","null","","","null","46","","","","","","","","","","","","","","","NaN",""
"","S1","","html-keyboard-response","317","523635","0.0-1.0-425.0","0","0","29851","","null","","","null","47","","","","","","","","","","","","","","","",""
"","ISI","","html-keyboard-response","318","524140","0.0-1.0-426.0","0","0","29851","","null","","","null","47","NaN","","","","","","","","","","","","","","",""
"","S2","","html-keyboard-response","319","524395","0.0-1.0-427.0","0","0","29851","","null","","","null","47","","NaN","","","","","","","","","","","","","",""
"","response","","html-keyboard-response","320","525511","0.0-1.0-428.0-0.0","0","0","29851","","1112","","","75","47","","","1","47","training","adjacent","ED","5","4","L.jpg","O.jpg","1","0","0","",""
"","feedback","","html-keyboard-response","321","526517","0.0-1.0-429.0-0.0","0","0","29851","","null","","","null","47","","","","","","","","","","","","","","","",""
"","time_out","","html-keyboard-response","322","528522","0.0-1.0-431.0-0.0","0","0","29851","","null","","","null","47","","","","","","","","","","","","","","","",""
"","ITI","","html-keyboard-response","323","529527","0.0-1.0-432.0","0","0","29851","","null","","","null","47","","","","","","","","","","","","","","","NaN",""
"","block_over","","html-keyboard-response","324","536319","0.0-1.0-433.0-0.0","0","0","29851","","6787","","","32","47","","","","","","","","","","","","","","","",""
"","S1","","html-keyboard-response","325","536574","0.0-1.0-434.0","0","0","29851","","null","","","null","48","","","","","","","","","","","","","","","",""
"","ISI","","html-keyboard-response","326","537079","0.0-1.0-435.0","0","0","29851","","null","","","null","48","NaN","","","","","","","","","","","","","","",""
"","S2","","html-keyboard-response","327","537334","0.0-1.0-436.0","0","0","29851","","null","","","null","48","","NaN","","","","","","","","","","","","","",""
"","response","","html-keyboard-response","328","537797","0.0-1.0-437.0-0.0","0","0","29851","","459","","","75","48","","","2","48","training","adjacent","FG","6","7","P.jpg","R.jpg","1","1","1","",""
"","feedback","","html-keyboard-response","329","538801","0.0-1.0-438.0-0.0","0","0","29851","","null","","","null","48","","","","","","","","","","","","","","","",""
"","ITI","","html-keyboard-response","330","539806","0.0-1.0-441.0","0","0","29851","","null","","","null","48","","","","","","","","","","","","","","","NaN",""
"","S1","","html-keyboard-response","331","540061","0.0-1.0-443.0","0","0","29851","","null","","","null","49","","","","","","","","","","","","","","","",""
"","ISI","","html-keyboard-response","332","540565","0.0-1.0-444.0","0","0","29851","","null","","","null","49","NaN","","","","","","","","","","","","","","",""
"","S2","","html-keyboard-response","333","540820","0.0-1.0-445.0","0","0","29851","","null","","","null","49","","NaN","","","","","","","","","","","","","",""
"","response","","html-keyboard-response","334","541207","0.0-1.0-446.0-0.0","0","0","29851","","383","","","68","49","","","2","49","training","adjacent","EF","5","6","L.jpg","P.jpg","0","1","0","",""
"","feedback","","html-keyboard-response","335","542213","0.0-1.0-447.0-0.0","0","0","29851","","null","","","null","49","","","","","","","","","","","","","","","",""
"","time_out","","html-keyboard-response","336","544218","0.0-1.0-449.0-0.0","0","0","29851","","null","","","null","49","","","","","","","","","","","","","","","",""
"","ITI","","html-keyboard-response","337","545222","0.0-1.0-450.0","0","0","29851","","null","","","null","49","","","","","","","","","","","","","","","NaN",""
"","S1","","html-keyboard-response","338","545477","0.0-1.0-452.0","0","0","29851","","null","","","null","50","","","","","","","","","","","","","","","",""
"","ISI","","html-keyboard-response","339","545981","0.0-1.0-453.0","0","0","29851","","null","","","null","50","NaN","","","","","","","","","","","","","","",""
"","S2","","html-keyboard-response","340","546236","0.0-1.0-454.0","0","0","29851","","null","","","null","50","","NaN","","","","","","","","","","","","","",""
"","response","","html-keyboard-response","341","546956","0.0-1.0-455.0-0.0","0","0","29851","","718","","","68","50","","","2","50","training","adjacent","FE","6","5","P.jpg","L.jpg","0","0","1","",""
"","feedback","","html-keyboard-response","342","547961","0.0-1.0-456.0-0.0","0","0","29851","","null","","","null","50","","","","","","","","","","","","","","","",""
"","ITI","","html-keyboard-response","343","548966","0.0-1.0-459.0","0","0","29851","","null","","","null","50","","","","","","","","","","","","","","","NaN",""
"","S1","","html-keyboard-response","344","549221","0.0-1.0-461.0","0","0","29851","","null","","","null","51","","","","","","","","","","","","","","","",""
"","ISI","","html-keyboard-response","345","549725","0.0-1.0-462.0","0","0","29851","","null","","","null","51","NaN","","","","","","","","","","","","","","",""
"","S2","","html-keyboard-response","346","549981","0.0-1.0-463.0","0","0","29851","","null","","","null","51","","NaN","","","","","","","","","","","","","",""
"","response","","html-keyboard-response","347","550391","0.0-1.0-464.0-0.0","0","0","29851","","406","","","75","51","","","2","51","training","adjacent","GF","7","6","R.jpg","P.jpg","1","0","0","",""
"","feedback","","html-keyboard-response","348","551396","0.0-1.0-465.0-0.0","0","0","29851","","null","","","null","51","","","","","","","","","","","","","","","",""
"","time_out","","html-keyboard-response","349","553401","0.0-1.0-467.0-0.0","0","0","29851","","null","","","null","51","","","","","","","","","","","","","","","",""
"","ITI","","html-keyboard-response","350","554407","0.0-1.0-468.0","0","0","29851","","null","","","null","51","","","","","","","","","","","","","","","NaN",""
"","S1","","html-keyboard-response","351","554662","0.0-1.0-470.0","0","0","29851","","null","","","null","52","","","","","","","","","","","","","","","",""
"","ISI","","html-keyboard-response","352","555173","0.0-1.0-471.0","0","0","29851","","null","","","null","52","NaN","","","","","","","","","","","","","","",""
"","S2","","html-keyboard-response","353","555426","0.0-1.0-472.0","0","0","29851","","null","","","null","52","","NaN","","","","","","","","","","","","","",""
"","response","","html-keyboard-response","354","556015","0.0-1.0-473.0-0.0","0","0","29851","","586","","","68","52","","","2","52","training","adjacent","FE","6","5","P.jpg","L.jpg","0","0","1","",""
"","feedback","","html-keyboard-response","355","557021","0.0-1.0-474.0-0.0","0","0","29851","","null","","","null","52","","","","","","","","","","","","","","","",""
"","ITI","","html-keyboard-response","356","558027","0.0-1.0-477.0","0","0","29851","","null","","","null","52","","","","","","","","","","","","","","","NaN",""
"","S1","","html-keyboard-response","357","558281","0.0-1.0-479.0","0","0","29851","","null","","","null","53","","","","","","","","","","","","","","","",""
"","ISI","","html-keyboard-response","358","558786","0.0-1.0-480.0","0","0","29851","","null","","","null","53","NaN","","","","","","","","","","","","","","",""
"","S2","","html-keyboard-response","359","559041","0.0-1.0-481.0","0","0","29851","","null","","","null","53","","NaN","","","","","","","","","","","","","",""
"","response","","html-keyboard-response","360","559744","0.0-1.0-482.0-0.0","0","0","29851","","699","","","75","53","","","2","53","training","adjacent","BA","2","1","M.jpg","Q.jpg","1","0","0","",""
"","feedback","","html-keyboard-response","361","560749","0.0-1.0-483.0-0.0","0","0","29851","","null","","","null","53","","","","","","","","","","","","","","","",""
"","time_out","","html-keyboard-response","362","562754","0.0-1.0-485.0-0.0","0","0","29851","","null","","","null","53","","","","","","","","","","","","","","","",""
"","ITI","","html-keyboard-response","363","563759","0.0-1.0-486.0","0","0","29851","","null","","","null","53","","","","","","","","","","","","","","","NaN",""
"","S1","","html-keyboard-response","364","564014","0.0-1.0-488.0","0","0","29851","","null","","","null","54","","","","","","","","","","","","","","","",""
"","ISI","","html-keyboard-response","365","564519","0.0-1.0-489.0","0","0","29851","","null","","","null","54","NaN","","","","","","","","","","","","","","",""
"","S2","","html-keyboard-response","366","564775","0.0-1.0-490.0","0","0","29851","","null","","","null","54","","NaN","","","","","","","","","","","","","",""
"","response","","html-keyboard-response","367","565447","0.0-1.0-491.0-0.0","0","0","29851","","668","","","75","54","","","2","54","training","adjacent","CD","3","4","N.jpg","O.jpg","1","1","1","",""
"","feedback","","html-keyboard-response","368","566452","0.0-1.0-492.0-0.0","0","0","29851","","null","","","null","54","","","","","","","","","","","","","","","",""
"","ITI","","html-keyboard-response","369","567456","0.0-1.0-495.0","0","0","29851","","null","","","null","54","","","","","","","","","","","","","","","NaN",""
"","S1","","html-keyboard-response","370","567713","0.0-1.0-497.0","0","0","29851","","null","","","null","55","","","","","","","","","","","","","","","",""
"","ISI","","html-keyboard-response","371","568217","0.0-1.0-498.0","0","0","29851","","null","","","null","55","NaN","","","","","","","","","","","","","","",""
"","S2","","html-keyboard-response","372","568470","0.0-1.0-499.0","0","0","29851","","null","","","null","55","","NaN","","","","","","","","","","","","","",""
"","response","","html-keyboard-response","373","568919","0.0-1.0-500.0-0.0","0","0","29851","","447","","","75","55","","","2","55","training","adjacent","CD","3","4","N.jpg","O.jpg","1","1","1","",""
"","feedback","","html-keyboard-response","374","569926","0.0-1.0-501.0-0.0","0","0","29851","","null","","","null","55","","","","","","","","","","","","","","","",""
"","ITI","","html-keyboard-response","375","570932","0.0-1.0-504.0","0","0","29851","","null","","","null","55","","","","","","","","","","","","","","","NaN",""
"","S1","","html-keyboard-response","376","571187","0.0-1.0-506.0","0","0","29851","","null","","","null","56","","","","","","","","","","","","","","","",""
"","ISI","","html-keyboard-response","377","571691","0.0-1.0-507.0","0","0","29851","","null","","","null","56","NaN","","","","","","","","","","","","","","",""
"","S2","","html-keyboard-response","378","571946","0.0-1.0-508.0","0","0","29851","","null","","","null","56","","NaN","","","","","","","","","","","","","",""
"","response","","html-keyboard-response","379","572416","0.0-1.0-509.0-0.0","0","0","29851","","466","","","68","56","","","2","56","training","adjacent","DE","4","5","O.jpg","L.jpg","0","1","0","",""
"","feedback","","html-keyboard-response","380","573421","0.0-1.0-510.0-0.0","0","0","29851","","null","","","null","56","","","","","","","","","","","","","","","",""
"","time_out","","html-keyboard-response","381","575426","0.0-1.0-512.0-0.0","0","0","29851","","null","","","null","56","","","","","","","","","","","","","","","",""
"","ITI","","html-keyboard-response","382","576440","0.0-1.0-513.0","0","0","29851","","null","","","null","56","","","","","","","","","","","","","","","NaN",""
"","S1","","html-keyboard-response","383","576695","0.0-1.0-515.0","0","0","29851","","null","","","null","57","","","","","","","","","","","","","","","",""
"","ISI","","html-keyboard-response","384","577199","0.0-1.0-516.0","0","0","29851","","null","","","null","57","NaN","","","","","","","","","","","","","","",""
"","S2","","html-keyboard-response","385","577453","0.0-1.0-517.0","0","0","29851","","null","","","null","57","","NaN","","","","","","","","","","","","","",""
"","response","","html-keyboard-response","386","577959","0.0-1.0-518.0-0.0","0","0","29851","","503","","","75","57","","","2","57","training","adjacent","DE","4","5","O.jpg","L.jpg","1","1","1","",""
"","feedback","","html-keyboard-response","387","578966","0.0-1.0-519.0-0.0","0","0","29851","","null","","","null","57","","","","","","","","","","","","","","","",""
"","ITI","","html-keyboard-response","388","579970","0.0-1.0-522.0","0","0","29851","","null","","","null","57","","","","","","","","","","","","","","","NaN",""
"","S1","","html-keyboard-response","389","580226","0.0-1.0-524.0","0","0","29851","","null","","","null","58","","","","","","","","","","","","","","","",""
"","ISI","","html-keyboard-response","390","580729","0.0-1.0-525.0","0","0","29851","","null","","","null","58","NaN","","","","","","","","","","","","","","",""
"","S2","","html-keyboard-response","391","580985","0.0-1.0-526.0","0","0","29851","","null","","","null","58","","NaN","","","","","","","","","","","","","",""
"","response","","html-keyboard-response","392","581703","0.0-1.0-527.0-0.0","0","0","29851","","713","","","68","58","","","2","58","training","adjacent","AB","1","2","Q.jpg","M.jpg","0","1","0","",""
"","feedback","","html-keyboard-response","393","582709","0.0-1.0-528.0-0.0","0","0","29851","","null","","","null","58","","","","","","","","","","","","","","","",""
"","time_out","","html-keyboard-response","394","584715","0.0-1.0-530.0-0.0","0","0","29851","","null","","","null","58","","","","","","","","","","","","","","","",""
"","ITI","","html-keyboard-response","395","585719","0.0-1.0-531.0","0","0","29851","","null","","","null","58","","","","","","","","","","","","","","","NaN",""
"","S1","","html-keyboard-response","396","585974","0.0-1.0-533.0","0","0","29851","","null","","","null","59","","","","","","","","","","","","","","","",""
"","ISI","","html-keyboard-response","397","586478","0.0-1.0-534.0","0","0","29851","","null","","","null","59","NaN","","","","","","","","","","","","","","",""
"","S2","","html-keyboard-response","398","586733","0.0-1.0-535.0","0","0","29851","","null","","","null","59","","NaN","","","","","","","","","","","","","",""
"","response","","html-keyboard-response","399","587408","0.0-1.0-536.0-0.0","0","0","29851","","671","","","68","59","","","2","59","training","adjacent","DC","4","3","O.jpg","N.jpg","0","0","1","",""
"","feedback","","html-keyboard-response","400","588412","0.0-1.0-537.0-0.0","0","0","29851","","null","","","null","59","","","","","","","","","","","","","","","",""
"","ITI","","html-keyboard-response","401","589416","0.0-1.0-540.0","0","0","29851","","null","","","null","59","","","","","","","","","","","","","","","NaN",""
"","S1","","html-keyboard-response","402","589670","0.0-1.0-542.0","0","0","29851","","null","","","null","60","","","","","","","","","","","","","","","",""
"","ISI","","html-keyboard-response","403","590174","0.0-1.0-543.0","0","0","29851","","null","","","null","60","NaN","","","","","","","","","","","","","","",""
"","S2","","html-keyboard-response","404","590429","0.0-1.0-544.0","0","0","29851","","null","","","null","60","","NaN","","","","","","","","","","","","","",""
"","response","","html-keyboard-response","405","590943","0.0-1.0-545.0-0.0","0","0","29851","","510","","","75","60","","","2","60","training","adjacent","ED","5","4","L.jpg","O.jpg","1","0","0","",""
"","feedback","","html-keyboard-response","406","591949","0.0-1.0-546.0-0.0","0","0","29851","","null","","","null","60","","","","","","","","","","","","","","","",""
"","time_out","","html-keyboard-response","407","593955","0.0-1.0-548.0-0.0","0","0","29851","","null","","","null","60","","","","","","","","","","","","","","","",""
"","ITI","","html-keyboard-response","408","594960","0.0-1.0-549.0","0","0","29851","","null","","","null","60","","","","","","","","","","","","","","","NaN",""
"","S1","","html-keyboard-response","409","595214","0.0-1.0-551.0","0","0","29851","","null","","","null","61","","","","","","","","","","","","","","","",""
"","ISI","","html-keyboard-response","410","595719","0.0-1.0-552.0","0","0","29851","","null","","","null","61","NaN","","","","","","","","","","","","","","",""
"","S2","","html-keyboard-response","411","595973","0.0-1.0-553.0","0","0","29851","","null","","","null","61","","NaN","","","","","","","","","","","","","",""
"","response","","html-keyboard-response","412","596367","0.0-1.0-554.0-0.0","0","0","29851","","389","","","75","61","","","2","61","training","adjacent","CB","3","2","N.jpg","M.jpg","1","0","0","",""
"","feedback","","html-keyboard-response","413","597374","0.0-1.0-555.0-0.0","0","0","29851","","null","","","null","61","","","","","","","","","","","","","","","",""
"","time_out","","html-keyboard-response","414","599378","0.0-1.0-557.0-0.0","0","0","29851","","null","","","null","61","","","","","","","","","","","","","","","",""
"","ITI","","html-keyboard-response","415","600382","0.0-1.0-558.0","0","0","29851","","null","","","null","61","","","","","","","","","","","","","","","NaN",""
"","S1","","html-keyboard-response","416","600635","0.0-1.0-560.0","0","0","29851","","null","","","null","62","","","","","","","","","","","","","","","",""
"","ISI","","html-keyboard-response","417","601141","0.0-1.0-561.0","0","0","29851","","null","","","null","62","NaN","","","","","","","","","","","","","","",""
"","S2","","html-keyboard-response","418","601396","0.0-1.0-562.0","0","0","29851","","null","","","null","62","","NaN","","","","","","","","","","","","","",""
"","response","","html-keyboard-response","419","601911","0.0-1.0-563.0-0.0","0","0","29851","","511","","","68","62","","","2","62","training","adjacent","CB","3","2","N.jpg","M.jpg","0","0","1","",""
"","feedback","","html-keyboard-response","420","602918","0.0-1.0-564.0-0.0","0","0","29851","","null","","","null","62","","","","","","","","","","","","","","","",""
"","ITI","","html-keyboard-response","421","603924","0.0-1.0-567.0","0","0","29851","","null","","","null","62","","","","","","","","","","","","","","","NaN",""
"","S1","","html-keyboard-response","422","604179","0.0-1.0-569.0","0","0","29851","","null","","","null","63","","","","","","","","","","","","","","","",""
"","ISI","","html-keyboard-response","423","604683","0.0-1.0-570.0","0","0","29851","","null","","","null","63","NaN","","","","","","","","","","","","","","",""
"","S2","","html-keyboard-response","424","604937","0.0-1.0-571.0","0","0","29851","","null","","","null","63","","NaN","","","","","","","","","","","","","",""
"","response","","html-keyboard-response","425","605447","0.0-1.0-572.0-0.0","0","0","29851","","506","","","68","63","","","2","63","training","adjacent","BC","2","3","M.jpg","N.jpg","0","1","0","",""
"","feedback","","html-keyboard-response","426","606452","0.0-1.0-573.0-0.0","0","0","29851","","null","","","null","63","","","","","","","","","","","","","","","",""
"","time_out","","html-keyboard-response","427","608458","0.0-1.0-575.0-0.0","0","0","29851","","null","","","null","63","","","","","","","","","","","","","","","",""
"","ITI","","html-keyboard-response","428","609461","0.0-1.0-576.0","0","0","29851","","null","","","null","63","","","","","","","","","","","","","","","NaN",""
"","S1","","html-keyboard-response","429","609715","0.0-1.0-578.0","0","0","29851","","null","","","null","64","","","","","","","","","","","","","","","",""
"","ISI","","html-keyboard-response","430","610219","0.0-1.0-579.0","0","0","29851","","null","","","null","64","NaN","","","","","","","","","","","","","","",""
"","S2","","html-keyboard-response","431","610472","0.0-1.0-580.0","0","0","29851","","null","","","null","64","","NaN","","","","","","","","","","","","","",""
"","response","","html-keyboard-response","432","611015","0.0-1.0-581.0-0.0","0","0","29851","","539","","","75","64","","","2","64","training","adjacent","BC","2","3","M.jpg","N.jpg","1","1","1","",""
"","feedback","","html-keyboard-response","433","612021","0.0-1.0-582.0-0.0","0","0","29851","","null","","","null","64","","","","","","","","","","","","","","","",""
"","ITI","","html-keyboard-response","434","613026","0.0-1.0-585.0","0","0","29851","","null","","","null","64","","","","","","","","","","","","","","","NaN",""
"","S1","","html-keyboard-response","435","613281","0.0-1.0-587.0","0","0","29851","","null","","","null","65","","","","","","","","","","","","","","","",""
"","ISI","","html-keyboard-response","436","613785","0.0-1.0-588.0","0","0","29851","","null","","","null","65","NaN","","","","","","","","","","","","","","",""
"","S2","","html-keyboard-response","437","614041","0.0-1.0-589.0","0","0","29851","","null","","","null","65","","NaN","","","","","","","","","","","","","",""
"","response","","html-keyboard-response","438","614656","0.0-1.0-590.0-0.0","0","0","29851","","610","","","68","65","","","2","65","training","adjacent","DE","4","5","O.jpg","L.jpg","0","1","0","",""
"","feedback","","html-keyboard-response","439","615662","0.0-1.0-591.0-0.0","0","0","29851","","null","","","null","65","","","","","","","","","","","","","","","",""
"","time_out","","html-keyboard-response","440","617666","0.0-1.0-593.0-0.0","0","0","29851","","null","","","null","65","","","","","","","","","","","","","","","",""
"","ITI","","html-keyboard-response","441","618671","0.0-1.0-594.0","0","0","29851","","null","","","null","65","","","","","","","","","","","","","","","NaN",""
"","S1","","html-keyboard-response","442","618940","0.0-1.0-596.0","0","0","29851","","null","","","null","66","","","","","","","","","","","","","","","",""
"","ISI","","html-keyboard-response","443","619444","0.0-1.0-597.0","0","0","29851","","null","","","null","66","NaN","","","","","","","","","","","","","","",""
"","S2","","html-keyboard-response","444","619699","0.0-1.0-598.0","0","0","29851","","null","","","null","66","","NaN","","","","","","","","","","","","","",""
"","response","","html-keyboard-response","445","620375","0.0-1.0-599.0-0.0","0","0","29851","","672","","","68","66","","","2","66","training","adjacent","FE","6","5","P.jpg","L.jpg","0","0","1","",""
"","feedback","","html-keyboard-response","446","621378","0.0-1.0-600.0-0.0","0","0","29851","","null","","","null","66","","","","","","","","","","","","","","","",""
"","ITI","","html-keyboard-response","447","622382","0.0-1.0-603.0","0","0","29851","","null","","","null","66","","","","","","","","","","","","","","","NaN",""
"","S1","","html-keyboard-response","448","622637","0.0-1.0-605.0","0","0","29851","","null","","","null","67","","","","","","","","","","","","","","","",""
"","ISI","","html-keyboard-response","449","623141","0.0-1.0-606.0","0","0","29851","","null","","","null","67","NaN","","","","","","","","","","","","","","",""
"","S2","","html-keyboard-response","450","623396","0.0-1.0-607.0","0","0","29851","","null","","","null","67","","NaN","","","","","","","","","","","","","",""
"","response","","html-keyboard-response","451","623846","0.0-1.0-608.0-0.0","0","0","29851","","446","","","75","67","","","2","67","training","adjacent","DC","4","3","O.jpg","N.jpg","1","0","0","",""
"","feedback","","html-keyboard-response","452","624850","0.0-1.0-609.0-0.0","0","0","29851","","null","","","null","67","","","","","","","","","","","","","","","",""
"","time_out","","html-keyboard-response","453","626854","0.0-1.0-611.0-0.0","0","0","29851","","null","","","null","67","","","","","","","","","","","","","","","",""
"","ITI","","html-keyboard-response","454","627859","0.0-1.0-612.0","0","0","29851","","null","","","null","67","","","","","","","","","","","","","","","NaN",""
"","S1","","html-keyboard-response","455","628114","0.0-1.0-614.0","0","0","29851","","null","","","null","68","","","","","","","","","","","","","","","",""
"","ISI","","html-keyboard-response","456","628618","0.0-1.0-615.0","0","0","29851","","null","","","null","68","NaN","","","","","","","","","","","","","","",""
"","S2","","html-keyboard-response","457","628874","0.0-1.0-616.0","0","0","29851","","null","","","null","68","","NaN","","","","","","","","","","","","","",""
"","response","","html-keyboard-response","458","629447","0.0-1.0-617.0-0.0","0","0","29851","","569","","","75","68","","","2","68","training","adjacent","CD","3","4","N.jpg","O.jpg","1","1","1","",""
"","feedback","","html-keyboard-response","459","630450","0.0-1.0-618.0-0.0","0","0","29851","","null","","","null","68","","","","","","","","","","","","","","","",""
"","ITI","","html-keyboard-response","460","631453","0.0-1.0-621.0","0","0","29851","","null","","","null","68","","","","","","","","","","","","","","","NaN",""
"","S1","","html-keyboard-response","461","631707","0.0-1.0-623.0","0","0","29851","","null","","","null","69","","","","","","","","","","","","","","","",""
"","ISI","","html-keyboard-response","462","632212","0.0-1.0-624.0","0","0","29851","","null","","","null","69","NaN","","","","","","","","","","","","","","",""
"","S2","","html-keyboard-response","463","632467","0.0-1.0-625.0","0","0","29851","","null","","","null","69","","NaN","","","","","","","","","","","","","",""
"","response","","html-keyboard-response","464","632982","0.0-1.0-626.0-0.0","0","0","29851","","511","","","68","69","","","2","69","training","adjacent","ED","5","4","L.jpg","O.jpg","0","0","1","",""
"","feedback","","html-keyboard-response","465","633987","0.0-1.0-627.0-0.0","0","0","29851","","null","","","null","69","","","","","","","","","","","","","","","",""
"","ITI","","html-keyboard-response","466","634992","0.0-1.0-630.0","0","0","29851","","null","","","null","69","","","","","","","","","","","","","","","NaN",""
"","S1","","html-keyboard-response","467","635250","0.0-1.0-632.0","0","0","29851","","null","","","null","70","","","","","","","","","","","","","","","",""
"","ISI","","html-keyboard-response","468","635754","0.0-1.0-633.0","0","0","29851","","null","","","null","70","NaN","","","","","","","","","","","","","","",""
"","S2","","html-keyboard-response","469","636009","0.0-1.0-634.0","0","0","29851","","null","","","null","70","","NaN","","","","","","","","","","","","","",""
"","response","","html-keyboard-response","470","636620","0.0-1.0-635.0-0.0","0","0","29851","","609","","","68","70","","","2","70","training","adjacent","BA","2","1","M.jpg","Q.jpg","0","0","1","",""
"","feedback","","html-keyboard-response","471","637624","0.0-1.0-636.0-0.0","0","0","29851","","null","","","null","70","","","","","","","","","","","","","","","",""
"","ITI","","html-keyboard-response","472","638629","0.0-1.0-639.0","0","0","29851","","null","","","null","70","","","","","","","","","","","","","","","NaN",""
"","S1","","html-keyboard-response","473","638884","0.0-1.0-641.0","0","0","29851","","null","","","null","71","","","","","","","","","","","","","","","",""
"","ISI","","html-keyboard-response","474","639389","0.0-1.0-642.0","0","0","29851","","null","","","null","71","NaN","","","","","","","","","","","","","","",""
"","S2","","html-keyboard-response","475","639644","0.0-1.0-643.0","0","0","29851","","null","","","null","71","","NaN","","","","","","","","","","","","","",""
"","response","","html-keyboard-response","476","640167","0.0-1.0-644.0-0.0","0","0","29851","","518","","","75","71","","","2","71","training","adjacent","CB","3","2","N.jpg","M.jpg","1","0","0","",""
"","feedback","","html-keyboard-response","477","641172","0.0-1.0-645.0-0.0","0","0","29851","","null","","","null","71","","","","","","","","","","","","","","","",""
"","time_out","","html-keyboard-response","478","643176","0.0-1.0-647.0-0.0","0","0","29851","","null","","","null","71","","","","","","","","","","","","","","","",""
"","ITI","","html-keyboard-response","479","644181","0.0-1.0-648.0","0","0","29851","","null","","","null","71","","","","","","","","","","","","","","","NaN",""
"","S1","","html-keyboard-response","480","644436","0.0-1.0-650.0","0","0","29851","","null","","","null","72","","","","","","","","","","","","","","","",""
"","ISI","","html-keyboard-response","481","644940","0.0-1.0-651.0","0","0","29851","","null","","","null","72","NaN","","","","","","","","","","","","","","",""
"","S2","","html-keyboard-response","482","645196","0.0-1.0-652.0","0","0","29851","","null","","","null","72","","NaN","","","","","","","","","","","","","",""
"","response","","html-keyboard-response","483","645839","0.0-1.0-653.0-0.0","0","0","29851","","638","","","68","72","","","2","72","training","adjacent","FG","6","7","P.jpg","R.jpg","0","1","0","",""
"","feedback","","html-keyboard-response","484","646844","0.0-1.0-654.0-0.0","0","0","29851","","null","","","null","72","","","","","","","","","","","","","","","",""
"","time_out","","html-keyboard-response","485","648849","0.0-1.0-656.0-0.0","0","0","29851","","null","","","null","72","","","","","","","","","","","","","","","",""
"","ITI","","html-keyboard-response","486","649854","0.0-1.0-657.0","0","0","29851","","null","","","null","72","","","","","","","","","","","","","","","NaN",""
"","S1","","html-keyboard-response","487","650109","0.0-1.0-659.0","0","0","29851","","null","","","null","73","","","","","","","","","","","","","","","",""
"","ISI","","html-keyboard-response","488","650614","0.0-1.0-660.0","0","0","29851","","null","","","null","73","NaN","","","","","","","","","","","","","","",""
"","S2","","html-keyboard-response","489","650869","0.0-1.0-661.0","0","0","29851","","null","","","null","73","","NaN","","","","","","","","","","","","","",""
"","response","","html-keyboard-response","490","651566","0.0-1.0-662.0-0.0","0","0","29851","","693","","","75","73","","","2","73","training","adjacent","CD","3","4","N.jpg","O.jpg","1","1","1","",""
"","feedback","","html-keyboard-response","491","652571","0.0-1.0-663.0-0.0","0","0","29851","","null","","","null","73","","","","","","","","","","","","","","","",""
"","ITI","","html-keyboard-response","492","653576","0.0-1.0-666.0","0","0","29851","","null","","","null","73","","","","","","","","","","","","","","","NaN",""
"","S1","","html-keyboard-response","493","653831","0.0-1.0-668.0","0","0","29851","","null","","","null","74","","","","","","","","","","","","","","","",""
"","ISI","","html-keyboard-response","494","654336","0.0-1.0-669.0","0","0","29851","","null","","","null","74","NaN","","","","","","","","","","","","","","",""
"","S2","","html-keyboard-response","495","654593","0.0-1.0-670.0","0","0","29851","","null","","","null","74","","NaN","","","","","","","","","","","","","",""
"","response","","html-keyboard-response","496","655247","0.0-1.0-671.0-0.0","0","0","29851","","649","","","75","74","","","2","74","training","adjacent","FG","6","7","P.jpg","R.jpg","1","1","1","",""
"","feedback","","html-keyboard-response","497","656254","0.0-1.0-672.0-0.0","0","0","29851","","null","","","null","74","","","","","","","","","","","","","","","",""
"","ITI","","html-keyboard-response","498","657262","0.0-1.0-675.0","0","0","29851","","null","","","null","74","","","","","","","","","","","","","","","NaN",""
"","S1","","html-keyboard-response","499","657516","0.0-1.0-677.0","0","0","29851","","null","","","null","75","","","","","","","","","","","","","","","",""
"","ISI","","html-keyboard-response","500","658021","0.0-1.0-678.0","0","0","29851","","null","","","null","75","NaN","","","","","","","","","","","","","","",""
"","S2","","html-keyboard-response","501","658276","0.0-1.0-679.0","0","0","29851","","null","","","null","75","","NaN","","","","","","","","","","","","","",""
"","response","","html-keyboard-response","502","658774","0.0-1.0-680.0-0.0","0","0","29851","","493","","","68","75","","","2","75","training","adjacent","DC","4","3","O.jpg","N.jpg","0","0","1","",""
"","feedback","","html-keyboard-response","503","659779","0.0-1.0-681.0-0.0","0","0","29851","","null","","","null","75","","","","","","","","","","","","","","","",""
"","ITI","","html-keyboard-response","504","660785","0.0-1.0-684.0","0","0","29851","","null","","","null","75","","","","","","","","","","","","","","","NaN",""
"","S1","","html-keyboard-response","505","661039","0.0-1.0-686.0","0","0","29851","","null","","","null","76","","","","","","","","","","","","","","","",""
"","ISI","","html-keyboard-response","506","661543","0.0-1.0-687.0","0","0","29851","","null","","","null","76","NaN","","","","","","","","","","","","","","",""
"","S2","","html-keyboard-response","507","661798","0.0-1.0-688.0","0","0","29851","","null","","","null","76","","NaN","","","","","","","","","","","","","",""
"","response","","html-keyboard-response","508","662383","0.0-1.0-689.0-0.0","0","0","29851","","581","","","75","76","","","2","76","training","adjacent","DE","4","5","O.jpg","L.jpg","1","1","1","",""
"","feedback","","html-keyboard-response","509","663388","0.0-1.0-690.0-0.0","0","0","29851","","null","","","null","76","","","","","","","","","","","","","","","",""
"","ITI","","html-keyboard-response","510","664391","0.0-1.0-693.0","0","0","29851","","null","","","null","76","","","","","","","","","","","","","","","NaN",""
"","S1","","html-keyboard-response","511","664645","0.0-1.0-695.0","0","0","29851","","null","","","null","77","","","","","","","","","","","","","","","",""
"","ISI","","html-keyboard-response","512","665150","0.0-1.0-696.0","0","0","29851","","null","","","null","77","NaN","","","","","","","","","","","","","","",""
"","S2","","html-keyboard-response","513","665406","0.0-1.0-697.0","0","0","29851","","null","","","null","77","","NaN","","","","","","","","","","","","","",""
"","response","","html-keyboard-response","514","666038","0.0-1.0-698.0-0.0","0","0","29851","","628","","","75","77","","","2","77","training","adjacent","GF","7","6","R.jpg","P.jpg","1","0","0","",""
"","feedback","","html-keyboard-response","515","667043","0.0-1.0-699.0-0.0","0","0","29851","","null","","","null","77","","","","","","","","","","","","","","","",""
"","time_out","","html-keyboard-response","516","669048","0.0-1.0-701.0-0.0","0","0","29851","","null","","","null","77","","","","","","","","","","","","","","","",""
"","ITI","","html-keyboard-response","517","670053","0.0-1.0-702.0","0","0","29851","","null","","","null","77","","","","","","","","","","","","","","","NaN",""
"","S1","","html-keyboard-response","518","670312","0.0-1.0-704.0","0","0","29851","","null","","","null","78","","","","","","","","","","","","","","","",""
"","ISI","","html-keyboard-response","519","670816","0.0-1.0-705.0","0","0","29851","","null","","","null","78","NaN","","","","","","","","","","","","","","",""
"","S2","","html-keyboard-response","520","671071","0.0-1.0-706.0","0","0","29851","","null","","","null","78","","NaN","","","","","","","","","","","","","",""
"","response","","html-keyboard-response","521","671534","0.0-1.0-707.0-0.0","0","0","29851","","460","","","68","78","","","2","78","training","adjacent","CB","3","2","N.jpg","M.jpg","0","0","1","",""
"","feedback","","html-keyboard-response","522","672539","0.0-1.0-708.0-0.0","0","0","29851","","null","","","null","78","","","","","","","","","","","","","","","",""
"","ITI","","html-keyboard-response","523","673545","0.0-1.0-711.0","0","0","29851","","null","","","null","78","","","","","","","","","","","","","","","NaN",""
"","S1","","html-keyboard-response","524","673799","0.0-1.0-713.0","0","0","29851","","null","","","null","79","","","","","","","","","","","","","","","",""
"","ISI","","html-keyboard-response","525","674303","0.0-1.0-714.0","0","0","29851","","null","","","null","79","NaN","","","","","","","","","","","","","","",""
"","S2","","html-keyboard-response","526","674559","0.0-1.0-715.0","0","0","29851","","null","","","null","79","","NaN","","","","","","","","","","","","","",""
"","response","","html-keyboard-response","527","675703","0.0-1.0-716.0-0.0","0","0","29851","","1140","","","75","79","","","2","79","training","adjacent","AB","1","2","Q.jpg","M.jpg","1","1","1","",""
"","feedback","","html-keyboard-response","528","676707","0.0-1.0-717.0-0.0","0","0","29851","","null","","","null","79","","","","","","","","","","","","","","","",""
"","ITI","","html-keyboard-response","529","677712","0.0-1.0-720.0","0","0","29851","","null","","","null","79","","","","","","","","","","","","","","","NaN",""
"","S1","","html-keyboard-response","530","677967","0.0-1.0-722.0","0","0","29851","","null","","","null","80","","","","","","","","","","","","","","","",""
"","ISI","","html-keyboard-response","531","678472","0.0-1.0-723.0","0","0","29851","","null","","","null","80","NaN","","","","","","","","","","","","","","",""
"","S2","","html-keyboard-response","532","678725","0.0-1.0-724.0","0","0","29851","","null","","","null","80","","NaN","","","","","","","","","","","","","",""
"","response","","html-keyboard-response","533","679334","0.0-1.0-725.0-0.0","0","0","29851","","605","","","68","80","","","2","80","training","adjacent","BC","2","3","M.jpg","N.jpg","0","1","0","",""
"","feedback","","html-keyboard-response","534","680340","0.0-1.0-726.0-0.0","0","0","29851","","null","","","null","80","","","","","","","","","","","","","","","",""
"","time_out","","html-keyboard-response","535","682343","0.0-1.0-728.0-0.0","0","0","29851","","null","","","null","80","","","","","","","","","","","","","","","",""
"","ITI","","html-keyboard-response","536","683348","0.0-1.0-729.0","0","0","29851","","null","","","null","80","","","","","","","","","","","","","","","NaN",""
"","S1","","html-keyboard-response","537","683603","0.0-1.0-731.0","0","0","29851","","null","","","null","81","","","","","","","","","","","","","","","",""
"","ISI","","html-keyboard-response","538","684108","0.0-1.0-732.0","0","0","29851","","null","","","null","81","NaN","","","","","","","","","","","","","","",""
"","S2","","html-keyboard-response","539","684364","0.0-1.0-733.0","0","0","29851","","null","","","null","81","","NaN","","","","","","","","","","","","","",""
"","response","","html-keyboard-response","540","684830","0.0-1.0-734.0-0.0","0","0","29851","","463","","","75","81","","","2","81","training","adjacent","GF","7","6","R.jpg","P.jpg","1","0","0","",""
"","feedback","","html-keyboard-response","541","685836","0.0-1.0-735.0-0.0","0","0","29851","","null","","","null","81","","","","","","","","","","","","","","","",""
"","time_out","","html-keyboard-response","542","687842","0.0-1.0-737.0-0.0","0","0","29851","","null","","","null","81","","","","","","","","","","","","","","","",""
"","ITI","","html-keyboard-response","543","688846","0.0-1.0-738.0","0","0","29851","","null","","","null","81","","","","","","","","","","","","","","","NaN",""
"","S1","","html-keyboard-response","544","689101","0.0-1.0-740.0","0","0","29851","","null","","","null","82","","","","","","","","","","","","","","","",""
"","ISI","","html-keyboard-response","545","689606","0.0-1.0-741.0","0","0","29851","","null","","","null","82","NaN","","","","","","","","","","","","","","",""
"","S2","","html-keyboard-response","546","689861","0.0-1.0-742.0","0","0","29851","","null","","","null","82","","NaN","","","","","","","","","","","","","",""
"","response","","html-keyboard-response","547","690516","0.0-1.0-743.0-0.0","0","0","29851","","653","","","68","82","","","2","82","training","adjacent","FE","6","5","P.jpg","L.jpg","0","0","1","",""
"","feedback","","html-keyboard-response","548","691521","0.0-1.0-744.0-0.0","0","0","29851","","null","","","null","82","","","","","","","","","","","","","","","",""
"","ITI","","html-keyboard-response","549","692525","0.0-1.0-747.0","0","0","29851","","null","","","null","82","","","","","","","","","","","","","","","NaN",""
"","S1","","html-keyboard-response","550","692780","0.0-1.0-749.0","0","0","29851","","null","","","null","83","","","","","","","","","","","","","","","",""
"","ISI","","html-keyboard-response","551","693285","0.0-1.0-750.0","0","0","29851","","null","","","null","83","NaN","","","","","","","","","","","","","","",""
"","S2","","html-keyboard-response","552","693540","0.0-1.0-751.0","0","0","29851","","null","","","null","83","","NaN","","","","","","","","","","","","","",""
"","response","","html-keyboard-response","553","694022","0.0-1.0-752.0-0.0","0","0","29851","","479","","","75","83","","","2","83","training","adjacent","ED","5","4","L.jpg","O.jpg","1","0","0","",""
"","feedback","","html-keyboard-response","554","695029","0.0-1.0-753.0-0.0","0","0","29851","","null","","","null","83","","","","","","","","","","","","","","","",""
"","time_out","","html-keyboard-response","555","697033","0.0-1.0-755.0-0.0","0","0","29851","","null","","","null","83","","","","","","","","","","","","","","","",""
"","ITI","","html-keyboard-response","556","698038","0.0-1.0-756.0","0","0","29851","","null","","","null","83","","","","","","","","","","","","","","","NaN",""
"","S1","","html-keyboard-response","557","698293","0.0-1.0-758.0","0","0","29851","","null","","","null","84","","","","","","","","","","","","","","","",""
"","ISI","","html-keyboard-response","558","698798","0.0-1.0-759.0","0","0","29851","","null","","","null","84","NaN","","","","","","","","","","","","","","",""
"","S2","","html-keyboard-response","559","699052","0.0-1.0-760.0","0","0","29851","","null","","","null","84","","NaN","","","","","","","","","","","","","",""
"","response","","html-keyboard-response","560","699590","0.0-1.0-761.0-0.0","0","0","29851","","534","","","68","84","","","2","84","training","adjacent","FG","6","7","P.jpg","R.jpg","0","1","0","",""
"","feedback","","html-keyboard-response","561","700596","0.0-1.0-762.0-0.0","0","0","29851","","null","","","null","84","","","","","","","","","","","","","","","",""
"","time_out","","html-keyboard-response","562","702602","0.0-1.0-764.0-0.0","0","0","29851","","null","","","null","84","","","","","","","","","","","","","","","",""
"","ITI","","html-keyboard-response","563","703606","0.0-1.0-765.0","0","0","29851","","null","","","null","84","","","","","","","","","","","","","","","NaN",""
"","S1","","html-keyboard-response","564","703861","0.0-1.0-767.0","0","0","29851","","null","","","null","85","","","","","","","","","","","","","","","",""
"","ISI","","html-keyboard-response","565","704365","0.0-1.0-768.0","0","0","29851","","null","","","null","85","NaN","","","","","","","","","","","","","","",""
"","S2","","html-keyboard-response","566","704621","0.0-1.0-769.0","0","0","29851","","null","","","null","85","","NaN","","","","","","","","","","","","","",""
"","response","","html-keyboard-response","567","705182","0.0-1.0-770.0-0.0","0","0","29851","","557","","","68","85","","","2","85","training","adjacent","BA","2","1","M.jpg","Q.jpg","0","0","1","",""
"","feedback","","html-keyboard-response","568","706188","0.0-1.0-771.0-0.0","0","0","29851","","null","","","null","85","","","","","","","","","","","","","","","",""
"","ITI","","html-keyboard-response","569","707193","0.0-1.0-774.0","0","0","29851","","null","","","null","85","","","","","","","","","","","","","","","NaN",""
"","S1","","html-keyboard-response","570","707449","0.0-1.0-776.0","0","0","29851","","null","","","null","86","","","","","","","","","","","","","","","",""
"","ISI","","html-keyboard-response","571","707954","0.0-1.0-777.0","0","0","29851","","null","","","null","86","NaN","","","","","","","","","","","","","","",""
"","S2","","html-keyboard-response","572","708208","0.0-1.0-778.0","0","0","29851","","null","","","null","86","","NaN","","","","","","","","","","","","","",""
"","response","","html-keyboard-response","573","709462","0.0-1.0-779.0-0.0","0","0","29851","","1249","","","75","86","","","2","86","training","adjacent","EF","5","6","L.jpg","P.jpg","1","1","1","",""
"","feedback","","html-keyboard-response","574","710468","0.0-1.0-780.0-0.0","0","0","29851","","null","","","null","86","","","","","","","","","","","","","","","",""
"","ITI","","html-keyboard-response","575","711472","0.0-1.0-783.0","0","0","29851","","null","","","null","86","","","","","","","","","","","","","","","NaN",""
"","S1","","html-keyboard-response","576","711731","0.0-1.0-785.0","0","0","29851","","null","","","null","87","","","","","","","","","","","","","","","",""
"","ISI","","html-keyboard-response","577","712236","0.0-1.0-786.0","0","0","29851","","null","","","null","87","NaN","","","","","","","","","","","","","","",""
