"success","ttype","start_time","trial_type","trial_index","time_elapsed","internal_node_id","warning","missed_checkup","PID","view_history","rt","responses","repeat_instructions","key_press","index","keypress_isi","keypress_S2","block","trial_num","phase","group_type","pair_type","S1_stim","S2_stim","S1_img","S2_img","S1_chosen","S1_higher","accuracy","keypress_iti","total_bonus_tally"
"true","full_screen","d08052022hr1309","fullscreen","0","9585","0.0-0.0","0","0","16424","","","","","","","","","","","","","","","","","","","","","",""
"","instructions","","instructions","1","145849","0.0-1.0-0.0-0.0","0","0","16424","[{""page_index"":0,""viewing_time"":13940},{""page_index"":1,""viewing_time"":82394},{""page_index"":2,""viewing_time"":24089},{""page_index"":1,""viewing_time"":12942},{""page_index"":2,""viewing_time"":1457},{""page_index"":3,""viewing_time"":1434}]","136258","","","","","","","","","","","","","","","","","","","",""
"","comprehension_check","","survey-multi-choice","2","166670","0.0-1.0-0.0-1.0","0","0","16424","","20812","{""Q0"":""True"",""Q1"":""D"",""Q2"":""Only when the screen 'MAKE A CHOICE' is shown"",""Q3"":""Green mark"",""Q4"":""either D or K""}","1","","","","","","","","","","","","","","","","","",""
"","missed_instruction_checkup","","html-keyboard-response","3","168605","0.0-1.0-0.0-2.0-0.0","0","1","16424","","1928","","","32","","","","","","","","","","","","","","","","",""
"","instructions","","instructions","4","291444","0.0-1.0-0.1-0.1","0","0","16424","[{""page_index"":0,""viewing_time"":9600},{""page_index"":1,""viewing_time"":105654},{""page_index"":2,""viewing_time"":6748},{""page_index"":3,""viewing_time"":834}]","122836","","","","","","","","","","","","","","","","","","","",""
"","comprehension_check","","survey-multi-choice","5","317636","0.0-1.0-0.1-1.1","0","0","16424","","26177","{""Q0"":""True"",""Q1"":""D"",""Q2"":""Once the second image appears and while the screen 'MAKE A CHOICE' is shown"",""Q3"":""Green mark"",""Q4"":""either D or K""}","0","","","","","","","","","","","","","","","","","",""
"","start_exp","","html-keyboard-response","6","319752","0.0-1.0-1.0","0","0","16424","","2112","","","32","","","","","","","","","","","","","","","","",""
"","S1","","html-keyboard-response","7","320007","0.0-1.0-2.0","0","0","16424","","null","","","null","0","","","","","","","","","","","","","","","",""
"","ISI","","html-keyboard-response","8","322012","0.0-1.0-3.0","0","0","16424","","null","","","null","0","NaN","","","","","","","","","","","","","","",""
"","S2","","html-keyboard-response","9","322268","0.0-1.0-4.0","0","0","16424","","null","","","null","0","","NaN","","","","","","","","","","","","","",""
"","response","","html-keyboard-response","10","323476","0.0-1.0-5.0-0.0","0","0","16424","","1203","","","75","0","","","1","0","training","adjacent","BC","2","3","R.jpg","L.jpg","0","1","0","",""
"","feedback","","html-keyboard-response","11","324482","0.0-1.0-6.0-0.0","0","0","16424","","null","","","null","0","","","","","","","","","","","","","","","",""
"","time_out","","html-keyboard-response","12","326488","0.0-1.0-8.0-0.0","0","0","16424","","null","","","null","0","","","","","","","","","","","","","","","",""
"","ITI","","html-keyboard-response","13","327493","0.0-1.0-9.0","0","0","16424","","null","","","null","0","","","","","","","","","","","","","","","NaN",""
"","S1","","html-keyboard-response","14","327748","0.0-1.0-11.0","0","0","16424","","null","","","null","1","","","","","","","","","","","","","","","",""
"","ISI","","html-keyboard-response","15","329752","0.0-1.0-12.0","0","0","16424","","null","","","null","1","NaN","","","","","","","","","","","","","","",""
"","S2","","html-keyboard-response","16","330007","0.0-1.0-13.0","0","0","16424","","null","","","null","1","","NaN","","","","","","","","","","","","","",""
"","response","","html-keyboard-response","17","330708","0.0-1.0-14.0-0.0","0","0","16424","","697","","","68","1","","","1","1","training","adjacent","GF","7","6","P.jpg","O.jpg","1","0","0","",""
"","feedback","","html-keyboard-response","18","331713","0.0-1.0-15.0-0.0","0","0","16424","","null","","","null","1","","","","","","","","","","","","","","","",""
"","time_out","","html-keyboard-response","19","333717","0.0-1.0-17.0-0.0","0","0","16424","","null","","","null","1","","","","","","","","","","","","","","","",""
"","ITI","","html-keyboard-response","20","334723","0.0-1.0-18.0","0","0","16424","","null","","","null","1","","","","","","","","","","","","","","","NaN",""
"","S1","","html-keyboard-response","21","334977","0.0-1.0-20.0","0","0","16424","","null","","","null","2","","","","","","","","","","","","","","","",""
"","ISI","","html-keyboard-response","22","336982","0.0-1.0-21.0","0","0","16424","","null","","","null","2","NaN","","","","","","","","","","","","","","",""
"","S2","","html-keyboard-response","23","337236","0.0-1.0-22.0","0","0","16424","","null","","","null","2","","NaN","","","","","","","","","","","","","",""
"","response","","html-keyboard-response","24","338076","0.0-1.0-23.0-0.0","0","0","16424","","836","","","75","2","","","1","2","training","adjacent","DE","4","5","Q.jpg","N.jpg","0","1","0","",""
"","feedback","","html-keyboard-response","25","339081","0.0-1.0-24.0-0.0","0","0","16424","","null","","","null","2","","","","","","","","","","","","","","","",""
"","time_out","","html-keyboard-response","26","341085","0.0-1.0-26.0-0.0","0","0","16424","","null","","","null","2","","","","","","","","","","","","","","","",""
"","ITI","","html-keyboard-response","27","342089","0.0-1.0-27.0","0","0","16424","","null","","","null","2","","","","","","","","","","","","","","","NaN",""
"","S1","","html-keyboard-response","28","342344","0.0-1.0-29.0","0","0","16424","","null","","","null","3","","","","","","","","","","","","","","","",""
"","ISI","","html-keyboard-response","29","344348","0.0-1.0-30.0","0","0","16424","","null","","","null","3","NaN","","","","","","","","","","","","","","",""
"","S2","","html-keyboard-response","30","344603","0.0-1.0-31.0","0","0","16424","","null","","","null","3","","NaN","","","","","","","","","","","","","",""
"","response","","html-keyboard-response","31","345034","0.0-1.0-32.0-0.0","0","0","16424","","427","","","68","3","","","1","3","training","adjacent","BC","2","3","R.jpg","L.jpg","1","1","1","",""
"","feedback","","html-keyboard-response","32","346039","0.0-1.0-33.0-0.0","0","0","16424","","null","","","null","3","","","","","","","","","","","","","","","",""
"","ITI","","html-keyboard-response","33","347043","0.0-1.0-36.0","0","0","16424","","null","","","null","3","","","","","","","","","","","","","","","NaN",""
"","S1","","html-keyboard-response","34","347299","0.0-1.0-38.0","0","0","16424","","null","","","null","4","","","","","","","","","","","","","","","",""
"","ISI","","html-keyboard-response","35","349304","0.0-1.0-39.0","0","0","16424","","null","","","null","4","NaN","","","","","","","","","","","","","","",""
"","S2","","html-keyboard-response","36","349558","0.0-1.0-40.0","0","0","16424","","null","","","null","4","","NaN","","","","","","","","","","","","","",""
"","response","","html-keyboard-response","37","349968","0.0-1.0-41.0-0.0","0","0","16424","","406","","","68","4","","","1","4","training","adjacent","EF","5","6","N.jpg","O.jpg","1","1","1","",""
"","feedback","","html-keyboard-response","38","350973","0.0-1.0-42.0-0.0","0","0","16424","","null","","","null","4","","","","","","","","","","","","","","","",""
"","ITI","","html-keyboard-response","39","351978","0.0-1.0-45.0","0","0","16424","","null","","","null","4","","","","","","","","","","","","","","","NaN",""
"","S1","","html-keyboard-response","40","352233","0.0-1.0-47.0","0","0","16424","","null","","","null","5","","","","","","","","","","","","","","","",""
"","ISI","","html-keyboard-response","41","354236","0.0-1.0-48.0","0","0","16424","","null","","","null","5","NaN","","","","","","","","","","","","","","",""
"","S2","","html-keyboard-response","42","354491","0.0-1.0-49.0","0","0","16424","","null","","","null","5","","NaN","","","","","","","","","","","","","",""
"","response","","html-keyboard-response","43","354900","0.0-1.0-50.0-0.0","0","0","16424","","405","","","75","5","","","1","5","training","adjacent","AB","1","2","M.jpg","R.jpg","0","1","0","",""
"","feedback","","html-keyboard-response","44","355905","0.0-1.0-51.0-0.0","0","0","16424","","null","","","null","5","","","","","","","","","","","","","","","",""
"","time_out","","html-keyboard-response","45","357910","0.0-1.0-53.0-0.0","0","0","16424","","null","","","null","5","","","","","","","","","","","","","","","",""
"","ITI","","html-keyboard-response","46","358915","0.0-1.0-54.0","0","0","16424","","null","","","null","5","","","","","","","","","","","","","","","NaN",""
"","S1","","html-keyboard-response","47","359170","0.0-1.0-56.0","0","0","16424","","null","","","null","6","","","","","","","","","","","","","","","",""
"","ISI","","html-keyboard-response","48","361175","0.0-1.0-57.0","0","0","16424","","null","","","null","6","NaN","","","","","","","","","","","","","","",""
"","S2","","html-keyboard-response","49","361430","0.0-1.0-58.0","0","0","16424","","null","","","null","6","","NaN","","","","","","","","","","","","","",""
"","response","","html-keyboard-response","50","361889","0.0-1.0-59.0-0.0","0","0","16424","","456","","","68","6","","","1","6","training","adjacent","ED","5","4","N.jpg","Q.jpg","1","0","0","",""
"","feedback","","html-keyboard-response","51","362893","0.0-1.0-60.0-0.0","0","0","16424","","null","","","null","6","","","","","","","","","","","","","","","",""
"","time_out","","html-keyboard-response","52","364899","0.0-1.0-62.0-0.0","0","0","16424","","null","","","null","6","","","","","","","","","","","","","","","",""
"","ITI","","html-keyboard-response","53","365903","0.0-1.0-63.0","0","0","16424","","null","","","null","6","","","","","","","","","","","","","","","NaN",""
"","S1","","html-keyboard-response","54","366157","0.0-1.0-65.0","0","0","16424","","null","","","null","7","","","","","","","","","","","","","","","",""
"","ISI","","html-keyboard-response","55","368162","0.0-1.0-66.0","0","0","16424","","null","","","null","7","NaN","","","","","","","","","","","","","","",""
"","S2","","html-keyboard-response","56","368417","0.0-1.0-67.0","0","0","16424","","null","","","null","7","","NaN","","","","","","","","","","","","","",""
"","response","","html-keyboard-response","57","368717","0.0-1.0-68.0-0.0","0","0","16424","","296","","","68","7","","","1","7","training","adjacent","BA","2","1","R.jpg","M.jpg","1","0","0","",""
"","feedback","","html-keyboard-response","58","369723","0.0-1.0-69.0-0.0","0","0","16424","","null","","","null","7","","","","","","","","","","","","","","","",""
"","time_out","","html-keyboard-response","59","371726","0.0-1.0-71.0-0.0","0","0","16424","","null","","","null","7","","","","","","","","","","","","","","","",""
"","ITI","","html-keyboard-response","60","372730","0.0-1.0-72.0","0","0","16424","","null","","","null","7","","","","","","","","","","","","","","","NaN",""
"","S1","","html-keyboard-response","61","372985","0.0-1.0-74.0","0","0","16424","","null","","","null","8","","","","","","","","","","","","","","","",""
"","ISI","","html-keyboard-response","62","374989","0.0-1.0-75.0","0","0","16424","","null","","","null","8","NaN","","","","","","","","","","","","","","",""
"","S2","","html-keyboard-response","63","375244","0.0-1.0-76.0","0","0","16424","","null","","","null","8","","NaN","","","","","","","","","","","","","",""
"","response","","html-keyboard-response","64","375887","0.0-1.0-77.0-0.0","0","0","16424","","639","","","75","8","","","1","8","training","adjacent","CD","3","4","L.jpg","Q.jpg","0","1","0","",""
"","feedback","","html-keyboard-response","65","376894","0.0-1.0-78.0-0.0","0","0","16424","","null","","","null","8","","","","","","","","","","","","","","","",""
"","time_out","","html-keyboard-response","66","378898","0.0-1.0-80.0-0.0","0","0","16424","","null","","","null","8","","","","","","","","","","","","","","","",""
"","ITI","","html-keyboard-response","67","379903","0.0-1.0-81.0","0","0","16424","","null","","","null","8","","","","","","","","","","","","","","","NaN",""
"","S1","","html-keyboard-response","68","380157","0.0-1.0-83.0","0","0","16424","","null","","","null","9","","","","","","","","","","","","","","","",""
"","ISI","","html-keyboard-response","69","382162","0.0-1.0-84.0","0","0","16424","","null","","","null","9","NaN","","","","","","","","","","","","","","",""
"","S2","","html-keyboard-response","70","382417","0.0-1.0-85.0","0","0","16424","","null","","","null","9","","NaN","","","","","","","","","","","","","",""
"","response","","html-keyboard-response","71","383378","0.0-1.0-86.0-0.0","0","0","16424","","957","","","75","9","","","1","9","training","adjacent","AB","1","2","M.jpg","R.jpg","0","1","0","",""
"","feedback","","html-keyboard-response","72","384383","0.0-1.0-87.0-0.0","0","0","16424","","null","","","null","9","","","","","","","","","","","","","","","",""
"","time_out","","html-keyboard-response","73","386386","0.0-1.0-89.0-0.0","0","0","16424","","null","","","null","9","","","","","","","","","","","","","","","",""
"","ITI","","html-keyboard-response","74","387391","0.0-1.0-90.0","0","0","16424","","null","","","null","9","","","","","","","","","","","","","","","NaN",""
"","S1","","html-keyboard-response","75","387645","0.0-1.0-92.0","0","0","16424","","null","","","null","10","","","","","","","","","","","","","","","",""
"","ISI","","html-keyboard-response","76","389649","0.0-1.0-93.0","0","0","16424","","null","","","null","10","NaN","","","","","","","","","","","","","","",""
"","S2","","html-keyboard-response","77","389917","0.0-1.0-94.0","0","0","16424","","null","","","null","10","","NaN","","","","","","","","","","","","","",""
"","response","","html-keyboard-response","78","390364","0.0-1.0-95.0-0.0","0","0","16424","","440","","","68","10","","","1","10","training","adjacent","FG","6","7","O.jpg","P.jpg","1","1","1","",""
"","feedback","","html-keyboard-response","79","391369","0.0-1.0-96.0-0.0","0","0","16424","","null","","","null","10","","","","","","","","","","","","","","","",""
"","ITI","","html-keyboard-response","80","392374","0.0-1.0-99.0","0","0","16424","","null","","","null","10","","","","","","","","","","","","","","","NaN",""
"","S1","","html-keyboard-response","81","392628","0.0-1.0-101.0","0","0","16424","","null","","","null","11","","","","","","","","","","","","","","","",""
"","ISI","","html-keyboard-response","82","394633","0.0-1.0-102.0","0","0","16424","","null","","","null","11","NaN","","","","","","","","","","","","","","",""
"","S2","","html-keyboard-response","83","394890","0.0-1.0-103.0","0","0","16424","","null","","","null","11","","NaN","","","","","","","","","","","","","",""
"","response","","html-keyboard-response","84","396644","0.0-1.0-104.0-0.0","0","0","16424","","null","","","null","11","","","1","11","training","adjacent","EF","5","6","N.jpg","O.jpg","NaN","1","0","",""
"","too_slow_prompt","","html-keyboard-response","85","397650","0.0-1.0-106.0-0.0","1","0","16424","","null","","","null","","","","","","","","","","","","","","","","",""
"","time_out","","html-keyboard-response","86","399653","0.0-1.0-107.0-0.0","0","0","16424","","null","","","null","11","","","","","","","","","","","","","","","",""
"","ITI","","html-keyboard-response","87","400657","0.0-1.0-108.0","0","0","16424","","null","","","null","11","","","","","","","","","","","","","","","NaN",""
"","S1","","html-keyboard-response","88","400912","0.0-1.0-110.0","0","0","16424","","null","","","null","12","","","","","","","","","","","","","","","",""
"","ISI","","html-keyboard-response","89","402917","0.0-1.0-111.0","0","0","16424","","null","","","null","12","NaN","","","","","","","","","","","","","","",""
"","S2","","html-keyboard-response","90","403171","0.0-1.0-112.0","0","0","16424","","null","","","null","12","","NaN","","","","","","","","","","","","","",""
"","response","","html-keyboard-response","91","403218","0.0-1.0-113.0-0.0","0","0","16424","","43","","","68","12","","","1","12","training","adjacent","DC","4","3","Q.jpg","L.jpg","1","0","0","",""
"","feedback","","html-keyboard-response","92","404223","0.0-1.0-114.0-0.0","0","0","16424","","null","","","null","12","","","","","","","","","","","","","","","",""
"","time_out","","html-keyboard-response","93","406231","0.0-1.0-116.0-0.0","0","0","16424","","null","","","null","12","","","","","","","","","","","","","","","",""
"","ITI","","html-keyboard-response","94","407235","0.0-1.0-117.0","0","0","16424","","null","","","null","12","","","","","","","","","","","","","","","NaN",""
"","S1","","html-keyboard-response","95","407490","0.0-1.0-119.0","0","0","16424","","null","","","null","13","","","","","","","","","","","","","","","",""
"","ISI","","html-keyboard-response","96","409495","0.0-1.0-120.0","0","0","16424","","null","","","null","13","NaN","","","","","","","","","","","","","","",""
"","S2","","html-keyboard-response","97","409750","0.0-1.0-121.0","0","0","16424","","null","","","null","13","","NaN","","","","","","","","","","","","","",""
"","response","","html-keyboard-response","98","410147","0.0-1.0-122.0-0.0","0","0","16424","","393","","","68","13","","","1","13","training","adjacent","FG","6","7","O.jpg","P.jpg","1","1","1","",""
"","feedback","","html-keyboard-response","99","411151","0.0-1.0-123.0-0.0","0","0","16424","","null","","","null","13","","","","","","","","","","","","","","","",""
"","ITI","","html-keyboard-response","100","412156","0.0-1.0-126.0","0","0","16424","","null","","","null","13","","","","","","","","","","","","","","","NaN",""
"","S1","","html-keyboard-response","101","412412","0.0-1.0-128.0","0","0","16424","","null","","","null","14","","","","","","","","","","","","","","","",""
"","ISI","","html-keyboard-response","102","414415","0.0-1.0-129.0","0","0","16424","","null","","","null","14","NaN","","","","","","","","","","","","","","",""
"","S2","","html-keyboard-response","103","414671","0.0-1.0-130.0","0","0","16424","","null","","","null","14","","NaN","","","","","","","","","","","","","",""
"","response","","html-keyboard-response","104","415067","0.0-1.0-131.0-0.0","0","0","16424","","392","","","75","14","","","1","14","training","adjacent","GF","7","6","P.jpg","O.jpg","0","0","1","",""
"","feedback","","html-keyboard-response","105","416073","0.0-1.0-132.0-0.0","0","0","16424","","null","","","null","14","","","","","","","","","","","","","","","",""
"","ITI","","html-keyboard-response","106","417077","0.0-1.0-135.0","0","0","16424","","null","","","null","14","","","","","","","","","","","","","","","NaN",""
"","S1","","html-keyboard-response","107","417332","0.0-1.0-137.0","0","0","16424","","null","","","null","15","","","","","","","","","","","","","","","",""
"","ISI","","html-keyboard-response","108","419338","0.0-1.0-138.0","0","0","16424","","null","","","null","15","NaN","","","","","","","","","","","","","","",""
"","S2","","html-keyboard-response","109","419593","0.0-1.0-139.0","0","0","16424","","null","","","null","15","","NaN","","","","","","","","","","","","","",""
"","response","","html-keyboard-response","110","420020","0.0-1.0-140.0-0.0","0","0","16424","","424","","","75","15","","","1","15","training","adjacent","DE","4","5","Q.jpg","N.jpg","0","1","0","",""
"","feedback","","html-keyboard-response","111","421026","0.0-1.0-141.0-0.0","0","0","16424","","null","","","null","15","","","","","","","","","","","","","","","",""
"","time_out","","html-keyboard-response","112","423030","0.0-1.0-143.0-0.0","0","0","16424","","null","","","null","15","","","","","","","","","","","","","","","",""
"","ITI","","html-keyboard-response","113","424034","0.0-1.0-144.0","0","0","16424","","null","","","null","15","","","","","","","","","","","","","","","NaN",""
"","S1","","html-keyboard-response","114","424288","0.0-1.0-146.0","0","0","16424","","null","","","null","16","","","","","","","","","","","","","","","",""
"","ISI","","html-keyboard-response","115","426293","0.0-1.0-147.0","0","0","16424","","null","","","null","16","NaN","","","","","","","","","","","","","","",""
"","S2","","html-keyboard-response","116","426549","0.0-1.0-148.0","0","0","16424","","null","","","null","16","","NaN","","","","","","","","","","","","","",""
"","response","","html-keyboard-response","117","426837","0.0-1.0-149.0-0.0","0","0","16424","","284","","","68","16","","","1","16","training","adjacent","CB","3","2","L.jpg","R.jpg","1","0","0","",""
"","feedback","","html-keyboard-response","118","427842","0.0-1.0-150.0-0.0","0","0","16424","","null","","","null","16","","","","","","","","","","","","","","","",""
"","time_out","","html-keyboard-response","119","429846","0.0-1.0-152.0-0.0","0","0","16424","","null","","","null","16","","","","","","","","","","","","","","","",""
"","ITI","","html-keyboard-response","120","430852","0.0-1.0-153.0","0","0","16424","","null","","","null","16","","","","","","","","","","","","","","","NaN",""
"","S1","","html-keyboard-response","121","431106","0.0-1.0-155.0","0","0","16424","","null","","","null","17","","","","","","","","","","","","","","","",""
"","ISI","","html-keyboard-response","122","433111","0.0-1.0-156.0","0","0","16424","","null","","","null","17","NaN","","","","","","","","","","","","","","",""
"","S2","","html-keyboard-response","123","433337","0.0-1.0-157.0","0","0","16424","","221","","","68","17","","d","1","17","training","adjacent","CD","3","4","L.jpg","Q.jpg","1","1","1","",""
"","feedback","","html-keyboard-response","124","434344","0.0-1.0-159.0-0.0","0","0","16424","","null","","","null","17","","","","","","","","","","","","","","","",""
"","ITI","","html-keyboard-response","125","435349","0.0-1.0-162.0","0","0","16424","","null","","","null","17","","","","","","","","","","","","","","","NaN",""
"","S1","","html-keyboard-response","126","435603","0.0-1.0-164.0","0","0","16424","","null","","","null","18","","","","","","","","","","","","","","","",""
"","ISI","","html-keyboard-response","127","437608","0.0-1.0-165.0","0","0","16424","","null","","","null","18","NaN","","","","","","","","","","","","","","",""
"","S2","","html-keyboard-response","128","437863","0.0-1.0-166.0","0","0","16424","","null","","","null","18","","NaN","","","","","","","","","","","","","",""
"","response","","html-keyboard-response","129","438540","0.0-1.0-167.0-0.0","0","0","16424","","673","","","68","18","","","1","18","training","adjacent","BA","2","1","R.jpg","M.jpg","1","0","0","",""
"","feedback","","html-keyboard-response","130","439545","0.0-1.0-168.0-0.0","0","0","16424","","null","","","null","18","","","","","","","","","","","","","","","",""
"","time_out","","html-keyboard-response","131","441565","0.0-1.0-170.0-0.0","0","0","16424","","null","","","null","18","","","","","","","","","","","","","","","",""
"","ITI","","html-keyboard-response","132","442569","0.0-1.0-171.0","0","0","16424","","null","","","null","18","","","","","","","","","","","","","","","NaN",""
"","S1","","html-keyboard-response","133","442823","0.0-1.0-173.0","0","0","16424","","null","","","null","19","","","","","","","","","","","","","","","",""
"","ISI","","html-keyboard-response","134","444828","0.0-1.0-174.0","0","0","16424","","null","","","null","19","NaN","","","","","","","","","","","","","","",""
"","S2","","html-keyboard-response","135","445086","0.0-1.0-175.0","0","0","16424","","null","","","null","19","","NaN","","","","","","","","","","","","","",""
"","response","","html-keyboard-response","136","445522","0.0-1.0-176.0-0.0","0","0","16424","","432","","","68","19","","","1","19","training","adjacent","EF","5","6","N.jpg","O.jpg","1","1","1","",""
"","feedback","","html-keyboard-response","137","446528","0.0-1.0-177.0-0.0","0","0","16424","","null","","","null","19","","","","","","","","","","","","","","","",""
"","ITI","","html-keyboard-response","138","447533","0.0-1.0-180.0","0","0","16424","","null","","","null","19","","","","","","","","","","","","","","","NaN",""
"","S1","","html-keyboard-response","139","447788","0.0-1.0-182.0","0","0","16424","","null","","","null","20","","","","","","","","","","","","","","","",""
"","ISI","","html-keyboard-response","140","449794","0.0-1.0-183.0","0","0","16424","","null","","","null","20","NaN","","","","","","","","","","","","","","",""
"","S2","","html-keyboard-response","141","450049","0.0-1.0-184.0","0","0","16424","","null","","","null","20","","NaN","","","","","","","","","","","","","",""
"","response","","html-keyboard-response","142","450717","0.0-1.0-185.0-0.0","0","0","16424","","664","","","75","20","","","1","20","training","adjacent","FE","6","5","O.jpg","N.jpg","0","0","1","",""
"","feedback","","html-keyboard-response","143","451722","0.0-1.0-186.0-0.0","0","0","16424","","null","","","null","20","","","","","","","","","","","","","","","",""
"","ITI","","html-keyboard-response","144","452727","0.0-1.0-189.0","0","0","16424","","null","","","null","20","","","","","","","","","","","","","","","NaN",""
"","S1","","html-keyboard-response","145","452982","0.0-1.0-191.0","0","0","16424","","null","","","null","21","","","","","","","","","","","","","","","",""
"","ISI","","html-keyboard-response","146","454986","0.0-1.0-192.0","0","0","16424","","null","","","null","21","NaN","","","","","","","","","","","","","","",""
"","S2","","html-keyboard-response","147","455244","0.0-1.0-193.0","0","0","16424","","null","","","null","21","","NaN","","","","","","","","","","","","","",""
"","response","","html-keyboard-response","148","455714","0.0-1.0-194.0-0.0","0","0","16424","","466","","","75","21","","","1","21","training","adjacent","DC","4","3","Q.jpg","L.jpg","0","0","1","",""
"","feedback","","html-keyboard-response","149","456719","0.0-1.0-195.0-0.0","0","0","16424","","null","","","null","21","","","","","","","","","","","","","","","",""
"","ITI","","html-keyboard-response","150","457724","0.0-1.0-198.0","0","0","16424","","null","","","null","21","","","","","","","","","","","","","","","NaN",""
"","S1","","html-keyboard-response","151","457980","0.0-1.0-200.0","0","0","16424","","null","","","null","22","","","","","","","","","","","","","","","",""
"","ISI","","html-keyboard-response","152","459984","0.0-1.0-201.0","0","0","16424","","null","","","null","22","NaN","","","","","","","","","","","","","","",""
"","S2","","html-keyboard-response","153","460239","0.0-1.0-202.0","0","0","16424","","null","","","null","22","","NaN","","","","","","","","","","","","","",""
"","response","","html-keyboard-response","154","460727","0.0-1.0-203.0-0.0","0","0","16424","","483","","","75","22","","","1","22","training","adjacent","BC","2","3","R.jpg","L.jpg","0","1","0","",""
"","feedback","","html-keyboard-response","155","461732","0.0-1.0-204.0-0.0","0","0","16424","","null","","","null","22","","","","","","","","","","","","","","","",""
"","time_out","","html-keyboard-response","156","463736","0.0-1.0-206.0-0.0","0","0","16424","","null","","","null","22","","","","","","","","","","","","","","","",""
"","ITI","","html-keyboard-response","157","464741","0.0-1.0-207.0","0","0","16424","","null","","","null","22","","","","","","","","","","","","","","","NaN",""
"","S1","","html-keyboard-response","158","464996","0.0-1.0-209.0","0","0","16424","","null","","","null","23","","","","","","","","","","","","","","","",""
"","ISI","","html-keyboard-response","159","467000","0.0-1.0-210.0","0","0","16424","","null","","","null","23","NaN","","","","","","","","","","","","","","",""
"","S2","","html-keyboard-response","160","467255","0.0-1.0-211.0","0","0","16424","","null","","","null","23","","NaN","","","","","","","","","","","","","",""
"","response","","html-keyboard-response","161","467584","0.0-1.0-212.0-0.0","0","0","16424","","325","","","68","23","","","1","23","training","adjacent","CB","3","2","L.jpg","R.jpg","1","0","0","",""
"","feedback","","html-keyboard-response","162","468589","0.0-1.0-213.0-0.0","0","0","16424","","null","","","null","23","","","","","","","","","","","","","","","",""
"","time_out","","html-keyboard-response","163","470594","0.0-1.0-215.0-0.0","0","0","16424","","null","","","null","23","","","","","","","","","","","","","","","",""
"","ITI","","html-keyboard-response","164","471598","0.0-1.0-216.0","0","0","16424","","null","","","null","23","","","","","","","","","","","","","","","NaN",""
"","S1","","html-keyboard-response","165","471855","0.0-1.0-218.0","0","0","16424","","null","","","null","24","","","","","","","","","","","","","","","",""
"","ISI","","html-keyboard-response","166","473866","0.0-1.0-219.0","0","0","16424","","null","","","null","24","NaN","","","","","","","","","","","","","","",""
"","S2","","html-keyboard-response","167","474120","0.0-1.0-220.0","0","0","16424","","null","","","null","24","","NaN","","","","","","","","","","","","","",""
"","response","","html-keyboard-response","168","474576","0.0-1.0-221.0-0.0","0","0","16424","","452","","","75","24","","","1","24","training","adjacent","GF","7","6","P.jpg","O.jpg","0","0","1","",""
"","feedback","","html-keyboard-response","169","475581","0.0-1.0-222.0-0.0","0","0","16424","","null","","","null","24","","","","","","","","","","","","","","","",""
"","ITI","","html-keyboard-response","170","476586","0.0-1.0-225.0","0","0","16424","","null","","","null","24","","","","","","","","","","","","","","","NaN",""
"","S1","","html-keyboard-response","171","476841","0.0-1.0-227.0","0","0","16424","","null","","","null","25","","","","","","","","","","","","","","","",""
"","ISI","","html-keyboard-response","172","478846","0.0-1.0-228.0","0","0","16424","","null","","","null","25","NaN","","","","","","","","","","","","","","",""
"","S2","","html-keyboard-response","173","479101","0.0-1.0-229.0","0","0","16424","","null","","","null","25","","NaN","","","","","","","","","","","","","",""
"","response","","html-keyboard-response","174","480094","0.0-1.0-230.0-0.0","0","0","16424","","987","","","75","25","","","1","25","training","adjacent","GF","7","6","P.jpg","O.jpg","0","0","1","",""
"","feedback","","html-keyboard-response","175","481098","0.0-1.0-231.0-0.0","0","0","16424","","null","","","null","25","","","","","","","","","","","","","","","",""
"","ITI","","html-keyboard-response","176","482104","0.0-1.0-234.0","0","0","16424","","null","","","null","25","","","","","","","","","","","","","","","NaN",""
"","S1","","html-keyboard-response","177","482359","0.0-1.0-236.0","0","0","16424","","null","","","null","26","","","","","","","","","","","","","","","",""
"","ISI","","html-keyboard-response","178","484364","0.0-1.0-237.0","0","0","16424","","null","","","null","26","NaN","","","","","","","","","","","","","","",""
"","S2","","html-keyboard-response","179","484618","0.0-1.0-238.0","0","0","16424","","null","","","null","26","","NaN","","","","","","","","","","","","","",""
"","response","","html-keyboard-response","180","485091","0.0-1.0-239.0-0.0","0","0","16424","","468","","","75","26","","","1","26","training","adjacent","DE","4","5","Q.jpg","N.jpg","0","1","0","",""
"","feedback","","html-keyboard-response","181","486096","0.0-1.0-240.0-0.0","0","0","16424","","null","","","null","26","","","","","","","","","","","","","","","",""
"","time_out","","html-keyboard-response","182","488101","0.0-1.0-242.0-0.0","0","0","16424","","null","","","null","26","","","","","","","","","","","","","","","",""
"","ITI","","html-keyboard-response","183","489106","0.0-1.0-243.0","0","0","16424","","null","","","null","26","","","","","","","","","","","","","","","NaN",""
"","S1","","html-keyboard-response","184","489360","0.0-1.0-245.0","0","0","16424","","null","","","null","27","","","","","","","","","","","","","","","",""
"","ISI","","html-keyboard-response","185","491365","0.0-1.0-246.0","0","0","16424","","null","","","null","27","NaN","","","","","","","","","","","","","","",""
"","S2","","html-keyboard-response","186","491620","0.0-1.0-247.0","0","0","16424","","null","","","null","27","","NaN","","","","","","","","","","","","","",""
"","response","","html-keyboard-response","187","491988","0.0-1.0-248.0-0.0","0","0","16424","","364","","","68","27","","","1","27","training","adjacent","BA","2","1","R.jpg","M.jpg","1","0","0","",""
"","feedback","","html-keyboard-response","188","492993","0.0-1.0-249.0-0.0","0","0","16424","","null","","","null","27","","","","","","","","","","","","","","","",""
"","time_out","","html-keyboard-response","189","494998","0.0-1.0-251.0-0.0","0","0","16424","","null","","","null","27","","","","","","","","","","","","","","","",""
"","ITI","","html-keyboard-response","190","496002","0.0-1.0-252.0","0","0","16424","","null","","","null","27","","","","","","","","","","","","","","","NaN",""
"","S1","","html-keyboard-response","191","496258","0.0-1.0-254.0","0","0","16424","","null","","","null","28","","","","","","","","","","","","","","","",""
"","ISI","","html-keyboard-response","192","498262","0.0-1.0-255.0","0","0","16424","","null","","","null","28","NaN","","","","","","","","","","","","","","",""
"","S2","","html-keyboard-response","193","498516","0.0-1.0-256.0","0","0","16424","","null","","","null","28","","NaN","","","","","","","","","","","","","",""
"","response","","html-keyboard-response","194","499115","0.0-1.0-257.0-0.0","0","0","16424","","593","","","75","28","","","1","28","training","adjacent","BC","2","3","R.jpg","L.jpg","0","1","0","",""
"","feedback","","html-keyboard-response","195","500119","0.0-1.0-258.0-0.0","0","0","16424","","null","","","null","28","","","","","","","","","","","","","","","",""
"","time_out","","html-keyboard-response","196","502124","0.0-1.0-260.0-0.0","0","0","16424","","null","","","null","28","","","","","","","","","","","","","","","",""
"","ITI","","html-keyboard-response","197","503129","0.0-1.0-261.0","0","0","16424","","null","","","null","28","","","","","","","","","","","","","","","NaN",""
"","S1","","html-keyboard-response","198","503383","0.0-1.0-263.0","0","0","16424","","null","","","null","29","","","","","","","","","","","","","","","",""
"","ISI","","html-keyboard-response","199","505390","0.0-1.0-264.0","0","0","16424","","null","","","null","29","NaN","","","","","","","","","","","","","","",""
"","S2","","html-keyboard-response","200","505644","0.0-1.0-265.0","0","0","16424","","null","","","null","29","","NaN","","","","","","","","","","","","","",""
"","response","","html-keyboard-response","201","506051","0.0-1.0-266.0-0.0","0","0","16424","","403","","","75","29","","","1","29","training","adjacent","FE","6","5","O.jpg","N.jpg","0","0","1","",""
"","feedback","","html-keyboard-response","202","507055","0.0-1.0-267.0-0.0","0","0","16424","","null","","","null","29","","","","","","","","","","","","","","","",""
"","ITI","","html-keyboard-response","203","508061","0.0-1.0-270.0","0","0","16424","","null","","","null","29","","","","","","","","","","","","","","","NaN",""
"","S1","","html-keyboard-response","204","508321","0.0-1.0-272.0","0","0","16424","","null","","","null","30","","","","","","","","","","","","","","","",""
"","ISI","","html-keyboard-response","205","510325","0.0-1.0-273.0","0","0","16424","","null","","","null","30","NaN","","","","","","","","","","","","","","",""
"","S2","","html-keyboard-response","206","510580","0.0-1.0-274.0","0","0","16424","","null","","","null","30","","NaN","","","","","","","","","","","","","",""
"","response","","html-keyboard-response","207","511864","0.0-1.0-275.0-0.0","0","0","16424","","1280","","","75","30","","","1","30","training","adjacent","AB","1","2","M.jpg","R.jpg","0","1","0","",""
"","feedback","","html-keyboard-response","208","512869","0.0-1.0-276.0-0.0","0","0","16424","","null","","","null","30","","","","","","","","","","","","","","","",""
"","time_out","","html-keyboard-response","209","514875","0.0-1.0-278.0-0.0","0","0","16424","","null","","","null","30","","","","","","","","","","","","","","","",""
"","ITI","","html-keyboard-response","210","515881","0.0-1.0-279.0","0","0","16424","","null","","","null","30","","","","","","","","","","","","","","","NaN",""
"","S1","","html-keyboard-response","211","516136","0.0-1.0-281.0","0","0","16424","","null","","","null","31","","","","","","","","","","","","","","","",""
"","ISI","","html-keyboard-response","212","518141","0.0-1.0-282.0","0","0","16424","","null","","","null","31","NaN","","","","","","","","","","","","","","",""
"","S2","","html-keyboard-response","213","518396","0.0-1.0-283.0","0","0","16424","","null","","","null","31","","NaN","","","","","","","","","","","","","",""
"","response","","html-keyboard-response","214","518900","0.0-1.0-284.0-0.0","0","0","16424","","500","","","68","31","","","1","31","training","adjacent","AB","1","2","M.jpg","R.jpg","1","1","1","",""
"","feedback","","html-keyboard-response","215","519906","0.0-1.0-285.0-0.0","0","0","16424","","null","","","null","31","","","","","","","","","","","","","","","",""
"","ITI","","html-keyboard-response","216","520913","0.0-1.0-288.0","0","0","16424","","null","","","null","31","","","","","","","","","","","","","","","NaN",""
"","S1","","html-keyboard-response","217","521168","0.0-1.0-290.0","0","0","16424","","null","","","null","32","","","","","","","","","","","","","","","",""
"","ISI","","html-keyboard-response","218","523174","0.0-1.0-291.0","0","0","16424","","null","","","null","32","NaN","","","","","","","","","","","","","","",""
"","S2","","html-keyboard-response","219","523428","0.0-1.0-292.0","0","0","16424","","null","","","null","32","","NaN","","","","","","","","","","","","","",""
"","response","","html-keyboard-response","220","523877","0.0-1.0-293.0-0.0","0","0","16424","","445","","","68","32","","","1","32","training","adjacent","ED","5","4","N.jpg","Q.jpg","1","0","0","",""
"","feedback","","html-keyboard-response","221","524885","0.0-1.0-294.0-0.0","0","0","16424","","null","","","null","32","","","","","","","","","","","","","","","",""
"","time_out","","html-keyboard-response","222","526891","0.0-1.0-296.0-0.0","0","0","16424","","null","","","null","32","","","","","","","","","","","","","","","",""
"","ITI","","html-keyboard-response","223","527895","0.0-1.0-297.0","0","0","16424","","null","","","null","32","","","","","","","","","","","","","","","NaN",""
"","S1","","html-keyboard-response","224","528150","0.0-1.0-299.0","0","0","16424","","null","","","null","33","","","","","","","","","","","","","","","",""
"","ISI","","html-keyboard-response","225","530154","0.0-1.0-300.0","0","0","16424","","null","","","null","33","NaN","","","","","","","","","","","","","","",""
"","S2","","html-keyboard-response","226","530409","0.0-1.0-301.0","0","0","16424","","null","","","null","33","","NaN","","","","","","","","","","","","","",""
"","response","","html-keyboard-response","227","530840","0.0-1.0-302.0-0.0","0","0","16424","","424","","","75","33","","","1","33","training","adjacent","DE","4","5","Q.jpg","N.jpg","0","1","0","",""
"","feedback","","html-keyboard-response","228","531845","0.0-1.0-303.0-0.0","0","0","16424","","null","","","null","33","","","","","","","","","","","","","","","",""
"","time_out","","html-keyboard-response","229","533849","0.0-1.0-305.0-0.0","0","0","16424","","null","","","null","33","","","","","","","","","","","","","","","",""
"","ITI","","html-keyboard-response","230","534853","0.0-1.0-306.0","0","0","16424","","null","","","null","33","","","","","","","","","","","","","","","NaN",""
"","S1","","html-keyboard-response","231","535109","0.0-1.0-308.0","0","0","16424","","null","","","null","34","","","","","","","","","","","","","","","",""
"","ISI","","html-keyboard-response","232","537113","0.0-1.0-309.0","0","0","16424","","null","","","null","34","NaN","","","","","","","","","","","","","","",""
"","S2","","html-keyboard-response","233","537369","0.0-1.0-310.0","0","0","16424","","null","","","null","34","","NaN","","","","","","","","","","","","","",""
"","response","","html-keyboard-response","234","537810","0.0-1.0-311.0-0.0","0","0","16424","","437","","","68","34","","","1","34","training","adjacent","FG","6","7","O.jpg","P.jpg","1","1","1","",""
"","feedback","","html-keyboard-response","235","538816","0.0-1.0-312.0-0.0","0","0","16424","","null","","","null","34","","","","","","","","","","","","","","","",""
"","ITI","","html-keyboard-response","236","539821","0.0-1.0-315.0","0","0","16424","","null","","","null","34","","","","","","","","","","","","","","","NaN",""
"","S1","","html-keyboard-response","237","540076","0.0-1.0-317.0","0","0","16424","","null","","","null","35","","","","","","","","","","","","","","","",""
"","ISI","","html-keyboard-response","238","542081","0.0-1.0-318.0","0","0","16424","","null","","","null","35","NaN","","","","","","","","","","","","","","",""
"","S2","","html-keyboard-response","239","542335","0.0-1.0-319.0","0","0","16424","","null","","","null","35","","NaN","","","","","","","","","","","","","",""
"","response","","html-keyboard-response","240","542686","0.0-1.0-320.0-0.0","0","0","16424","","347","","","68","35","","","1","35","training","adjacent","EF","5","6","N.jpg","O.jpg","1","1","1","",""
"","feedback","","html-keyboard-response","241","543691","0.0-1.0-321.0-0.0","0","0","16424","","null","","","null","35","","","","","","","","","","","","","","","",""
"","ITI","","html-keyboard-response","242","544695","0.0-1.0-324.0","0","0","16424","","null","","","null","35","","","","","","","","","","","","","","","NaN",""
"","S1","","html-keyboard-response","243","544950","0.0-1.0-326.0","0","0","16424","","null","","","null","36","","","","","","","","","","","","","","","",""
"","ISI","","html-keyboard-response","244","546954","0.0-1.0-327.0","0","0","16424","","null","","","null","36","NaN","","","","","","","","","","","","","","",""
"","S2","","html-keyboard-response","245","547209","0.0-1.0-328.0","0","0","16424","","null","","","null","36","","NaN","","","","","","","","","","","","","",""
"","response","","html-keyboard-response","246","547793","0.0-1.0-329.0-0.0","0","0","16424","","580","","","68","36","","","1","36","training","adjacent","FG","6","7","O.jpg","P.jpg","1","1","1","",""
"","feedback","","html-keyboard-response","247","548798","0.0-1.0-330.0-0.0","0","0","16424","","null","","","null","36","","","","","","","","","","","","","","","",""
"","ITI","","html-keyboard-response","248","549803","0.0-1.0-333.0","0","0","16424","","null","","","null","36","","","","","","","","","","","","","","","NaN",""
"","S1","","html-keyboard-response","249","550058","0.0-1.0-335.0","0","0","16424","","null","","","null","37","","","","","","","","","","","","","","","",""
"","ISI","","html-keyboard-response","250","552063","0.0-1.0-336.0","0","0","16424","","null","","","null","37","NaN","","","","","","","","","","","","","","",""
"","S2","","html-keyboard-response","251","552318","0.0-1.0-337.0","0","0","16424","","null","","","null","37","","NaN","","","","","","","","","","","","","",""
"","response","","html-keyboard-response","252","553014","0.0-1.0-338.0-0.0","0","0","16424","","691","","","68","37","","","1","37","training","adjacent","CB","3","2","L.jpg","R.jpg","1","0","0","",""
"","feedback","","html-keyboard-response","253","554020","0.0-1.0-339.0-0.0","0","0","16424","","null","","","null","37","","","","","","","","","","","","","","","",""
"","time_out","","html-keyboard-response","254","556025","0.0-1.0-341.0-0.0","0","0","16424","","null","","","null","37","","","","","","","","","","","","","","","",""
"","ITI","","html-keyboard-response","255","557030","0.0-1.0-342.0","0","0","16424","","null","","","null","37","","","","","","","","","","","","","","","NaN",""
"","S1","","html-keyboard-response","256","557285","0.0-1.0-344.0","0","0","16424","","null","","","null","38","","","","","","","","","","","","","","","",""
"","ISI","","html-keyboard-response","257","559290","0.0-1.0-345.0","0","0","16424","","null","","","null","38","NaN","","","","","","","","","","","","","","",""
"","S2","","html-keyboard-response","258","559545","0.0-1.0-346.0","0","0","16424","","null","","","null","38","","NaN","","","","","","","","","","","","","",""
"","response","","html-keyboard-response","259","559959","0.0-1.0-347.0-0.0","0","0","16424","","410","","","68","38","","","1","38","training","adjacent","CD","3","4","L.jpg","Q.jpg","1","1","1","",""
"","feedback","","html-keyboard-response","260","560965","0.0-1.0-348.0-0.0","0","0","16424","","null","","","null","38","","","","","","","","","","","","","","","",""
"","ITI","","html-keyboard-response","261","561970","0.0-1.0-351.0","0","0","16424","","null","","","null","38","","","","","","","","","","","","","","","NaN",""
"","S1","","html-keyboard-response","262","562225","0.0-1.0-353.0","0","0","16424","","null","","","null","39","","","","","","","","","","","","","","","",""
"","ISI","","html-keyboard-response","263","564231","0.0-1.0-354.0","0","0","16424","","null","","","null","39","NaN","","","","","","","","","","","","","","",""
"","S2","","html-keyboard-response","264","564486","0.0-1.0-355.0","0","0","16424","","null","","","null","39","","NaN","","","","","","","","","","","","","",""
"","response","","html-keyboard-response","265","564851","0.0-1.0-356.0-0.0","0","0","16424","","360","","","75","39","","","1","39","training","adjacent","CB","3","2","L.jpg","R.jpg","0","0","1","",""
"","feedback","","html-keyboard-response","266","565856","0.0-1.0-357.0-0.0","0","0","16424","","null","","","null","39","","","","","","","","","","","","","","","",""
"","ITI","","html-keyboard-response","267","566860","0.0-1.0-360.0","0","0","16424","","null","","","null","39","","","","","","","","","","","","","","","NaN",""
"","S1","","html-keyboard-response","268","567115","0.0-1.0-362.0","0","0","16424","","null","","","null","40","","","","","","","","","","","","","","","",""
"","ISI","","html-keyboard-response","269","569123","0.0-1.0-363.0","0","0","16424","","null","","","null","40","NaN","","","","","","","","","","","","","","",""
"","S2","","html-keyboard-response","270","569378","0.0-1.0-364.0","0","0","16424","","null","","","null","40","","NaN","","","","","","","","","","","","","",""
"","response","","html-keyboard-response","271","569673","0.0-1.0-365.0-0.0","0","0","16424","","291","","","68","40","","","1","40","training","adjacent","DC","4","3","Q.jpg","L.jpg","1","0","0","",""
"","feedback","","html-keyboard-response","272","570678","0.0-1.0-366.0-0.0","0","0","16424","","null","","","null","40","","","","","","","","","","","","","","","",""
"","time_out","","html-keyboard-response","273","572682","0.0-1.0-368.0-0.0","0","0","16424","","null","","","null","40","","","","","","","","","","","","","","","",""
"","ITI","","html-keyboard-response","274","573686","0.0-1.0-369.0","0","0","16424","","null","","","null","40","","","","","","","","","","","","","","","NaN",""
"","S1","","html-keyboard-response","275","573942","0.0-1.0-371.0","0","0","16424","","null","","","null","41","","","","","","","","","","","","","","","",""
"","ISI","","html-keyboard-response","276","575946","0.0-1.0-372.0","0","0","16424","","null","","","null","41","NaN","","","","","","","","","","","","","","",""
"","S2","","html-keyboard-response","277","576201","0.0-1.0-373.0","0","0","16424","","null","","","null","41","","NaN","","","","","","","","","","","","","",""
"","response","","html-keyboard-response","278","576662","0.0-1.0-374.0-0.0","0","0","16424","","458","","","75","41","","","1","41","training","adjacent","ED","5","4","N.jpg","Q.jpg","0","0","1","",""
"","feedback","","html-keyboard-response","279","577666","0.0-1.0-375.0-0.0","0","0","16424","","null","","","null","41","","","","","","","","","","","","","","","",""
"","ITI","","html-keyboard-response","280","578672","0.0-1.0-378.0","0","0","16424","","null","","","null","41","","","","","","","","","","","","","","","NaN",""
"","S1","","html-keyboard-response","281","578926","0.0-1.0-380.0","0","0","16424","","null","","","null","42","","","","","","","","","","","","","","","",""
"","ISI","","html-keyboard-response","282","580930","0.0-1.0-381.0","0","0","16424","","null","","","null","42","NaN","","","","","","","","","","","","","","",""
"","S2","","html-keyboard-response","283","581184","0.0-1.0-382.0","0","0","16424","","null","","","null","42","","NaN","","","","","","","","","","","","","",""
"","response","","html-keyboard-response","284","582938","0.0-1.0-383.0-0.0","0","0","16424","","null","","","null","42","","","1","42","training","adjacent","FE","6","5","O.jpg","N.jpg","NaN","0","0","",""
"","too_slow_prompt","","html-keyboard-response","285","583943","0.0-1.0-385.0-0.0","1","0","16424","","null","","","null","","","","","","","","","","","","","","","","",""
"","time_out","","html-keyboard-response","286","585947","0.0-1.0-386.0-0.0","0","0","16424","","null","","","null","42","","","","","","","","","","","","","","","",""
"","ITI","","html-keyboard-response","287","586951","0.0-1.0-387.0","0","0","16424","","null","","","null","42","","","","","","","","","","","","","","","NaN",""
"","S1","","html-keyboard-response","288","587206","0.0-1.0-389.0","0","0","16424","","null","","","null","43","","","","","","","","","","","","","","","",""
"","ISI","","html-keyboard-response","289","589210","0.0-1.0-390.0","0","0","16424","","null","","","null","43","NaN","","","","","","","","","","","","","","",""
"","S2","","html-keyboard-response","290","589464","0.0-1.0-391.0","0","0","16424","","null","","","null","43","","NaN","","","","","","","","","","","","","",""
"","response","","html-keyboard-response","291","589833","0.0-1.0-392.0-0.0","0","0","16424","","365","","","68","43","","","1","43","training","adjacent","CD","3","4","L.jpg","Q.jpg","1","1","1","",""
"","feedback","","html-keyboard-response","292","590838","0.0-1.0-393.0-0.0","0","0","16424","","null","","","null","43","","","","","","","","","","","","","","","",""
"","ITI","","html-keyboard-response","293","591843","0.0-1.0-396.0","0","0","16424","","null","","","null","43","","","","","","","","","","","","","","","NaN",""
"","S1","","html-keyboard-response","294","592097","0.0-1.0-398.0","0","0","16424","","null","","","null","44","","","","","","","","","","","","","","","",""
"","ISI","","html-keyboard-response","295","594103","0.0-1.0-399.0","0","0","16424","","null","","","null","44","NaN","","","","","","","","","","","","","","",""
"","S2","","html-keyboard-response","296","594357","0.0-1.0-400.0","0","0","16424","","null","","","null","44","","NaN","","","","","","","","","","","","","",""
"","response","","html-keyboard-response","297","594773","0.0-1.0-401.0-0.0","0","0","16424","","412","","","68","44","","","1","44","training","adjacent","ED","5","4","N.jpg","Q.jpg","1","0","0","",""
"","feedback","","html-keyboard-response","298","595778","0.0-1.0-402.0-0.0","0","0","16424","","null","","","null","44","","","","","","","","","","","","","","","",""
"","time_out","","html-keyboard-response","299","597783","0.0-1.0-404.0-0.0","0","0","16424","","null","","","null","44","","","","","","","","","","","","","","","",""
"","ITI","","html-keyboard-response","300","598788","0.0-1.0-405.0","0","0","16424","","null","","","null","44","","","","","","","","","","","","","","","NaN",""
"","S1","","html-keyboard-response","301","599042","0.0-1.0-407.0","0","0","16424","","null","","","null","45","","","","","","","","","","","","","","","",""
"","ISI","","html-keyboard-response","302","601047","0.0-1.0-408.0","0","0","16424","","null","","","null","45","NaN","","","","","","","","","","","","","","",""
"","S2","","html-keyboard-response","303","601303","0.0-1.0-409.0","0","0","16424","","null","","","null","45","","NaN","","","","","","","","","","","","","",""
"","response","","html-keyboard-response","304","601380","0.0-1.0-410.0-0.0","0","0","16424","","73","","","75","45","","","1","45","training","adjacent","DC","4","3","Q.jpg","L.jpg","0","0","1","",""
"","feedback","","html-keyboard-response","305","602386","0.0-1.0-411.0-0.0","0","0","16424","","null","","","null","45","","","","","","","","","","","","","","","",""
"","ITI","","html-keyboard-response","306","603391","0.0-1.0-414.0","0","0","16424","","null","","","null","45","","","","","","","","","","","","","","","NaN",""
"","S1","","html-keyboard-response","307","603645","0.0-1.0-416.0","0","0","16424","","null","","","null","46","","","","","","","","","","","","","","","",""
"","ISI","","html-keyboard-response","308","605648","0.0-1.0-417.0","0","0","16424","","null","","","null","46","NaN","","","","","","","","","","","","","","",""
"","S2","","html-keyboard-response","309","605903","0.0-1.0-418.0","0","0","16424","","null","","","null","46","","NaN","","","","","","","","","","","","","",""
"","response","","html-keyboard-response","310","606303","0.0-1.0-419.0-0.0","0","0","16424","","396","","","68","46","","","1","46","training","adjacent","BA","2","1","R.jpg","M.jpg","1","0","0","",""
"","feedback","","html-keyboard-response","311","607309","0.0-1.0-420.0-0.0","0","0","16424","","null","","","null","46","","","","","","","","","","","","","","","",""
"","time_out","","html-keyboard-response","312","609315","0.0-1.0-422.0-0.0","0","0","16424","","null","","","null","46","","","","","","","","","","","","","","","",""
"","ITI","","html-keyboard-response","313","610320","0.0-1.0-423.0","0","0","16424","","null","","","null","46","","","","","","","","","","","","","","","NaN",""
"","S1","","html-keyboard-response","314","610574","0.0-1.0-425.0","0","0","16424","","null","","","null","47","","","","","","","","","","","","","","","",""
"","ISI","","html-keyboard-response","315","612578","0.0-1.0-426.0","0","0","16424","","null","","","null","47","NaN","","","","","","","","","","","","","","",""
"","S2","","html-keyboard-response","316","612833","0.0-1.0-427.0","0","0","16424","","null","","","null","47","","NaN","","","","","","","","","","","","","",""
"","response","","html-keyboard-response","317","613205","0.0-1.0-428.0-0.0","0","0","16424","","368","","","75","47","","","1","47","training","adjacent","FE","6","5","O.jpg","N.jpg","0","0","1","",""
"","feedback","","html-keyboard-response","318","614210","0.0-1.0-429.0-0.0","0","0","16424","","null","","","null","47","","","","","","","","","","","","","","","",""
"","ITI","","html-keyboard-response","319","615214","0.0-1.0-432.0","0","0","16424","","null","","","null","47","","","","","","","","","","","","","","","NaN",""
"","block_over","","html-keyboard-response","320","619423","0.0-1.0-433.0-0.0","0","0","16424","","4205","","","32","47","","","","","","","","","","","","","","","",""
"","S1","","html-keyboard-response","321","619678","0.0-1.0-434.0","0","0","16424","","null","","","null","48","","","","","","","","","","","","","","","",""
"","ISI","","html-keyboard-response","322","621682","0.0-1.0-435.0","0","0","16424","","null","","","null","48","NaN","","","","","","","","","","","","","","",""
"","S2","","html-keyboard-response","323","621943","0.0-1.0-436.0","0","0","16424","","null","","","null","48","","NaN","","","","","","","","","","","","","",""
"","response","","html-keyboard-response","324","622263","0.0-1.0-437.0-0.0","0","0","16424","","316","","","75","48","","","2","48","training","adjacent","BC","2","3","R.jpg","L.jpg","0","1","0","",""
"","feedback","","html-keyboard-response","325","623268","0.0-1.0-438.0-0.0","0","0","16424","","null","","","null","48","","","","","","","","","","","","","","","",""
"","time_out","","html-keyboard-response","326","625272","0.0-1.0-440.0-0.0","0","0","16424","","null","","","null","48","","","","","","","","","","","","","","","",""
"","ITI","","html-keyboard-response","327","626276","0.0-1.0-441.0","0","0","16424","","null","","","null","48","","","","","","","","","","","","","","","NaN",""
"","S1","","html-keyboard-response","328","626531","0.0-1.0-443.0","0","0","16424","","null","","","null","49","","","","","","","","","","","","","","","",""
"","ISI","","html-keyboard-response","329","628536","0.0-1.0-444.0","0","0","16424","","null","","","null","49","NaN","","","","","","","","","","","","","","",""
"","S2","","html-keyboard-response","330","628790","0.0-1.0-445.0","0","0","16424","","null","","","null","49","","NaN","","","","","","","","","","","","","",""
"","response","","html-keyboard-response","331","629023","0.0-1.0-446.0-0.0","0","0","16424","","229","","","75","49","","","2","49","training","adjacent","GF","7","6","P.jpg","O.jpg","0","0","1","",""
"","feedback","","html-keyboard-response","332","630028","0.0-1.0-447.0-0.0","0","0","16424","","null","","","null","49","","","","","","","","","","","","","","","",""
"","ITI","","html-keyboard-response","333","631033","0.0-1.0-450.0","0","0","16424","","null","","","null","49","","","","","","","","","","","","","","","NaN",""
"","S1","","html-keyboard-response","334","631287","0.0-1.0-452.0","0","0","16424","","null","","","null","50","","","","","","","","","","","","","","","",""
"","ISI","","html-keyboard-response","335","633292","0.0-1.0-453.0","0","0","16424","","null","","","null","50","NaN","","","","","","","","","","","","","","",""
"","S2","","html-keyboard-response","336","633546","0.0-1.0-454.0","0","0","16424","","null","","","null","50","","NaN","","","","","","","","","","","","","",""
"","response","","html-keyboard-response","337","633700","0.0-1.0-455.0-0.0","0","0","16424","","150","","","68","50","","","2","50","training","adjacent","CB","3","2","L.jpg","R.jpg","1","0","0","",""
"","feedback","","html-keyboard-response","338","634704","0.0-1.0-456.0-0.0","0","0","16424","","null","","","null","50","","","","","","","","","","","","","","","",""
"","time_out","","html-keyboard-response","339","636709","0.0-1.0-458.0-0.0","0","0","16424","","null","","","null","50","","","","","","","","","","","","","","","",""
"","ITI","","html-keyboard-response","340","637713","0.0-1.0-459.0","0","0","16424","","null","","","null","50","","","","","","","","","","","","","","","NaN",""
"","S1","","html-keyboard-response","341","637968","0.0-1.0-461.0","0","0","16424","","null","","","null","51","","","","","","","","","","","","","","","",""
"","ISI","","html-keyboard-response","342","639972","0.0-1.0-462.0","0","0","16424","","null","","","null","51","NaN","","","","","","","","","","","","","","",""
"","S2","","html-keyboard-response","343","640226","0.0-1.0-463.0","0","0","16424","","null","","","null","51","","NaN","","","","","","","","","","","","","",""
"","response","","html-keyboard-response","344","640503","0.0-1.0-464.0-0.0","0","0","16424","","273","","","75","51","","","2","51","training","adjacent","AB","1","2","M.jpg","R.jpg","0","1","0","",""
"","feedback","","html-keyboard-response","345","641508","0.0-1.0-465.0-0.0","0","0","16424","","null","","","null","51","","","","","","","","","","","","","","","",""
"","time_out","","html-keyboard-response","346","643513","0.0-1.0-467.0-0.0","0","0","16424","","null","","","null","51","","","","","","","","","","","","","","","",""
"","ITI","","html-keyboard-response","347","644517","0.0-1.0-468.0","0","0","16424","","null","","","null","51","","","","","","","","","","","","","","","NaN",""
"","S1","","html-keyboard-response","348","644771","0.0-1.0-470.0","0","0","16424","","null","","","null","52","","","","","","","","","","","","","","","",""
"","ISI","","html-keyboard-response","349","646776","0.0-1.0-471.0","0","0","16424","","null","","","null","52","NaN","","","","","","","","","","","","","","",""
"","S2","","html-keyboard-response","350","647031","0.0-1.0-472.0","0","0","16424","","null","","","null","52","","NaN","","","","","","","","","","","","","",""
"","response","","html-keyboard-response","351","647581","0.0-1.0-473.0-0.0","0","0","16424","","547","","","68","52","","","2","52","training","adjacent","DE","4","5","Q.jpg","N.jpg","1","1","1","",""
"","feedback","","html-keyboard-response","352","648587","0.0-1.0-474.0-0.0","0","0","16424","","null","","","null","52","","","","","","","","","","","","","","","",""
"","ITI","","html-keyboard-response","353","649592","0.0-1.0-477.0","0","0","16424","","null","","","null","52","","","","","","","","","","","","","","","NaN",""
"","S1","","html-keyboard-response","354","649847","0.0-1.0-479.0","0","0","16424","","null","","","null","53","","","","","","","","","","","","","","","",""
"","ISI","","html-keyboard-response","355","651851","0.0-1.0-480.0","0","0","16424","","null","","","null","53","NaN","","","","","","","","","","","","","","",""
"","S2","","html-keyboard-response","356","652106","0.0-1.0-481.0","0","0","16424","","null","","","null","53","","NaN","","","","","","","","","","","","","",""
"","response","","html-keyboard-response","357","652415","0.0-1.0-482.0-0.0","0","0","16424","","306","","","68","53","","","2","53","training","adjacent","CB","3","2","L.jpg","R.jpg","1","0","0","",""
"","feedback","","html-keyboard-response","358","653420","0.0-1.0-483.0-0.0","0","0","16424","","null","","","null","53","","","","","","","","","","","","","","","",""
"","time_out","","html-keyboard-response","359","655425","0.0-1.0-485.0-0.0","0","0","16424","","null","","","null","53","","","","","","","","","","","","","","","",""
"","ITI","","html-keyboard-response","360","656429","0.0-1.0-486.0","0","0","16424","","null","","","null","53","","","","","","","","","","","","","","","NaN",""
"","S1","","html-keyboard-response","361","656683","0.0-1.0-488.0","0","0","16424","","null","","","null","54","","","","","","","","","","","","","","","",""
"","ISI","","html-keyboard-response","362","658688","0.0-1.0-489.0","0","0","16424","","1205","","","75","54","k","","","","","","","","","","","","","","",""
"","S2","","html-keyboard-response","363","658942","0.0-1.0-490.0","0","0","16424","","null","","","null","54","","NaN","","","","","","","","","","","","","",""
"","response","","html-keyboard-response","364","659423","0.0-1.0-491.0-0.0","0","0","16424","","477","","","75","54","","","2","54","training","adjacent","ED","5","4","N.jpg","Q.jpg","0","0","1","",""
"","feedback","","html-keyboard-response","365","660427","0.0-1.0-492.0-0.0","0","0","16424","","null","","","null","54","","","","","","","","","","","","","","","",""
"","ITI","","html-keyboard-response","366","661433","0.0-1.0-495.0","0","0","16424","","null","","","null","54","","","","","","","","","","","","","","","NaN",""
"","S1","","html-keyboard-response","367","661687","0.0-1.0-497.0","0","0","16424","","null","","","null","55","","","","","","","","","","","","","","","",""
"","ISI","","html-keyboard-response","368","663692","0.0-1.0-498.0","0","0","16424","","null","","","null","55","NaN","","","","","","","","","","","","","","",""
"","S2","","html-keyboard-response","369","663948","0.0-1.0-499.0","0","0","16424","","null","","","null","55","","NaN","","","","","","","","","","","","","",""
"","response","","html-keyboard-response","370","664483","0.0-1.0-500.0-0.0","0","0","16424","","531","","","68","55","","","2","55","training","adjacent","BC","2","3","R.jpg","L.jpg","1","1","1","",""
"","feedback","","html-keyboard-response","371","665488","0.0-1.0-501.0-0.0","0","0","16424","","null","","","null","55","","","","","","","","","","","","","","","",""
"","ITI","","html-keyboard-response","372","666493","0.0-1.0-504.0","0","0","16424","","null","","","null","55","","","","","","","","","","","","","","","NaN",""
"","S1","","html-keyboard-response","373","666747","0.0-1.0-506.0","0","0","16424","","null","","","null","56","","","","","","","","","","","","","","","",""
"","ISI","","html-keyboard-response","374","668752","0.0-1.0-507.0","0","0","16424","","null","","","null","56","NaN","","","","","","","","","","","","","","",""
"","S2","","html-keyboard-response","375","669006","0.0-1.0-508.0","0","0","16424","","null","","","null","56","","NaN","","","","","","","","","","","","","",""
"","response","","html-keyboard-response","376","669244","0.0-1.0-509.0-0.0","0","0","16424","","235","","","75","56","","","2","56","training","adjacent","DE","4","5","Q.jpg","N.jpg","0","1","0","",""
"","feedback","","html-keyboard-response","377","670249","0.0-1.0-510.0-0.0","0","0","16424","","null","","","null","56","","","","","","","","","","","","","","","",""
"","time_out","","html-keyboard-response","378","672254","0.0-1.0-512.0-0.0","0","0","16424","","null","","","null","56","","","","","","","","","","","","","","","",""
"","ITI","","html-keyboard-response","379","673258","0.0-1.0-513.0","0","0","16424","","null","","","null","56","","","","","","","","","","","","","","","NaN",""
"","S1","","html-keyboard-response","380","673512","0.0-1.0-515.0","0","0","16424","","null","","","null","57","","","","","","","","","","","","","","","",""
"","ISI","","html-keyboard-response","381","675516","0.0-1.0-516.0","0","0","16424","","null","","","null","57","NaN","","","","","","","","","","","","","","",""
"","S2","","html-keyboard-response","382","675770","0.0-1.0-517.0","0","0","16424","","null","","","null","57","","NaN","","","","","","","","","","","","","",""
"","response","","html-keyboard-response","383","676293","0.0-1.0-518.0-0.0","0","0","16424","","519","","","68","57","","","2","57","training","adjacent","BA","2","1","R.jpg","M.jpg","1","0","0","",""
"","feedback","","html-keyboard-response","384","677299","0.0-1.0-519.0-0.0","0","0","16424","","null","","","null","57","","","","","","","","","","","","","","","",""
"","time_out","","html-keyboard-response","385","679304","0.0-1.0-521.0-0.0","0","0","16424","","null","","","null","57","","","","","","","","","","","","","","","",""
"","ITI","","html-keyboard-response","386","680307","0.0-1.0-522.0","0","0","16424","","null","","","null","57","","","","","","","","","","","","","","","NaN",""
"","S1","","html-keyboard-response","387","680562","0.0-1.0-524.0","0","0","16424","","null","","","null","58","","","","","","","","","","","","","","","",""
"","ISI","","html-keyboard-response","388","682566","0.0-1.0-525.0","0","0","16424","","null","","","null","58","NaN","","","","","","","","","","","","","","",""
"","S2","","html-keyboard-response","389","682820","0.0-1.0-526.0","0","0","16424","","null","","","null","58","","NaN","","","","","","","","","","","","","",""
"","response","","html-keyboard-response","390","683367","0.0-1.0-527.0-0.0","0","0","16424","","543","","","75","58","","","2","58","training","adjacent","AB","1","2","M.jpg","R.jpg","0","1","0","",""
"","feedback","","html-keyboard-response","391","684374","0.0-1.0-528.0-0.0","0","0","16424","","null","","","null","58","","","","","","","","","","","","","","","",""
"","time_out","","html-keyboard-response","392","686378","0.0-1.0-530.0-0.0","0","0","16424","","null","","","null","58","","","","","","","","","","","","","","","",""
"","ITI","","html-keyboard-response","393","687383","0.0-1.0-531.0","0","0","16424","","null","","","null","58","","","","","","","","","","","","","","","NaN",""
"","S1","","html-keyboard-response","394","687638","0.0-1.0-533.0","0","0","16424","","null","","","null","59","","","","","","","","","","","","","","","",""
"","ISI","","html-keyboard-response","395","689644","0.0-1.0-534.0","0","0","16424","","null","","","null","59","NaN","","","","","","","","","","","","","","",""
"","S2","","html-keyboard-response","396","689898","0.0-1.0-535.0","0","0","16424","","null","","","null","59","","NaN","","","","","","","","","","","","","",""
"","response","","html-keyboard-response","397","690315","0.0-1.0-536.0-0.0","0","0","16424","","410","","","68","59","","","2","59","training","adjacent","FG","6","7","O.jpg","P.jpg","1","1","1","",""
"","feedback","","html-keyboard-response","398","691319","0.0-1.0-537.0-0.0","0","0","16424","","null","","","null","59","","","","","","","","","","","","","","","",""
"","ITI","","html-keyboard-response","399","692324","0.0-1.0-540.0","0","0","16424","","null","","","null","59","","","","","","","","","","","","","","","NaN",""
"","S1","","html-keyboard-response","400","692578","0.0-1.0-542.0","0","0","16424","","null","","","null","60","","","","","","","","","","","","","","","",""
"","ISI","","html-keyboard-response","401","694584","0.0-1.0-543.0","0","0","16424","","null","","","null","60","NaN","","","","","","","","","","","","","","",""
"","S2","","html-keyboard-response","402","694838","0.0-1.0-544.0","0","0","16424","","null","","","null","60","","NaN","","","","","","","","","","","","","",""
"","response","","html-keyboard-response","403","695618","0.0-1.0-545.0-0.0","0","0","16424","","776","","","75","60","","","2","60","training","adjacent","ED","5","4","N.jpg","Q.jpg","0","0","1","",""
"","feedback","","html-keyboard-response","404","696623","0.0-1.0-546.0-0.0","0","0","16424","","null","","","null","60","","","","","","","","","","","","","","","",""
"","ITI","","html-keyboard-response","405","697628","0.0-1.0-549.0","0","0","16424","","null","","","null","60","","","","","","","","","","","","","","","NaN",""
"","S1","","html-keyboard-response","406","697884","0.0-1.0-551.0","0","0","16424","","null","","","null","61","","","","","","","","","","","","","","","",""
"","ISI","","html-keyboard-response","407","699888","0.0-1.0-552.0","0","0","16424","","null","","","null","61","NaN","","","","","","","","","","","","","","",""
"","S2","","html-keyboard-response","408","700143","0.0-1.0-553.0","0","0","16424","","null","","","null","61","","NaN","","","","","","","","","","","","","",""
"","response","","html-keyboard-response","409","700556","0.0-1.0-554.0-0.0","0","0","16424","","409","","","68","61","","","2","61","training","adjacent","FE","6","5","O.jpg","N.jpg","1","0","0","",""
"","feedback","","html-keyboard-response","410","701562","0.0-1.0-555.0-0.0","0","0","16424","","null","","","null","61","","","","","","","","","","","","","","","",""
"","time_out","","html-keyboard-response","411","703567","0.0-1.0-557.0-0.0","0","0","16424","","null","","","null","61","","","","","","","","","","","","","","","",""
"","ITI","","html-keyboard-response","412","704571","0.0-1.0-558.0","0","0","16424","","null","","","null","61","","","","","","","","","","","","","","","NaN",""
"","S1","","html-keyboard-response","413","704826","0.0-1.0-560.0","0","0","16424","","null","","","null","62","","","","","","","","","","","","","","","",""
"","ISI","","html-keyboard-response","414","706831","0.0-1.0-561.0","0","0","16424","","null","","","null","62","NaN","","","","","","","","","","","","","","",""
"","S2","","html-keyboard-response","415","707086","0.0-1.0-562.0","0","0","16424","","null","","","null","62","","NaN","","","","","","","","","","","","","",""
"","response","","html-keyboard-response","416","707563","0.0-1.0-563.0-0.0","0","0","16424","","471","","","75","62","","","2","62","training","adjacent","GF","7","6","P.jpg","O.jpg","0","0","1","",""
"","feedback","","html-keyboard-response","417","708567","0.0-1.0-564.0-0.0","0","0","16424","","null","","","null","62","","","","","","","","","","","","","","","",""
"","ITI","","html-keyboard-response","418","709573","0.0-1.0-567.0","0","0","16424","","null","","","null","62","","","","","","","","","","","","","","","NaN",""
"","S1","","html-keyboard-response","419","709828","0.0-1.0-569.0","0","0","16424","","null","","","null","63","","","","","","","","","","","","","","","",""
"","ISI","","html-keyboard-response","420","711834","0.0-1.0-570.0","0","0","16424","","null","","","null","63","NaN","","","","","","","","","","","","","","",""
"","S2","","html-keyboard-response","421","712088","0.0-1.0-571.0","0","0","16424","","null","","","null","63","","NaN","","","","","","","","","","","","","",""
"","response","","html-keyboard-response","422","712517","0.0-1.0-572.0-0.0","0","0","16424","","425","","","68","63","","","2","63","training","adjacent","CB","3","2","L.jpg","R.jpg","1","0","0","",""
"","feedback","","html-keyboard-response","423","713522","0.0-1.0-573.0-0.0","0","0","16424","","null","","","null","63","","","","","","","","","","","","","","","",""
"","time_out","","html-keyboard-response","424","715527","0.0-1.0-575.0-0.0","0","0","16424","","null","","","null","63","","","","","","","","","","","","","","","",""
"","ITI","","html-keyboard-response","425","716532","0.0-1.0-576.0","0","0","16424","","null","","","null","63","","","","","","","","","","","","","","","NaN",""
"","S1","","html-keyboard-response","426","716786","0.0-1.0-578.0","0","0","16424","","null","","","null","64","","","","","","","","","","","","","","","",""
"","ISI","","html-keyboard-response","427","718790","0.0-1.0-579.0","0","0","16424","","null","","","null","64","NaN","","","","","","","","","","","","","","",""
"","S2","","html-keyboard-response","428","719046","0.0-1.0-580.0","0","0","16424","","null","","","null","64","","NaN","","","","","","","","","","","","","",""
"","response","","html-keyboard-response","429","719700","0.0-1.0-581.0-0.0","0","0","16424","","650","","","75","64","","","2","64","training","adjacent","DE","4","5","Q.jpg","N.jpg","0","1","0","",""
"","feedback","","html-keyboard-response","430","720705","0.0-1.0-582.0-0.0","0","0","16424","","null","","","null","64","","","","","","","","","","","","","","","",""
"","time_out","","html-keyboard-response","431","722709","0.0-1.0-584.0-0.0","0","0","16424","","null","","","null","64","","","","","","","","","","","","","","","",""
"","ITI","","html-keyboard-response","432","723716","0.0-1.0-585.0","0","0","16424","","null","","","null","64","","","","","","","","","","","","","","","NaN",""
"","S1","","html-keyboard-response","433","723970","0.0-1.0-587.0","0","0","16424","","null","","","null","65","","","","","","","","","","","","","","","",""
"","ISI","","html-keyboard-response","434","725974","0.0-1.0-588.0","0","0","16424","","null","","","null","65","NaN","","","","","","","","","","","","","","",""
"","S2","","html-keyboard-response","435","726230","0.0-1.0-589.0","0","0","16424","","null","","","null","65","","NaN","","","","","","","","","","","","","",""
"","response","","html-keyboard-response","436","727218","0.0-1.0-590.0-0.0","0","0","16424","","985","","","68","65","","","2","65","training","adjacent","ED","5","4","N.jpg","Q.jpg","1","0","0","",""
"","feedback","","html-keyboard-response","437","728223","0.0-1.0-591.0-0.0","0","0","16424","","null","","","null","65","","","","","","","","","","","","","","","",""
"","time_out","","html-keyboard-response","438","730229","0.0-1.0-593.0-0.0","0","0","16424","","null","","","null","65","","","","","","","","","","","","","","","",""
"","ITI","","html-keyboard-response","439","731233","0.0-1.0-594.0","0","0","16424","","null","","","null","65","","","","","","","","","","","","","","","NaN",""
"","S1","","html-keyboard-response","440","731492","0.0-1.0-596.0","0","0","16424","","null","","","null","66","","","","","","","","","","","","","","","",""
"","ISI","","html-keyboard-response","441","733496","0.0-1.0-597.0","0","0","16424","","null","","","null","66","NaN","","","","","","","","","","","","","","",""
"","S2","","html-keyboard-response","442","733751","0.0-1.0-598.0","0","0","16424","","null","","","null","66","","NaN","","","","","","","","","","","","","",""
"","response","","html-keyboard-response","443","734374","0.0-1.0-599.0-0.0","0","0","16424","","618","","","75","66","","","2","66","training","adjacent","GF","7","6","P.jpg","O.jpg","0","0","1","",""
"","feedback","","html-keyboard-response","444","735380","0.0-1.0-600.0-0.0","0","0","16424","","null","","","null","66","","","","","","","","","","","","","","","",""
"","ITI","","html-keyboard-response","445","736385","0.0-1.0-603.0","0","0","16424","","null","","","null","66","","","","","","","","","","","","","","","NaN",""
"","S1","","html-keyboard-response","446","736640","0.0-1.0-605.0","0","0","16424","","null","","","null","67","","","","","","","","","","","","","","","",""
"","ISI","","html-keyboard-response","447","738646","0.0-1.0-606.0","0","0","16424","","null","","","null","67","NaN","","","","","","","","","","","","","","",""
"","S2","","html-keyboard-response","448","738900","0.0-1.0-607.0","0","0","16424","","null","","","null","67","","NaN","","","","","","","","","","","","","",""
"","response","","html-keyboard-response","449","739215","0.0-1.0-608.0-0.0","0","0","16424","","311","","","68","67","","","2","67","training","adjacent","EF","5","6","N.jpg","O.jpg","1","1","1","",""
"","feedback","","html-keyboard-response","450","740219","0.0-1.0-609.0-0.0","0","0","16424","","null","","","null","67","","","","","","","","","","","","","","","",""
"","ITI","","html-keyboard-response","451","741224","0.0-1.0-612.0","0","0","16424","","null","","","null","67","","","","","","","","","","","","","","","NaN",""
"","S1","","html-keyboard-response","452","741479","0.0-1.0-614.0","0","0","16424","","null","","","null","68","","","","","","","","","","","","","","","",""
"","ISI","","html-keyboard-response","453","743483","0.0-1.0-615.0","0","0","16424","","null","","","null","68","NaN","","","","","","","","","","","","","","",""
"","S2","","html-keyboard-response","454","743738","0.0-1.0-616.0","0","0","16424","","null","","","null","68","","NaN","","","","","","","","","","","","","",""
"","response","","html-keyboard-response","455","744221","0.0-1.0-617.0-0.0","0","0","16424","","479","","","75","68","","","2","68","training","adjacent","FE","6","5","O.jpg","N.jpg","0","0","1","",""
"","feedback","","html-keyboard-response","456","745225","0.0-1.0-618.0-0.0","0","0","16424","","null","","","null","68","","","","","","","","","","","","","","","",""
"","ITI","","html-keyboard-response","457","746230","0.0-1.0-621.0","0","0","16424","","null","","","null","68","","","","","","","","","","","","","","","NaN",""
"","S1","","html-keyboard-response","458","746485","0.0-1.0-623.0","0","0","16424","","null","","","null","69","","","","","","","","","","","","","","","",""
"","ISI","","html-keyboard-response","459","748489","0.0-1.0-624.0","0","0","16424","","null","","","null","69","NaN","","","","","","","","","","","","","","",""
"","S2","","html-keyboard-response","460","748745","0.0-1.0-625.0","0","0","16424","","null","","","null","69","","NaN","","","","","","","","","","","","","",""
"","response","","html-keyboard-response","461","749156","0.0-1.0-626.0-0.0","0","0","16424","","407","","","75","69","","","2","69","training","adjacent","DC","4","3","Q.jpg","L.jpg","0","0","1","",""
"","feedback","","html-keyboard-response","462","750162","0.0-1.0-627.0-0.0","0","0","16424","","null","","","null","69","","","","","","","","","","","","","","","",""
"","ITI","","html-keyboard-response","463","751166","0.0-1.0-630.0","0","0","16424","","null","","","null","69","","","","","","","","","","","","","","","NaN",""
"","S1","","html-keyboard-response","464","751420","0.0-1.0-632.0","0","0","16424","","null","","","null","70","","","","","","","","","","","","","","","",""
"","ISI","","html-keyboard-response","465","753424","0.0-1.0-633.0","0","0","16424","","null","","","null","70","NaN","","","","","","","","","","","","","","",""
"","S2","","html-keyboard-response","466","753679","0.0-1.0-634.0","0","0","16424","","null","","","null","70","","NaN","","","","","","","","","","","","","",""
"","response","","html-keyboard-response","467","753976","0.0-1.0-635.0-0.0","0","0","16424","","293","","","68","70","","","2","70","training","adjacent","ED","5","4","N.jpg","Q.jpg","1","0","0","",""
"","feedback","","html-keyboard-response","468","754983","0.0-1.0-636.0-0.0","0","0","16424","","null","","","null","70","","","","","","","","","","","","","","","",""
"","time_out","","html-keyboard-response","469","756988","0.0-1.0-638.0-0.0","0","0","16424","","null","","","null","70","","","","","","","","","","","","","","","",""
"","ITI","","html-keyboard-response","470","757994","0.0-1.0-639.0","0","0","16424","","null","","","null","70","","","","","","","","","","","","","","","NaN",""
"","S1","","html-keyboard-response","471","758248","0.0-1.0-641.0","0","0","16424","","null","","","null","71","","","","","","","","","","","","","","","",""
"","ISI","","html-keyboard-response","472","760254","0.0-1.0-642.0","0","0","16424","","null","","","null","71","NaN","","","","","","","","","","","","","","",""
"","S2","","html-keyboard-response","473","760508","0.0-1.0-643.0","0","0","16424","","null","","","null","71","","NaN","","","","","","","","","","","","","",""
"","response","","html-keyboard-response","474","760904","0.0-1.0-644.0-0.0","0","0","16424","","391","","","75","71","","","2","71","training","adjacent","BA","2","1","R.jpg","M.jpg","0","0","1","",""
"","feedback","","html-keyboard-response","475","761910","0.0-1.0-645.0-0.0","0","0","16424","","null","","","null","71","","","","","","","","","","","","","","","",""
"","ITI","","html-keyboard-response","476","762914","0.0-1.0-648.0","0","0","16424","","null","","","null","71","","","","","","","","","","","","","","","NaN",""
"","S1","","html-keyboard-response","477","763169","0.0-1.0-650.0","0","0","16424","","null","","","null","72","","","","","","","","","","","","","","","",""
"","ISI","","html-keyboard-response","478","765173","0.0-1.0-651.0","0","0","16424","","null","","","null","72","NaN","","","","","","","","","","","","","","",""
"","S2","","html-keyboard-response","479","765428","0.0-1.0-652.0","0","0","16424","","null","","","null","72","","NaN","","","","","","","","","","","","","",""
"","response","","html-keyboard-response","480","765870","0.0-1.0-653.0-0.0","0","0","16424","","438","","","68","72","","","2","72","training","adjacent","DC","4","3","Q.jpg","L.jpg","1","0","0","",""
"","feedback","","html-keyboard-response","481","766875","0.0-1.0-654.0-0.0","0","0","16424","","null","","","null","72","","","","","","","","","","","","","","","",""
"","time_out","","html-keyboard-response","482","768883","0.0-1.0-656.0-0.0","0","0","16424","","null","","","null","72","","","","","","","","","","","","","","","",""
"","ITI","","html-keyboard-response","483","769887","0.0-1.0-657.0","0","0","16424","","null","","","null","72","","","","","","","","","","","","","","","NaN",""
"","S1","","html-keyboard-response","484","770141","0.0-1.0-659.0","0","0","16424","","null","","","null","73","","","","","","","","","","","","","","","",""
"","ISI","","html-keyboard-response","485","772146","0.0-1.0-660.0","0","0","16424","","null","","","null","73","NaN","","","","","","","","","","","","","","",""
"","S2","","html-keyboard-response","486","772402","0.0-1.0-661.0","0","0","16424","","null","","","null","73","","NaN","","","","","","","","","","","","","",""
"","response","","html-keyboard-response","487","772832","0.0-1.0-662.0-0.0","0","0","16424","","426","","","75","73","","","2","73","training","adjacent","FE","6","5","O.jpg","N.jpg","0","0","1","",""
"","feedback","","html-keyboard-response","488","773836","0.0-1.0-663.0-0.0","0","0","16424","","null","","","null","73","","","","","","","","","","","","","","","",""
"","ITI","","html-keyboard-response","489","774843","0.0-1.0-666.0","0","0","16424","","null","","","null","73","","","","","","","","","","","","","","","NaN",""
"","S1","","html-keyboard-response","490","775098","0.0-1.0-668.0","0","0","16424","","null","","","null","74","","","","","","","","","","","","","","","",""
"","ISI","","html-keyboard-response","491","777119","0.0-1.0-669.0","0","0","16424","","null","","","null","74","NaN","","","","","","","","","","","","","","",""
"","S2","","html-keyboard-response","492","777374","0.0-1.0-670.0","0","0","16424","","null","","","null","74","","NaN","","","","","","","","","","","","","",""
"","response","","html-keyboard-response","493","777837","0.0-1.0-671.0-0.0","0","0","16424","","459","","","75","74","","","2","74","training","adjacent","DE","4","5","Q.jpg","N.jpg","0","1","0","",""
"","feedback","","html-keyboard-response","494","778843","0.0-1.0-672.0-0.0","0","0","16424","","null","","","null","74","","","","","","","","","","","","","","","",""
"","time_out","","html-keyboard-response","495","780847","0.0-1.0-674.0-0.0","0","0","16424","","null","","","null","74","","","","","","","","","","","","","","","",""
"","ITI","","html-keyboard-response","496","781851","0.0-1.0-675.0","0","0","16424","","null","","","null","74","","","","","","","","","","","","","","","NaN",""
"","S1","","html-keyboard-response","497","782106","0.0-1.0-677.0","0","0","16424","","null","","","null","75","","","","","","","","","","","","","","","",""
"","ISI","","html-keyboard-response","498","784110","0.0-1.0-678.0","0","0","16424","","null","","","null","75","NaN","","","","","","","","","","","","","","",""
"","S2","","html-keyboard-response","499","784365","0.0-1.0-679.0","0","0","16424","","null","","","null","75","","NaN","","","","","","","","","","","","","",""
"","response","","html-keyboard-response","500","784767","0.0-1.0-680.0-0.0","0","0","16424","","397","","","68","75","","","2","75","training","adjacent","AB","1","2","M.jpg","R.jpg","1","1","1","",""
"","feedback","","html-keyboard-response","501","785771","0.0-1.0-681.0-0.0","0","0","16424","","null","","","null","75","","","","","","","","","","","","","","","",""
"","ITI","","html-keyboard-response","502","786776","0.0-1.0-684.0","0","0","16424","","null","","","null","75","","","","","","","","","","","","","","","NaN",""
"","S1","","html-keyboard-response","503","787032","0.0-1.0-686.0","0","0","16424","","null","","","null","76","","","","","","","","","","","","","","","",""
"","ISI","","html-keyboard-response","504","789036","0.0-1.0-687.0","0","0","16424","","null","","","null","76","NaN","","","","","","","","","","","","","","",""
"","S2","","html-keyboard-response","505","789292","0.0-1.0-688.0","0","0","16424","","null","","","null","76","","NaN","","","","","","","","","","","","","",""
"","response","","html-keyboard-response","506","789813","0.0-1.0-689.0-0.0","0","0","16424","","517","","","75","76","","","2","76","training","adjacent","CD","3","4","L.jpg","Q.jpg","0","1","0","",""
"","feedback","","html-keyboard-response","507","790818","0.0-1.0-690.0-0.0","0","0","16424","","null","","","null","76","","","","","","","","","","","","","","","",""
"","time_out","","html-keyboard-response","508","792823","0.0-1.0-692.0-0.0","0","0","16424","","null","","","null","76","","","","","","","","","","","","","","","",""
"","ITI","","html-keyboard-response","509","793827","0.0-1.0-693.0","0","0","16424","","null","","","null","76","","","","","","","","","","","","","","","NaN",""
"","S1","","html-keyboard-response","510","794082","0.0-1.0-695.0","0","0","16424","","null","","","null","77","","","","","","","","","","","","","","","",""
"","ISI","","html-keyboard-response","511","796087","0.0-1.0-696.0","0","0","16424","","null","","","null","77","NaN","","","","","","","","","","","","","","",""
"","S2","","html-keyboard-response","512","796342","0.0-1.0-697.0","0","0","16424","","null","","","null","77","","NaN","","","","","","","","","","","","","",""
"","response","","html-keyboard-response","513","796709","0.0-1.0-698.0-0.0","0","0","16424","","362","","","75","77","","","2","77","training","adjacent","GF","7","6","P.jpg","O.jpg","0","0","1","",""
"","feedback","","html-keyboard-response","514","797715","0.0-1.0-699.0-0.0","0","0","16424","","null","","","null","77","","","","","","","","","","","","","","","",""
"","ITI","","html-keyboard-response","515","798720","0.0-1.0-702.0","0","0","16424","","null","","","null","77","","","","","","","","","","","","","","","NaN",""
"","S1","","html-keyboard-response","516","798975","0.0-1.0-704.0","0","0","16424","","null","","","null","78","","","","","","","","","","","","","","","",""
"","ISI","","html-keyboard-response","517","800979","0.0-1.0-705.0","0","0","16424","","null","","","null","78","NaN","","","","","","","","","","","","","","",""
"","S2","","html-keyboard-response","518","801235","0.0-1.0-706.0","0","0","16424","","null","","","null","78","","NaN","","","","","","","","","","","","","",""
"","response","","html-keyboard-response","519","801590","0.0-1.0-707.0-0.0","0","0","16424","","351","","","68","78","","","2","78","training","adjacent","EF","5","6","N.jpg","O.jpg","1","1","1","",""
"","feedback","","html-keyboard-response","520","802596","0.0-1.0-708.0-0.0","0","0","16424","","null","","","null","78","","","","","","","","","","","","","","","",""
"","ITI","","html-keyboard-response","521","803601","0.0-1.0-711.0","0","0","16424","","null","","","null","78","","","","","","","","","","","","","","","NaN",""
"","S1","","html-keyboard-response","522","803856","0.0-1.0-713.0","0","0","16424","","null","","","null","79","","","","","","","","","","","","","","","",""
"","ISI","","html-keyboard-response","523","805861","0.0-1.0-714.0","0","0","16424","","null","","","null","79","NaN","","","","","","","","","","","","","","",""
"","S2","","html-keyboard-response","524","806116","0.0-1.0-715.0","0","0","16424","","null","","","null","79","","NaN","","","","","","","","","","","","","",""
"","response","","html-keyboard-response","525","806622","0.0-1.0-716.0-0.0","0","0","16424","","502","","","75","79","","","2","79","training","adjacent","FG","6","7","O.jpg","P.jpg","0","1","0","",""
"","feedback","","html-keyboard-response","526","807626","0.0-1.0-717.0-0.0","0","0","16424","","null","","","null","79","","","","","","","","","","","","","","","",""
"","time_out","","html-keyboard-response","527","809630","0.0-1.0-719.0-0.0","0","0","16424","","null","","","null","79","","","","","","","","","","","","","","","",""
"","ITI","","html-keyboard-response","528","810635","0.0-1.0-720.0","0","0","16424","","null","","","null","79","","","","","","","","","","","","","","","NaN",""
"","S1","","html-keyboard-response","529","810891","0.0-1.0-722.0","0","0","16424","","null","","","null","80","","","","","","","","","","","","","","","",""
"","ISI","","html-keyboard-response","530","812895","0.0-1.0-723.0","0","0","16424","","null","","","null","80","NaN","","","","","","","","","","","","","","",""
"","S2","","html-keyboard-response","531","813150","0.0-1.0-724.0","0","0","16424","","null","","","null","80","","NaN","","","","","","","","","","","","","",""
"","response","","html-keyboard-response","532","813600","0.0-1.0-725.0-0.0","0","0","16424","","446","","","68","80","","","2","80","training","adjacent","FE","6","5","O.jpg","N.jpg","1","0","0","",""
"","feedback","","html-keyboard-response","533","814611","0.0-1.0-726.0-0.0","0","0","16424","","null","","","null","80","","","","","","","","","","","","","","","",""
"","time_out","","html-keyboard-response","534","816618","0.0-1.0-728.0-0.0","0","0","16424","","null","","","null","80","","","","","","","","","","","","","","","",""
"","ITI","","html-keyboard-response","535","817622","0.0-1.0-729.0","0","0","16424","","null","","","null","80","","","","","","","","","","","","","","","NaN",""
"","S1","","html-keyboard-response","536","817877","0.0-1.0-731.0","0","0","16424","","null","","","null","81","","","","","","","","","","","","","","","",""
"","ISI","","html-keyboard-response","537","819886","0.0-1.0-732.0","0","0","16424","","null","","","null","81","NaN","","","","","","","","","","","","","","",""
"","S2","","html-keyboard-response","538","820142","0.0-1.0-733.0","0","0","16424","","null","","","null","81","","NaN","","","","","","","","","","","","","",""
"","response","","html-keyboard-response","539","820487","0.0-1.0-734.0-0.0","0","0","16424","","340","","","75","81","","","2","81","training","adjacent","EF","5","6","N.jpg","O.jpg","0","1","0","",""
"","feedback","","html-keyboard-response","540","821493","0.0-1.0-735.0-0.0","0","0","16424","","null","","","null","81","","","","","","","","","","","","","","","",""
"","time_out","","html-keyboard-response","541","823499","0.0-1.0-737.0-0.0","0","0","16424","","null","","","null","81","","","","","","","","","","","","","","","",""
"","ITI","","html-keyboard-response","542","824504","0.0-1.0-738.0","0","0","16424","","null","","","null","81","","","","","","","","","","","","","","","NaN",""
"","S1","","html-keyboard-response","543","824760","0.0-1.0-740.0","0","0","16424","","null","","","null","82","","","","","","","","","","","","","","","",""
"","ISI","","html-keyboard-response","544","826770","0.0-1.0-741.0","0","0","16424","","null","","","null","82","NaN","","","","","","","","","","","","","","",""
"","S2","","html-keyboard-response","545","827025","0.0-1.0-742.0","0","0","16424","","null","","","null","82","","NaN","","","","","","","","","","","","","",""
"","response","","html-keyboard-response","546","827401","0.0-1.0-743.0-0.0","0","0","16424","","372","","","68","82","","","2","82","training","adjacent","BA","2","1","R.jpg","M.jpg","1","0","0","",""
"","feedback","","html-keyboard-response","547","828407","0.0-1.0-744.0-0.0","0","0","16424","","null","","","null","82","","","","","","","","","","","","","","","",""
"","time_out","","html-keyboard-response","548","830412","0.0-1.0-746.0-0.0","0","0","16424","","null","","","null","82","","","","","","","","","","","","","","","",""
"","ITI","","html-keyboard-response","549","831417","0.0-1.0-747.0","0","0","16424","","null","","","null","82","","","","","","","","","","","","","","","NaN",""
"","S1","","html-keyboard-response","550","831672","0.0-1.0-749.0","0","0","16424","","null","","","null","83","","","","","","","","","","","","","","","",""
"","ISI","","html-keyboard-response","551","833677","0.0-1.0-750.0","0","0","16424","","null","","","null","83","NaN","","","","","","","","","","","","","","",""
"","S2","","html-keyboard-response","552","833932","0.0-1.0-751.0","0","0","16424","","null","","","null","83","","NaN","","","","","","","","","","","","","",""
"","response","","html-keyboard-response","553","834430","0.0-1.0-752.0-0.0","0","0","16424","","494","","","75","83","","","2","83","training","adjacent","FG","6","7","O.jpg","P.jpg","0","1","0","",""
"","feedback","","html-keyboard-response","554","835435","0.0-1.0-753.0-0.0","0","0","16424","","null","","","null","83","","","","","","","","","","","","","","","",""
"","time_out","","html-keyboard-response","555","837440","0.0-1.0-755.0-0.0","0","0","16424","","null","","","null","83","","","","","","","","","","","","","","","",""
"","ITI","","html-keyboard-response","556","838445","0.0-1.0-756.0","0","0","16424","","null","","","null","83","","","","","","","","","","","","","","","NaN",""
"","S1","","html-keyboard-response","557","838700","0.0-1.0-758.0","0","0","16424","","null","","","null","84","","","","","","","","","","","","","","","",""
"","ISI","","html-keyboard-response","558","840705","0.0-1.0-759.0","0","0","16424","","null","","","null","84","NaN","","","","","","","","","","","","","","",""
"","S2","","html-keyboard-response","559","840960","0.0-1.0-760.0","0","0","16424","","null","","","null","84","","NaN","","","","","","","","","","","","","",""
"","response","","html-keyboard-response","560","841320","0.0-1.0-761.0-0.0","0","0","16424","","356","","","68","84","","","2","84","training","adjacent","CB","3","2","L.jpg","R.jpg","1","0","0","",""
"","feedback","","html-keyboard-response","561","842326","0.0-1.0-762.0-0.0","0","0","16424","","null","","","null","84","","","","","","","","","","","","","","","",""
"","time_out","","html-keyboard-response","562","844330","0.0-1.0-764.0-0.0","0","0","16424","","null","","","null","84","","","","","","","","","","","","","","","",""
"","ITI","","html-keyboard-response","563","845335","0.0-1.0-765.0","0","0","16424","","null","","","null","84","","","","","","","","","","","","","","","NaN",""
"","S1","","html-keyboard-response","564","845591","0.0-1.0-767.0","0","0","16424","","null","","","null","85","","","","","","","","","","","","","","","",""
"","ISI","","html-keyboard-response","565","847594","0.0-1.0-768.0","0","0","16424","","null","","","null","85","NaN","","","","","","","","","","","","","","",""
"","S2","","html-keyboard-response","566","847848","0.0-1.0-769.0","0","0","16424","","null","","","null","85","","NaN","","","","","","","","","","","","","",""
"","response","","html-keyboard-response","567","848346","0.0-1.0-770.0-0.0","0","0","16424","","494","","","75","85","","","2","85","training","adjacent","BC","2","3","R.jpg","L.jpg","0","1","0","",""
"","feedback","","html-keyboard-response","568","849350","0.0-1.0-771.0-0.0","0","0","16424","","null","","","null","85","","","","","","","","","","","","","","","",""
"","time_out","","html-keyboard-response","569","851356","0.0-1.0-773.0-0.0","0","0","16424","","null","","","null","85","","","","","","","","","","","","","","","",""
"","ITI","","html-keyboard-response","570","852360","0.0-1.0-774.0","0","0","16424","","null","","","null","85","","","","","","","","","","","","","","","NaN",""
"","S1","","html-keyboard-response","571","852615","0.0-1.0-776.0","0","0","16424","","null","","","null","86","","","","","","","","","","","","","","","",""
"","ISI","","html-keyboard-response","572","854622","0.0-1.0-777.0","0","0","16424","","null","","","null","86","NaN","","","","","","","","","","","","","","",""
"","S2","","html-keyboard-response","573","854877","0.0-1.0-778.0","0","0","16424","","null","","","null","86","","NaN","","","","","","","","","","","","","",""
"","response","","html-keyboard-response","574","855362","0.0-1.0-779.0-0.0","0","0","16424","","481","","","68","86","","","2","86","training","adjacent","DC","4","3","Q.jpg","L.jpg","1","0","0","",""
"","feedback","","html-keyboard-response","575","856366","0.0-1.0-780.0-0.0","0","0","16424","","null","","","null","86","","","","","","","","","","","","","","","",""
"","time_out","","html-keyboard-response","576","858372","0.0-1.0-782.0-0.0","0","0","16424","","null","","","null","86","","","","","","","","","","","","","","","",""
"","ITI","","html-keyboard-response","577","859377","0.0-1.0-783.0","0","0","16424","","null","","","null","86","","","","","","","","","","","","","","","NaN",""
"","S1","","html-keyboard-response","578","859636","0.0-1.0-785.0","0","0","16424","","null","","","null","87","","","","","","","","","","","","","","","",""
"","ISI","","html-keyboard-response","579","861641","0.0-1.0-786.0","0","0","16424","","null","","","null","87","NaN","","","","","","","","","","","","","","",""
"","S2","","html-keyboard-response","580","861896","0.0-1.0-787.0","0","0","16424","","null","","","null","87","","NaN","","","","","","","","","","","","","",""
