"success","ttype","start_time","trial_type","trial_index","time_elapsed","internal_node_id","warning","missed_checkup","PID","view_history","rt","responses","repeat_instructions","key_press","index","keypress_isi","keypress_S2","block","trial_num","phase","group_type","pair_type","S1_stim","S2_stim","S1_img","S2_img","S1_chosen","S1_higher","accuracy","keypress_iti","total_bonus_tally"
"true","full_screen","d04152023hr1318","fullscreen","0","34813","0.0-0.0","0","0","98891","","","","","","","","","","","","","","","","","","","","","",""
"","instructions","","instructions","1","75178","0.0-1.0-0.0-0.0","0","0","98891","[{""page_index"":0,""viewing_time"":4344},{""page_index"":1,""viewing_time"":22494},{""page_index"":2,""viewing_time"":11465},{""page_index"":3,""viewing_time"":2060}]","40363","","","","","","","","","","","","","","","","","","","",""
"","comprehension_check","","survey-multi-choice","2","98921","0.0-1.0-0.0-1.0","0","0","98891","","23741","{""Q0"":""True"",""Q1"":""K"",""Q2"":""Only when the screen 'MAKE A CHOICE' is shown"",""Q3"":""Green mark"",""Q4"":""either D or K""}","1","","","","","","","","","","","","","","","","","",""
"","missed_instruction_checkup","","html-keyboard-response","3","101312","0.0-1.0-0.0-2.0-0.0","0","1","98891","","2388","","","32","","","","","","","","","","","","","","","","",""
"","instructions","","instructions","4","116905","0.0-1.0-0.1-0.1","0","0","98891","[{""page_index"":0,""viewing_time"":4527},{""page_index"":1,""viewing_time"":9253},{""page_index"":2,""viewing_time"":1057},{""page_index"":3,""viewing_time"":754}]","15591","","","","","","","","","","","","","","","","","","","",""
"","comprehension_check","","survey-multi-choice","5","130482","0.0-1.0-0.1-1.1","0","0","98891","","13575","{""Q0"":""True"",""Q1"":""K"",""Q2"":""Once the second image appears and while the screen 'MAKE A CHOICE' is shown"",""Q3"":""Green mark"",""Q4"":""either D or K""}","0","","","","","","","","","","","","","","","","","",""
"","start_exp","","html-keyboard-response","6","133086","0.0-1.0-1.0","0","0","98891","","2601","","","32","","","","","","","","","","","","","","","","",""
"","S1","","html-keyboard-response","7","133339","0.0-1.0-2.0","0","0","98891","","null","","","null","0","","","","","","","","","","","","","","","",""
"","ISI","","html-keyboard-response","8","134342","0.0-1.0-3.0","0","0","98891","","null","","","null","0","NaN","","","","","","","","","","","","","","",""
"","S2","","html-keyboard-response","9","134595","0.0-1.0-4.0","0","0","98891","","null","","","null","0","","NaN","","","","","","","","","","","","","",""
"","response","","html-keyboard-response","10","136301","0.0-1.0-5.0-0.0","0","0","98891","","1704","","","75","0","","","1","0","training","adjacent","FG","6","7","R.jpg","O.jpg","1","1","1","",""
"","feedback","","html-keyboard-response","11","137305","0.0-1.0-6.0-0.0","0","0","98891","","null","","","null","0","","","","","","","","","","","","","","","",""
"","ITI","","html-keyboard-response","12","138309","0.0-1.0-9.0","0","0","98891","","null","","","null","0","","","","","","","","","","","","","","","NaN",""
"","S1","","html-keyboard-response","13","138562","0.0-1.0-11.0","0","0","98891","","null","","","null","1","","","","","","","","","","","","","","","",""
"","ISI","","html-keyboard-response","14","139564","0.0-1.0-12.0","0","0","98891","","null","","","null","1","NaN","","","","","","","","","","","","","","",""
"","S2","","html-keyboard-response","15","139816","0.0-1.0-13.0","0","0","98891","","null","","","null","1","","NaN","","","","","","","","","","","","","",""
"","response","","html-keyboard-response","16","140544","0.0-1.0-14.0-0.0","0","0","98891","","726","","","68","1","","","1","1","training","adjacent","DE","4","5","N.jpg","Q.jpg","0","1","0","",""
"","feedback","","html-keyboard-response","17","141547","0.0-1.0-15.0-0.0","0","0","98891","","null","","","null","1","","","","","","","","","","","","","","","",""
"","time_out","","html-keyboard-response","18","143549","0.0-1.0-17.0-0.0","0","0","98891","","null","","","null","1","","","","","","","","","","","","","","","",""
"","ITI","","html-keyboard-response","19","144551","0.0-1.0-18.0","0","0","98891","","null","","","null","1","","","","","","","","","","","","","","","NaN",""
"","S1","","html-keyboard-response","20","144803","0.0-1.0-20.0","0","0","98891","","null","","","null","2","","","","","","","","","","","","","","","",""
"","ISI","","html-keyboard-response","21","145806","0.0-1.0-21.0","0","0","98891","","null","","","null","2","NaN","","","","","","","","","","","","","","",""
"","S2","","html-keyboard-response","22","146058","0.0-1.0-22.0","0","0","98891","","null","","","null","2","","NaN","","","","","","","","","","","","","",""
"","response","","html-keyboard-response","23","147078","0.0-1.0-23.0-0.0","0","0","98891","","1020","","","68","2","","","1","2","training","adjacent","ED","5","4","Q.jpg","N.jpg","0","0","1","",""
"","feedback","","html-keyboard-response","24","148080","0.0-1.0-24.0-0.0","0","0","98891","","null","","","null","2","","","","","","","","","","","","","","","",""
"","ITI","","html-keyboard-response","25","149081","0.0-1.0-27.0","0","0","98891","","null","","","null","2","","","","","","","","","","","","","","","NaN",""
"","S1","","html-keyboard-response","26","149333","0.0-1.0-29.0","0","0","98891","","null","","","null","3","","","","","","","","","","","","","","","",""
"","ISI","","html-keyboard-response","27","150335","0.0-1.0-30.0","0","0","98891","","null","","","null","3","NaN","","","","","","","","","","","","","","",""
"","S2","","html-keyboard-response","28","150587","0.0-1.0-31.0","0","0","98891","","null","","","null","3","","NaN","","","","","","","","","","","","","",""
"","response","","html-keyboard-response","29","151055","0.0-1.0-32.0-0.0","0","0","98891","","466","","","75","3","","","1","3","training","adjacent","GF","7","6","O.jpg","R.jpg","1","0","0","",""
"","feedback","","html-keyboard-response","30","152056","0.0-1.0-33.0-0.0","0","0","98891","","null","","","null","3","","","","","","","","","","","","","","","",""
"","time_out","","html-keyboard-response","31","154058","0.0-1.0-35.0-0.0","0","0","98891","","null","","","null","3","","","","","","","","","","","","","","","",""
"","ITI","","html-keyboard-response","32","155061","0.0-1.0-36.0","0","0","98891","","null","","","null","3","","","","","","","","","","","","","","","NaN",""
"","S1","","html-keyboard-response","33","155313","0.0-1.0-38.0","0","0","98891","","null","","","null","4","","","","","","","","","","","","","","","",""
"","ISI","","html-keyboard-response","34","156314","0.0-1.0-39.0","0","0","98891","","null","","","null","4","NaN","","","","","","","","","","","","","","",""
"","S2","","html-keyboard-response","35","156566","0.0-1.0-40.0","0","0","98891","","null","","","null","4","","NaN","","","","","","","","","","","","","",""
"","response","","html-keyboard-response","36","157361","0.0-1.0-41.0-0.0","0","0","98891","","794","","","68","4","","","1","4","training","adjacent","FE","6","5","R.jpg","Q.jpg","0","0","1","",""
"","feedback","","html-keyboard-response","37","158364","0.0-1.0-42.0-0.0","0","0","98891","","null","","","null","4","","","","","","","","","","","","","","","",""
"","ITI","","html-keyboard-response","38","159366","0.0-1.0-45.0","0","0","98891","","null","","","null","4","","","","","","","","","","","","","","","NaN",""
"","S1","","html-keyboard-response","39","159618","0.0-1.0-47.0","0","0","98891","","null","","","null","5","","","","","","","","","","","","","","","",""
"","ISI","","html-keyboard-response","40","160620","0.0-1.0-48.0","0","0","98891","","null","","","null","5","NaN","","","","","","","","","","","","","","",""
"","S2","","html-keyboard-response","41","160872","0.0-1.0-49.0","0","0","98891","","null","","","null","5","","NaN","","","","","","","","","","","","","",""
"","response","","html-keyboard-response","42","161789","0.0-1.0-50.0-0.0","0","0","98891","","914","","","68","5","","","1","5","training","adjacent","DE","4","5","N.jpg","Q.jpg","0","1","0","",""
"","feedback","","html-keyboard-response","43","162791","0.0-1.0-51.0-0.0","0","0","98891","","null","","","null","5","","","","","","","","","","","","","","","",""
"","time_out","","html-keyboard-response","44","164793","0.0-1.0-53.0-0.0","0","0","98891","","null","","","null","5","","","","","","","","","","","","","","","",""
"","ITI","","html-keyboard-response","45","165795","0.0-1.0-54.0","0","0","98891","","null","","","null","5","","","","","","","","","","","","","","","NaN",""
"","S1","","html-keyboard-response","46","166047","0.0-1.0-56.0","0","0","98891","","null","","","null","6","","","","","","","","","","","","","","","",""
"","ISI","","html-keyboard-response","47","167049","0.0-1.0-57.0","0","0","98891","","null","","","null","6","NaN","","","","","","","","","","","","","","",""
"","S2","","html-keyboard-response","48","167302","0.0-1.0-58.0","0","0","98891","","null","","","null","6","","NaN","","","","","","","","","","","","","",""
"","response","","html-keyboard-response","49","167835","0.0-1.0-59.0-0.0","0","0","98891","","532","","","75","6","","","1","6","training","adjacent","GF","7","6","O.jpg","R.jpg","1","0","0","",""
"","feedback","","html-keyboard-response","50","168837","0.0-1.0-60.0-0.0","0","0","98891","","null","","","null","6","","","","","","","","","","","","","","","",""
"","time_out","","html-keyboard-response","51","170839","0.0-1.0-62.0-0.0","0","0","98891","","null","","","null","6","","","","","","","","","","","","","","","",""
"","ITI","","html-keyboard-response","52","171843","0.0-1.0-63.0","0","0","98891","","null","","","null","6","","","","","","","","","","","","","","","NaN",""
"","S1","","html-keyboard-response","53","172095","0.0-1.0-65.0","0","0","98891","","null","","","null","7","","","","","","","","","","","","","","","",""
"","ISI","","html-keyboard-response","54","173096","0.0-1.0-66.0","0","0","98891","","null","","","null","7","NaN","","","","","","","","","","","","","","",""
"","S2","","html-keyboard-response","55","173348","0.0-1.0-67.0","0","0","98891","","null","","","null","7","","NaN","","","","","","","","","","","","","",""
"","response","","html-keyboard-response","56","174123","0.0-1.0-68.0-0.0","0","0","98891","","775","","","75","7","","","1","7","training","adjacent","EF","5","6","Q.jpg","R.jpg","1","1","1","",""
"","feedback","","html-keyboard-response","57","175125","0.0-1.0-69.0-0.0","0","0","98891","","null","","","null","7","","","","","","","","","","","","","","","",""
"","ITI","","html-keyboard-response","58","176127","0.0-1.0-72.0","0","0","98891","","null","","","null","7","","","","","","","","","","","","","","","NaN",""
"","S1","","html-keyboard-response","59","176378","0.0-1.0-74.0","0","0","98891","","null","","","null","8","","","","","","","","","","","","","","","",""
"","ISI","","html-keyboard-response","60","177380","0.0-1.0-75.0","0","0","98891","","null","","","null","8","NaN","","","","","","","","","","","","","","",""
"","S2","","html-keyboard-response","61","177632","0.0-1.0-76.0","0","0","98891","","null","","","null","8","","NaN","","","","","","","","","","","","","",""
"","response","","html-keyboard-response","62","178238","0.0-1.0-77.0-0.0","0","0","98891","","605","","","68","8","","","1","8","training","adjacent","CB","3","2","M.jpg","P.jpg","0","0","1","",""
"","feedback","","html-keyboard-response","63","179241","0.0-1.0-78.0-0.0","0","0","98891","","null","","","null","8","","","","","","","","","","","","","","","",""
"","ITI","","html-keyboard-response","64","180243","0.0-1.0-81.0","0","0","98891","","null","","","null","8","","","","","","","","","","","","","","","NaN",""
"","S1","","html-keyboard-response","65","180495","0.0-1.0-83.0","0","0","98891","","null","","","null","9","","","","","","","","","","","","","","","",""
"","ISI","","html-keyboard-response","66","181497","0.0-1.0-84.0","0","0","98891","","null","","","null","9","NaN","","","","","","","","","","","","","","",""
"","S2","","html-keyboard-response","67","181750","0.0-1.0-85.0","0","0","98891","","null","","","null","9","","NaN","","","","","","","","","","","","","",""
"","response","","html-keyboard-response","68","182338","0.0-1.0-86.0-0.0","0","0","98891","","587","","","68","9","","","1","9","training","adjacent","DC","4","3","N.jpg","M.jpg","0","0","1","",""
"","feedback","","html-keyboard-response","69","183340","0.0-1.0-87.0-0.0","0","0","98891","","null","","","null","9","","","","","","","","","","","","","","","",""
"","ITI","","html-keyboard-response","70","184342","0.0-1.0-90.0","0","0","98891","","null","","","null","9","","","","","","","","","","","","","","","NaN",""
"","S1","","html-keyboard-response","71","184595","0.0-1.0-92.0","0","0","98891","","null","","","null","10","","","","","","","","","","","","","","","",""
"","ISI","","html-keyboard-response","72","185598","0.0-1.0-93.0","0","0","98891","","null","","","null","10","NaN","","","","","","","","","","","","","","",""
"","S2","","html-keyboard-response","73","185850","0.0-1.0-94.0","0","0","98891","","null","","","null","10","","NaN","","","","","","","","","","","","","",""
"","response","","html-keyboard-response","74","186351","0.0-1.0-95.0-0.0","0","0","98891","","499","","","75","10","","","1","10","training","adjacent","BA","2","1","P.jpg","L.jpg","1","0","0","",""
"","feedback","","html-keyboard-response","75","187354","0.0-1.0-96.0-0.0","0","0","98891","","null","","","null","10","","","","","","","","","","","","","","","",""
"","time_out","","html-keyboard-response","76","189356","0.0-1.0-98.0-0.0","0","0","98891","","null","","","null","10","","","","","","","","","","","","","","","",""
"","ITI","","html-keyboard-response","77","190358","0.0-1.0-99.0","0","0","98891","","null","","","null","10","","","","","","","","","","","","","","","NaN",""
"","S1","","html-keyboard-response","78","190611","0.0-1.0-101.0","0","0","98891","","null","","","null","11","","","","","","","","","","","","","","","",""
"","ISI","","html-keyboard-response","79","191615","0.0-1.0-102.0","0","0","98891","","null","","","null","11","NaN","","","","","","","","","","","","","","",""
"","S2","","html-keyboard-response","80","191875","0.0-1.0-103.0","0","0","98891","","null","","","null","11","","NaN","","","","","","","","","","","","","",""
"","response","","html-keyboard-response","81","192312","0.0-1.0-104.0-0.0","0","0","98891","","435","","","68","11","","","1","11","training","adjacent","CB","3","2","M.jpg","P.jpg","0","0","1","",""
"","feedback","","html-keyboard-response","82","193315","0.0-1.0-105.0-0.0","0","0","98891","","null","","","null","11","","","","","","","","","","","","","","","",""
"","ITI","","html-keyboard-response","83","194317","0.0-1.0-108.0","0","0","98891","","null","","","null","11","","","","","","","","","","","","","","","NaN",""
"","S1","","html-keyboard-response","84","194570","0.0-1.0-110.0","0","0","98891","","null","","","null","12","","","","","","","","","","","","","","","",""
"","ISI","","html-keyboard-response","85","195572","0.0-1.0-111.0","0","0","98891","","null","","","null","12","NaN","","","","","","","","","","","","","","",""
"","S2","","html-keyboard-response","86","195824","0.0-1.0-112.0","0","0","98891","","null","","","null","12","","NaN","","","","","","","","","","","","","",""
"","response","","html-keyboard-response","87","196082","0.0-1.0-113.0-0.0","0","0","98891","","256","","","75","12","","","1","12","training","adjacent","EF","5","6","Q.jpg","R.jpg","1","1","1","",""
"","feedback","","html-keyboard-response","88","197084","0.0-1.0-114.0-0.0","0","0","98891","","null","","","null","12","","","","","","","","","","","","","","","",""
"","ITI","","html-keyboard-response","89","198087","0.0-1.0-117.0","0","0","98891","","null","","","null","12","","","","","","","","","","","","","","","NaN",""
"","S1","","html-keyboard-response","90","198338","0.0-1.0-119.0","0","0","98891","","null","","","null","13","","","","","","","","","","","","","","","",""
"","ISI","","html-keyboard-response","91","199340","0.0-1.0-120.0","0","0","98891","","null","","","null","13","NaN","","","","","","","","","","","","","","",""
"","S2","","html-keyboard-response","92","199592","0.0-1.0-121.0","0","0","98891","","null","","","null","13","","NaN","","","","","","","","","","","","","",""
"","response","","html-keyboard-response","93","199924","0.0-1.0-122.0-0.0","0","0","98891","","330","","","68","13","","","1","13","training","adjacent","GF","7","6","O.jpg","R.jpg","0","0","1","",""
"","feedback","","html-keyboard-response","94","200927","0.0-1.0-123.0-0.0","0","0","98891","","null","","","null","13","","","","","","","","","","","","","","","",""
"","ITI","","html-keyboard-response","95","201929","0.0-1.0-126.0","0","0","98891","","null","","","null","13","","","","","","","","","","","","","","","NaN",""
"","S1","","html-keyboard-response","96","202181","0.0-1.0-128.0","0","0","98891","","null","","","null","14","","","","","","","","","","","","","","","",""
"","ISI","","html-keyboard-response","97","203183","0.0-1.0-129.0","0","0","98891","","null","","","null","14","NaN","","","","","","","","","","","","","","",""
"","S2","","html-keyboard-response","98","203434","0.0-1.0-130.0","0","0","98891","","null","","","null","14","","NaN","","","","","","","","","","","","","",""
"","response","","html-keyboard-response","99","203992","0.0-1.0-131.0-0.0","0","0","98891","","557","","","68","14","","","1","14","training","adjacent","CB","3","2","M.jpg","P.jpg","0","0","1","",""
"","feedback","","html-keyboard-response","100","204994","0.0-1.0-132.0-0.0","0","0","98891","","null","","","null","14","","","","","","","","","","","","","","","",""
"","ITI","","html-keyboard-response","101","206010","0.0-1.0-135.0","0","0","98891","","null","","","null","14","","","","","","","","","","","","","","","NaN",""
"","S1","","html-keyboard-response","102","206261","0.0-1.0-137.0","0","0","98891","","null","","","null","15","","","","","","","","","","","","","","","",""
"","ISI","","html-keyboard-response","103","207262","0.0-1.0-138.0","0","0","98891","","null","","","null","15","NaN","","","","","","","","","","","","","","",""
"","S2","","html-keyboard-response","104","207514","0.0-1.0-139.0","0","0","98891","","null","","","null","15","","NaN","","","","","","","","","","","","","",""
"","response","","html-keyboard-response","105","208039","0.0-1.0-140.0-0.0","0","0","98891","","524","","","75","15","","","1","15","training","adjacent","ED","5","4","Q.jpg","N.jpg","1","0","0","",""
"","feedback","","html-keyboard-response","106","209042","0.0-1.0-141.0-0.0","0","0","98891","","null","","","null","15","","","","","","","","","","","","","","","",""
"","time_out","","html-keyboard-response","107","211044","0.0-1.0-143.0-0.0","0","0","98891","","null","","","null","15","","","","","","","","","","","","","","","",""
"","ITI","","html-keyboard-response","108","212046","0.0-1.0-144.0","0","0","98891","","null","","","null","15","","","","","","","","","","","","","","","NaN",""
"","S1","","html-keyboard-response","109","212297","0.0-1.0-146.0","0","0","98891","","null","","","null","16","","","","","","","","","","","","","","","",""
"","ISI","","html-keyboard-response","110","213299","0.0-1.0-147.0","0","0","98891","","null","","","null","16","NaN","","","","","","","","","","","","","","",""
"","S2","","html-keyboard-response","111","213551","0.0-1.0-148.0","0","0","98891","","null","","","null","16","","NaN","","","","","","","","","","","","","",""
"","response","","html-keyboard-response","112","213970","0.0-1.0-149.0-0.0","0","0","98891","","418","","","75","16","","","1","16","training","adjacent","BC","2","3","P.jpg","M.jpg","1","1","1","",""
"","feedback","","html-keyboard-response","113","214971","0.0-1.0-150.0-0.0","0","0","98891","","null","","","null","16","","","","","","","","","","","","","","","",""
"","ITI","","html-keyboard-response","114","215974","0.0-1.0-153.0","0","0","98891","","null","","","null","16","","","","","","","","","","","","","","","NaN",""
"","S1","","html-keyboard-response","115","216226","0.0-1.0-155.0","0","0","98891","","null","","","null","17","","","","","","","","","","","","","","","",""
"","ISI","","html-keyboard-response","116","217228","0.0-1.0-156.0","0","0","98891","","null","","","null","17","NaN","","","","","","","","","","","","","","",""
"","S2","","html-keyboard-response","117","217480","0.0-1.0-157.0","0","0","98891","","null","","","null","17","","NaN","","","","","","","","","","","","","",""
"","response","","html-keyboard-response","118","217945","0.0-1.0-158.0-0.0","0","0","98891","","462","","","75","17","","","1","17","training","adjacent","FG","6","7","R.jpg","O.jpg","1","1","1","",""
"","feedback","","html-keyboard-response","119","218947","0.0-1.0-159.0-0.0","0","0","98891","","null","","","null","17","","","","","","","","","","","","","","","",""
"","ITI","","html-keyboard-response","120","219949","0.0-1.0-162.0","0","0","98891","","null","","","null","17","","","","","","","","","","","","","","","NaN",""
"","S1","","html-keyboard-response","121","220201","0.0-1.0-164.0","0","0","98891","","null","","","null","18","","","","","","","","","","","","","","","",""
"","ISI","","html-keyboard-response","122","221204","0.0-1.0-165.0","0","0","98891","","null","","","null","18","NaN","","","","","","","","","","","","","","",""
"","S2","","html-keyboard-response","123","221456","0.0-1.0-166.0","0","0","98891","","null","","","null","18","","NaN","","","","","","","","","","","","","",""
"","response","","html-keyboard-response","124","221874","0.0-1.0-167.0-0.0","0","0","98891","","417","","","68","18","","","1","18","training","adjacent","CD","3","4","M.jpg","N.jpg","0","1","0","",""
"","feedback","","html-keyboard-response","125","222876","0.0-1.0-168.0-0.0","0","0","98891","","null","","","null","18","","","","","","","","","","","","","","","",""
"","time_out","","html-keyboard-response","126","224878","0.0-1.0-170.0-0.0","0","0","98891","","null","","","null","18","","","","","","","","","","","","","","","",""
"","ITI","","html-keyboard-response","127","225880","0.0-1.0-171.0","0","0","98891","","null","","","null","18","","","","","","","","","","","","","","","NaN",""
"","S1","","html-keyboard-response","128","226131","0.0-1.0-173.0","0","0","98891","","null","","","null","19","","","","","","","","","","","","","","","",""
"","ISI","","html-keyboard-response","129","227133","0.0-1.0-174.0","0","0","98891","","null","","","null","19","NaN","","","","","","","","","","","","","","",""
"","S2","","html-keyboard-response","130","227386","0.0-1.0-175.0","0","0","98891","","null","","","null","19","","NaN","","","","","","","","","","","","","",""
"","response","","html-keyboard-response","131","227675","0.0-1.0-176.0-0.0","0","0","98891","","287","","","75","19","","","1","19","training","adjacent","BA","2","1","P.jpg","L.jpg","1","0","0","",""
"","feedback","","html-keyboard-response","132","228677","0.0-1.0-177.0-0.0","0","0","98891","","null","","","null","19","","","","","","","","","","","","","","","",""
"","time_out","","html-keyboard-response","133","230679","0.0-1.0-179.0-0.0","0","0","98891","","null","","","null","19","","","","","","","","","","","","","","","",""
"","ITI","","html-keyboard-response","134","231681","0.0-1.0-180.0","0","0","98891","","null","","","null","19","","","","","","","","","","","","","","","NaN",""
"","S1","","html-keyboard-response","135","231933","0.0-1.0-182.0","0","0","98891","","null","","","null","20","","","","","","","","","","","","","","","",""
"","ISI","","html-keyboard-response","136","232935","0.0-1.0-183.0","0","0","98891","","null","","","null","20","NaN","","","","","","","","","","","","","","",""
"","S2","","html-keyboard-response","137","233188","0.0-1.0-184.0","0","0","98891","","null","","","null","20","","NaN","","","","","","","","","","","","","",""
"","response","","html-keyboard-response","138","233669","0.0-1.0-185.0-0.0","0","0","98891","","479","","","68","20","","","1","20","training","adjacent","BA","2","1","P.jpg","L.jpg","0","0","1","",""
"","feedback","","html-keyboard-response","139","234671","0.0-1.0-186.0-0.0","0","0","98891","","null","","","null","20","","","","","","","","","","","","","","","",""
"","ITI","","html-keyboard-response","140","235688","0.0-1.0-189.0","0","0","98891","","null","","","null","20","","","","","","","","","","","","","","","NaN",""
"","S1","","html-keyboard-response","141","235940","0.0-1.0-191.0","0","0","98891","","null","","","null","21","","","","","","","","","","","","","","","",""
"","ISI","","html-keyboard-response","142","236942","0.0-1.0-192.0","0","0","98891","","null","","","null","21","NaN","","","","","","","","","","","","","","",""
"","S2","","html-keyboard-response","143","237195","0.0-1.0-193.0","0","0","98891","","null","","","null","21","","NaN","","","","","","","","","","","","","",""
"","response","","html-keyboard-response","144","237811","0.0-1.0-194.0-0.0","0","0","98891","","615","","","68","21","","","1","21","training","adjacent","FE","6","5","R.jpg","Q.jpg","0","0","1","",""
"","feedback","","html-keyboard-response","145","238814","0.0-1.0-195.0-0.0","0","0","98891","","null","","","null","21","","","","","","","","","","","","","","","",""
"","ITI","","html-keyboard-response","146","239816","0.0-1.0-198.0","0","0","98891","","null","","","null","21","","","","","","","","","","","","","","","NaN",""
"","S1","","html-keyboard-response","147","240067","0.0-1.0-200.0","0","0","98891","","null","","","null","22","","","","","","","","","","","","","","","",""
"","ISI","","html-keyboard-response","148","241070","0.0-1.0-201.0","0","0","98891","","null","","","null","22","NaN","","","","","","","","","","","","","","",""
"","S2","","html-keyboard-response","149","241323","0.0-1.0-202.0","0","0","98891","","null","","","null","22","","NaN","","","","","","","","","","","","","",""
"","response","","html-keyboard-response","150","242136","0.0-1.0-203.0-0.0","0","0","98891","","811","","","75","22","","","1","22","training","adjacent","EF","5","6","Q.jpg","R.jpg","1","1","1","",""
"","feedback","","html-keyboard-response","151","243138","0.0-1.0-204.0-0.0","0","0","98891","","null","","","null","22","","","","","","","","","","","","","","","",""
"","ITI","","html-keyboard-response","152","244141","0.0-1.0-207.0","0","0","98891","","null","","","null","22","","","","","","","","","","","","","","","NaN",""
"","S1","","html-keyboard-response","153","244394","0.0-1.0-209.0","0","0","98891","","null","","","null","23","","","","","","","","","","","","","","","",""
"","ISI","","html-keyboard-response","154","245396","0.0-1.0-210.0","0","0","98891","","null","","","null","23","NaN","","","","","","","","","","","","","","",""
"","S2","","html-keyboard-response","155","245648","0.0-1.0-211.0","0","0","98891","","null","","","null","23","","NaN","","","","","","","","","","","","","",""
"","response","","html-keyboard-response","156","246555","0.0-1.0-212.0-0.0","0","0","98891","","905","","","75","23","","","1","23","training","adjacent","DE","4","5","N.jpg","Q.jpg","1","1","1","",""
"","feedback","","html-keyboard-response","157","247558","0.0-1.0-213.0-0.0","0","0","98891","","null","","","null","23","","","","","","","","","","","","","","","",""
"","ITI","","html-keyboard-response","158","248559","0.0-1.0-216.0","0","0","98891","","null","","","null","23","","","","","","","","","","","","","","","NaN",""
"","S1","","html-keyboard-response","159","248812","0.0-1.0-218.0","0","0","98891","","null","","","null","24","","","","","","","","","","","","","","","",""
"","ISI","","html-keyboard-response","160","249813","0.0-1.0-219.0","0","0","98891","","null","","","null","24","NaN","","","","","","","","","","","","","","",""
"","S2","","html-keyboard-response","161","250066","0.0-1.0-220.0","0","0","98891","","null","","","null","24","","NaN","","","","","","","","","","","","","",""
"","response","","html-keyboard-response","162","250675","0.0-1.0-221.0-0.0","0","0","98891","","607","","","75","24","","","1","24","training","adjacent","BC","2","3","P.jpg","M.jpg","1","1","1","",""
"","feedback","","html-keyboard-response","163","251677","0.0-1.0-222.0-0.0","0","0","98891","","null","","","null","24","","","","","","","","","","","","","","","",""
"","ITI","","html-keyboard-response","164","252679","0.0-1.0-225.0","0","0","98891","","null","","","null","24","","","","","","","","","","","","","","","NaN",""
"","S1","","html-keyboard-response","165","252931","0.0-1.0-227.0","0","0","98891","","null","","","null","25","","","","","","","","","","","","","","","",""
"","ISI","","html-keyboard-response","166","253933","0.0-1.0-228.0","0","0","98891","","null","","","null","25","NaN","","","","","","","","","","","","","","",""
"","S2","","html-keyboard-response","167","254186","0.0-1.0-229.0","0","0","98891","","null","","","null","25","","NaN","","","","","","","","","","","","","",""
"","response","","html-keyboard-response","168","254531","0.0-1.0-230.0-0.0","0","0","98891","","345","","","68","25","","","1","25","training","adjacent","BC","2","3","P.jpg","M.jpg","0","1","0","",""
"","feedback","","html-keyboard-response","169","255534","0.0-1.0-231.0-0.0","0","0","98891","","null","","","null","25","","","","","","","","","","","","","","","",""
"","time_out","","html-keyboard-response","170","257535","0.0-1.0-233.0-0.0","0","0","98891","","null","","","null","25","","","","","","","","","","","","","","","",""
"","ITI","","html-keyboard-response","171","258537","0.0-1.0-234.0","0","0","98891","","null","","","null","25","","","","","","","","","","","","","","","NaN",""
"","S1","","html-keyboard-response","172","258790","0.0-1.0-236.0","0","0","98891","","null","","","null","26","","","","","","","","","","","","","","","",""
"","ISI","","html-keyboard-response","173","259792","0.0-1.0-237.0","0","0","98891","","null","","","null","26","NaN","","","","","","","","","","","","","","",""
"","S2","","html-keyboard-response","174","260044","0.0-1.0-238.0","0","0","98891","","null","","","null","26","","NaN","","","","","","","","","","","","","",""
"","response","","html-keyboard-response","175","260282","0.0-1.0-239.0-0.0","0","0","98891","","236","","","75","26","","","1","26","training","adjacent","FE","6","5","R.jpg","Q.jpg","1","0","0","",""
"","feedback","","html-keyboard-response","176","261285","0.0-1.0-240.0-0.0","0","0","98891","","null","","","null","26","","","","","","","","","","","","","","","",""
"","time_out","","html-keyboard-response","177","263287","0.0-1.0-242.0-0.0","0","0","98891","","null","","","null","26","","","","","","","","","","","","","","","",""
"","ITI","","html-keyboard-response","178","264289","0.0-1.0-243.0","0","0","98891","","null","","","null","26","","","","","","","","","","","","","","","NaN",""
"","S1","","html-keyboard-response","179","264541","0.0-1.0-245.0","0","0","98891","","null","","","null","27","","","","","","","","","","","","","","","",""
"","ISI","","html-keyboard-response","180","265542","0.0-1.0-246.0","0","0","98891","","null","","","null","27","NaN","","","","","","","","","","","","","","",""
"","S2","","html-keyboard-response","181","265794","0.0-1.0-247.0","0","0","98891","","null","","","null","27","","NaN","","","","","","","","","","","","","",""
"","response","","html-keyboard-response","182","266597","0.0-1.0-248.0-0.0","0","0","98891","","801","","","68","27","","","1","27","training","adjacent","FE","6","5","R.jpg","Q.jpg","0","0","1","",""
"","feedback","","html-keyboard-response","183","267600","0.0-1.0-249.0-0.0","0","0","98891","","null","","","null","27","","","","","","","","","","","","","","","",""
"","ITI","","html-keyboard-response","184","268601","0.0-1.0-252.0","0","0","98891","","null","","","null","27","","","","","","","","","","","","","","","NaN",""
"","S1","","html-keyboard-response","185","268853","0.0-1.0-254.0","0","0","98891","","null","","","null","28","","","","","","","","","","","","","","","",""
"","ISI","","html-keyboard-response","186","269854","0.0-1.0-255.0","0","0","98891","","null","","","null","28","NaN","","","","","","","","","","","","","","",""
"","S2","","html-keyboard-response","187","270106","0.0-1.0-256.0","0","0","98891","","null","","","null","28","","NaN","","","","","","","","","","","","","",""
"","response","","html-keyboard-response","188","270850","0.0-1.0-257.0-0.0","0","0","98891","","742","","","75","28","","","1","28","training","adjacent","DE","4","5","N.jpg","Q.jpg","1","1","1","",""
"","feedback","","html-keyboard-response","189","271852","0.0-1.0-258.0-0.0","0","0","98891","","null","","","null","28","","","","","","","","","","","","","","","",""
"","ITI","","html-keyboard-response","190","272854","0.0-1.0-261.0","0","0","98891","","null","","","null","28","","","","","","","","","","","","","","","NaN",""
"","S1","","html-keyboard-response","191","273105","0.0-1.0-263.0","0","0","98891","","null","","","null","29","","","","","","","","","","","","","","","",""
"","ISI","","html-keyboard-response","192","274107","0.0-1.0-264.0","0","0","98891","","null","","","null","29","NaN","","","","","","","","","","","","","","",""
"","S2","","html-keyboard-response","193","274360","0.0-1.0-265.0","0","0","98891","","null","","","null","29","","NaN","","","","","","","","","","","","","",""
"","response","","html-keyboard-response","194","274686","0.0-1.0-266.0-0.0","0","0","98891","","325","","","68","29","","","1","29","training","adjacent","DC","4","3","N.jpg","M.jpg","0","0","1","",""
"","feedback","","html-keyboard-response","195","275688","0.0-1.0-267.0-0.0","0","0","98891","","null","","","null","29","","","","","","","","","","","","","","","",""
"","ITI","","html-keyboard-response","196","276689","0.0-1.0-270.0","0","0","98891","","null","","","null","29","","","","","","","","","","","","","","","NaN",""
"","S1","","html-keyboard-response","197","276941","0.0-1.0-272.0","0","0","98891","","null","","","null","30","","","","","","","","","","","","","","","",""
"","ISI","","html-keyboard-response","198","277943","0.0-1.0-273.0","0","0","98891","","null","","","null","30","NaN","","","","","","","","","","","","","","",""
"","S2","","html-keyboard-response","199","278195","0.0-1.0-274.0","0","0","98891","","null","","","null","30","","NaN","","","","","","","","","","","","","",""
"","response","","html-keyboard-response","200","279338","0.0-1.0-275.0-0.0","0","0","98891","","1141","","","68","30","","","1","30","training","adjacent","AB","1","2","L.jpg","P.jpg","0","1","0","",""
"","feedback","","html-keyboard-response","201","280341","0.0-1.0-276.0-0.0","0","0","98891","","null","","","null","30","","","","","","","","","","","","","","","",""
"","time_out","","html-keyboard-response","202","282343","0.0-1.0-278.0-0.0","0","0","98891","","null","","","null","30","","","","","","","","","","","","","","","",""
"","ITI","","html-keyboard-response","203","283345","0.0-1.0-279.0","0","0","98891","","null","","","null","30","","","","","","","","","","","","","","","NaN",""
"","S1","","html-keyboard-response","204","283597","0.0-1.0-281.0","0","0","98891","","null","","","null","31","","","","","","","","","","","","","","","",""
"","ISI","","html-keyboard-response","205","284599","0.0-1.0-282.0","0","0","98891","","null","","","null","31","NaN","","","","","","","","","","","","","","",""
"","S2","","html-keyboard-response","206","284851","0.0-1.0-283.0","0","0","98891","","null","","","null","31","","NaN","","","","","","","","","","","","","",""
"","response","","html-keyboard-response","207","285340","0.0-1.0-284.0-0.0","0","0","98891","","488","","","68","31","","","1","31","training","adjacent","BC","2","3","P.jpg","M.jpg","0","1","0","",""
"","feedback","","html-keyboard-response","208","286343","0.0-1.0-285.0-0.0","0","0","98891","","null","","","null","31","","","","","","","","","","","","","","","",""
"","time_out","","html-keyboard-response","209","288345","0.0-1.0-287.0-0.0","0","0","98891","","null","","","null","31","","","","","","","","","","","","","","","",""
"","ITI","","html-keyboard-response","210","289347","0.0-1.0-288.0","0","0","98891","","null","","","null","31","","","","","","","","","","","","","","","NaN",""
"","S1","","html-keyboard-response","211","289599","0.0-1.0-290.0","0","0","98891","","null","","","null","32","","","","","","","","","","","","","","","",""
"","ISI","","html-keyboard-response","212","290601","0.0-1.0-291.0","0","0","98891","","null","","","null","32","NaN","","","","","","","","","","","","","","",""
"","S2","","html-keyboard-response","213","290853","0.0-1.0-292.0","0","0","98891","","null","","","null","32","","NaN","","","","","","","","","","","","","",""
"","response","","html-keyboard-response","214","291169","0.0-1.0-293.0-0.0","0","0","98891","","316","","","75","32","","","1","32","training","adjacent","DC","4","3","N.jpg","M.jpg","1","0","0","",""
"","feedback","","html-keyboard-response","215","292171","0.0-1.0-294.0-0.0","0","0","98891","","null","","","null","32","","","","","","","","","","","","","","","",""
"","time_out","","html-keyboard-response","216","294174","0.0-1.0-296.0-0.0","0","0","98891","","null","","","null","32","","","","","","","","","","","","","","","",""
"","ITI","","html-keyboard-response","217","295175","0.0-1.0-297.0","0","0","98891","","null","","","null","32","","","","","","","","","","","","","","","NaN",""
"","S1","","html-keyboard-response","218","295427","0.0-1.0-299.0","0","0","98891","","null","","","null","33","","","","","","","","","","","","","","","",""
"","ISI","","html-keyboard-response","219","296428","0.0-1.0-300.0","0","0","98891","","null","","","null","33","NaN","","","","","","","","","","","","","","",""
"","S2","","html-keyboard-response","220","296681","0.0-1.0-301.0","0","0","98891","","null","","","null","33","","NaN","","","","","","","","","","","","","",""
"","response","","html-keyboard-response","221","298101","0.0-1.0-302.0-0.0","0","0","98891","","1419","","","75","33","","","1","33","training","adjacent","BA","2","1","P.jpg","L.jpg","1","0","0","",""
"","feedback","","html-keyboard-response","222","299103","0.0-1.0-303.0-0.0","0","0","98891","","null","","","null","33","","","","","","","","","","","","","","","",""
"","time_out","","html-keyboard-response","223","301105","0.0-1.0-305.0-0.0","0","0","98891","","null","","","null","33","","","","","","","","","","","","","","","",""
"","ITI","","html-keyboard-response","224","302107","0.0-1.0-306.0","0","0","98891","","null","","","null","33","","","","","","","","","","","","","","","NaN",""
"","S1","","html-keyboard-response","225","302359","0.0-1.0-308.0","0","0","98891","","null","","","null","34","","","","","","","","","","","","","","","",""
"","ISI","","html-keyboard-response","226","303361","0.0-1.0-309.0","0","0","98891","","null","","","null","34","NaN","","","","","","","","","","","","","","",""
"","S2","","html-keyboard-response","227","303613","0.0-1.0-310.0","0","0","98891","","null","","","null","34","","NaN","","","","","","","","","","","","","",""
"","response","","html-keyboard-response","228","303941","0.0-1.0-311.0-0.0","0","0","98891","","326","","","75","34","","","1","34","training","adjacent","AB","1","2","L.jpg","P.jpg","1","1","1","",""
"","feedback","","html-keyboard-response","229","304943","0.0-1.0-312.0-0.0","0","0","98891","","null","","","null","34","","","","","","","","","","","","","","","",""
"","ITI","","html-keyboard-response","230","305945","0.0-1.0-315.0","0","0","98891","","null","","","null","34","","","","","","","","","","","","","","","NaN",""
"","S1","","html-keyboard-response","231","306198","0.0-1.0-317.0","0","0","98891","","null","","","null","35","","","","","","","","","","","","","","","",""
"","ISI","","html-keyboard-response","232","307200","0.0-1.0-318.0","0","0","98891","","null","","","null","35","NaN","","","","","","","","","","","","","","",""
"","S2","","html-keyboard-response","233","307453","0.0-1.0-319.0","0","0","98891","","null","","","null","35","","NaN","","","","","","","","","","","","","",""
"","response","","html-keyboard-response","234","307782","0.0-1.0-320.0-0.0","0","0","98891","","328","","","68","35","","","1","35","training","adjacent","DC","4","3","N.jpg","M.jpg","0","0","1","",""
"","feedback","","html-keyboard-response","235","308785","0.0-1.0-321.0-0.0","0","0","98891","","null","","","null","35","","","","","","","","","","","","","","","",""
"","ITI","","html-keyboard-response","236","309786","0.0-1.0-324.0","0","0","98891","","null","","","null","35","","","","","","","","","","","","","","","NaN",""
"","S1","","html-keyboard-response","237","310038","0.0-1.0-326.0","0","0","98891","","null","","","null","36","","","","","","","","","","","","","","","",""
"","ISI","","html-keyboard-response","238","311039","0.0-1.0-327.0","0","0","98891","","null","","","null","36","NaN","","","","","","","","","","","","","","",""
"","S2","","html-keyboard-response","239","311292","0.0-1.0-328.0","0","0","98891","","null","","","null","36","","NaN","","","","","","","","","","","","","",""
"","response","","html-keyboard-response","240","312166","0.0-1.0-329.0-0.0","0","0","98891","","873","","","68","36","","","1","36","training","adjacent","FG","6","7","R.jpg","O.jpg","0","1","0","",""
"","feedback","","html-keyboard-response","241","313169","0.0-1.0-330.0-0.0","0","0","98891","","null","","","null","36","","","","","","","","","","","","","","","",""
"","time_out","","html-keyboard-response","242","315171","0.0-1.0-332.0-0.0","0","0","98891","","null","","","null","36","","","","","","","","","","","","","","","",""
"","ITI","","html-keyboard-response","243","316172","0.0-1.0-333.0","0","0","98891","","null","","","null","36","","","","","","","","","","","","","","","NaN",""
"","S1","","html-keyboard-response","244","316424","0.0-1.0-335.0","0","0","98891","","null","","","null","37","","","","","","","","","","","","","","","",""
"","ISI","","html-keyboard-response","245","317426","0.0-1.0-336.0","0","0","98891","","null","","","null","37","NaN","","","","","","","","","","","","","","",""
"","S2","","html-keyboard-response","246","317678","0.0-1.0-337.0","0","0","98891","","null","","","null","37","","NaN","","","","","","","","","","","","","",""
"","response","","html-keyboard-response","247","318739","0.0-1.0-338.0-0.0","0","0","98891","","1059","","","68","37","","","1","37","training","adjacent","FG","6","7","R.jpg","O.jpg","0","1","0","",""
"","feedback","","html-keyboard-response","248","319742","0.0-1.0-339.0-0.0","0","0","98891","","null","","","null","37","","","","","","","","","","","","","","","",""
"","time_out","","html-keyboard-response","249","321743","0.0-1.0-341.0-0.0","0","0","98891","","null","","","null","37","","","","","","","","","","","","","","","",""
"","ITI","","html-keyboard-response","250","322746","0.0-1.0-342.0","0","0","98891","","null","","","null","37","","","","","","","","","","","","","","","NaN",""
"","S1","","html-keyboard-response","251","322998","0.0-1.0-344.0","0","0","98891","","null","","","null","38","","","","","","","","","","","","","","","",""
"","ISI","","html-keyboard-response","252","323999","0.0-1.0-345.0","0","0","98891","","null","","","null","38","NaN","","","","","","","","","","","","","","",""
"","S2","","html-keyboard-response","253","324251","0.0-1.0-346.0","0","0","98891","","null","","","null","38","","NaN","","","","","","","","","","","","","",""
"","response","","html-keyboard-response","254","324788","0.0-1.0-347.0-0.0","0","0","98891","","537","","","75","38","","","1","38","training","adjacent","CD","3","4","M.jpg","N.jpg","1","1","1","",""
"","feedback","","html-keyboard-response","255","325790","0.0-1.0-348.0-0.0","0","0","98891","","null","","","null","38","","","","","","","","","","","","","","","",""
"","ITI","","html-keyboard-response","256","326793","0.0-1.0-351.0","0","0","98891","","null","","","null","38","","","","","","","","","","","","","","","NaN",""
"","S1","","html-keyboard-response","257","327045","0.0-1.0-353.0","0","0","98891","","null","","","null","39","","","","","","","","","","","","","","","",""
"","ISI","","html-keyboard-response","258","328046","0.0-1.0-354.0","0","0","98891","","null","","","null","39","NaN","","","","","","","","","","","","","","",""
"","S2","","html-keyboard-response","259","328298","0.0-1.0-355.0","0","0","98891","","null","","","null","39","","NaN","","","","","","","","","","","","","",""
"","response","","html-keyboard-response","260","329466","0.0-1.0-356.0-0.0","0","0","98891","","1166","","","68","39","","","1","39","training","adjacent","CD","3","4","M.jpg","N.jpg","0","1","0","",""
"","feedback","","html-keyboard-response","261","330468","0.0-1.0-357.0-0.0","0","0","98891","","null","","","null","39","","","","","","","","","","","","","","","",""
"","time_out","","html-keyboard-response","262","332469","0.0-1.0-359.0-0.0","0","0","98891","","null","","","null","39","","","","","","","","","","","","","","","",""
"","ITI","","html-keyboard-response","263","333471","0.0-1.0-360.0","0","0","98891","","null","","","null","39","","","","","","","","","","","","","","","NaN",""
"","S1","","html-keyboard-response","264","333723","0.0-1.0-362.0","0","0","98891","","null","","","null","40","","","","","","","","","","","","","","","",""
"","ISI","","html-keyboard-response","265","334725","0.0-1.0-363.0","0","0","98891","","null","","","null","40","NaN","","","","","","","","","","","","","","",""
"","S2","","html-keyboard-response","266","334978","0.0-1.0-364.0","0","0","98891","","null","","","null","40","","NaN","","","","","","","","","","","","","",""
"","response","","html-keyboard-response","267","334998","0.0-1.0-365.0-0.0","0","0","98891","","19","","","68","40","","","1","40","training","adjacent","GF","7","6","O.jpg","R.jpg","0","0","1","",""
"","feedback","","html-keyboard-response","268","336000","0.0-1.0-366.0-0.0","0","0","98891","","null","","","null","40","","","","","","","","","","","","","","","",""
"","ITI","","html-keyboard-response","269","337002","0.0-1.0-369.0","0","0","98891","","null","","","null","40","","","","","","","","","","","","","","","NaN",""
"","S1","","html-keyboard-response","270","337254","0.0-1.0-371.0","0","0","98891","","null","","","null","41","","","","","","","","","","","","","","","",""
"","ISI","","html-keyboard-response","271","338256","0.0-1.0-372.0","0","0","98891","","null","","","null","41","NaN","","","","","","","","","","","","","","",""
"","S2","","html-keyboard-response","272","338508","0.0-1.0-373.0","0","0","98891","","null","","","null","41","","NaN","","","","","","","","","","","","","",""
"","response","","html-keyboard-response","273","338782","0.0-1.0-374.0-0.0","0","0","98891","","272","","","75","41","","","1","41","training","adjacent","AB","1","2","L.jpg","P.jpg","1","1","1","",""
"","feedback","","html-keyboard-response","274","339784","0.0-1.0-375.0-0.0","0","0","98891","","null","","","null","41","","","","","","","","","","","","","","","",""
"","ITI","","html-keyboard-response","275","340786","0.0-1.0-378.0","0","0","98891","","null","","","null","41","","","","","","","","","","","","","","","NaN",""
"","S1","","html-keyboard-response","276","341042","0.0-1.0-380.0","0","0","98891","","null","","","null","42","","","","","","","","","","","","","","","",""
"","ISI","","html-keyboard-response","277","342044","0.0-1.0-381.0","0","0","98891","","null","","","null","42","NaN","","","","","","","","","","","","","","",""
"","S2","","html-keyboard-response","278","342296","0.0-1.0-382.0","0","0","98891","","null","","","null","42","","NaN","","","","","","","","","","","","","",""
"","response","","html-keyboard-response","279","342690","0.0-1.0-383.0-0.0","0","0","98891","","392","","","68","42","","","1","42","training","adjacent","ED","5","4","Q.jpg","N.jpg","0","0","1","",""
"","feedback","","html-keyboard-response","280","343692","0.0-1.0-384.0-0.0","0","0","98891","","null","","","null","42","","","","","","","","","","","","","","","",""
"","ITI","","html-keyboard-response","281","344695","0.0-1.0-387.0","0","0","98891","","null","","","null","42","","","","","","","","","","","","","","","NaN",""
"","S1","","html-keyboard-response","282","344947","0.0-1.0-389.0","0","0","98891","","null","","","null","43","","","","","","","","","","","","","","","",""
"","ISI","","html-keyboard-response","283","345949","0.0-1.0-390.0","0","0","98891","","null","","","null","43","NaN","","","","","","","","","","","","","","",""
"","S2","","html-keyboard-response","284","346201","0.0-1.0-391.0","0","0","98891","","null","","","null","43","","NaN","","","","","","","","","","","","","",""
"","response","","html-keyboard-response","285","346497","0.0-1.0-392.0-0.0","0","0","98891","","295","","","68","43","","","1","43","training","adjacent","ED","5","4","Q.jpg","N.jpg","0","0","1","",""
"","feedback","","html-keyboard-response","286","347499","0.0-1.0-393.0-0.0","0","0","98891","","null","","","null","43","","","","","","","","","","","","","","","",""
"","ITI","","html-keyboard-response","287","348500","0.0-1.0-396.0","0","0","98891","","null","","","null","43","","","","","","","","","","","","","","","NaN",""
"","S1","","html-keyboard-response","288","348752","0.0-1.0-398.0","0","0","98891","","null","","","null","44","","","","","","","","","","","","","","","",""
"","ISI","","html-keyboard-response","289","349754","0.0-1.0-399.0","0","0","98891","","null","","","null","44","NaN","","","","","","","","","","","","","","",""
"","S2","","html-keyboard-response","290","350006","0.0-1.0-400.0","0","0","98891","","null","","","null","44","","NaN","","","","","","","","","","","","","",""
"","response","","html-keyboard-response","291","350253","0.0-1.0-401.0-0.0","0","0","98891","","246","","","75","44","","","1","44","training","adjacent","AB","1","2","L.jpg","P.jpg","1","1","1","",""
"","feedback","","html-keyboard-response","292","351255","0.0-1.0-402.0-0.0","0","0","98891","","null","","","null","44","","","","","","","","","","","","","","","",""
"","ITI","","html-keyboard-response","293","352256","0.0-1.0-405.0","0","0","98891","","null","","","null","44","","","","","","","","","","","","","","","NaN",""
"","S1","","html-keyboard-response","294","352509","0.0-1.0-407.0","0","0","98891","","null","","","null","45","","","","","","","","","","","","","","","",""
"","ISI","","html-keyboard-response","295","353510","0.0-1.0-408.0","0","0","98891","","null","","","null","45","NaN","","","","","","","","","","","","","","",""
"","S2","","html-keyboard-response","296","353762","0.0-1.0-409.0","0","0","98891","","null","","","null","45","","NaN","","","","","","","","","","","","","",""
"","response","","html-keyboard-response","297","354664","0.0-1.0-410.0-0.0","0","0","98891","","901","","","75","45","","","1","45","training","adjacent","CD","3","4","M.jpg","N.jpg","1","1","1","",""
"","feedback","","html-keyboard-response","298","355666","0.0-1.0-411.0-0.0","0","0","98891","","null","","","null","45","","","","","","","","","","","","","","","",""
"","ITI","","html-keyboard-response","299","356668","0.0-1.0-414.0","0","0","98891","","null","","","null","45","","","","","","","","","","","","","","","NaN",""
"","S1","","html-keyboard-response","300","356919","0.0-1.0-416.0","0","0","98891","","null","","","null","46","","","","","","","","","","","","","","","",""
"","ISI","","html-keyboard-response","301","357921","0.0-1.0-417.0","0","0","98891","","null","","","null","46","NaN","","","","","","","","","","","","","","",""
"","S2","","html-keyboard-response","302","358174","0.0-1.0-418.0","0","0","98891","","null","","","null","46","","NaN","","","","","","","","","","","","","",""
"","response","","html-keyboard-response","303","358547","0.0-1.0-419.0-0.0","0","0","98891","","372","","","68","46","","","1","46","training","adjacent","EF","5","6","Q.jpg","R.jpg","0","1","0","",""
"","feedback","","html-keyboard-response","304","359549","0.0-1.0-420.0-0.0","0","0","98891","","null","","","null","46","","","","","","","","","","","","","","","",""
"","time_out","","html-keyboard-response","305","361551","0.0-1.0-422.0-0.0","0","0","98891","","null","","","null","46","","","","","","","","","","","","","","","",""
"","ITI","","html-keyboard-response","306","362552","0.0-1.0-423.0","0","0","98891","","null","","","null","46","","","","","","","","","","","","","","","NaN",""
"","S1","","html-keyboard-response","307","362804","0.0-1.0-425.0","0","0","98891","","null","","","null","47","","","","","","","","","","","","","","","",""
"","ISI","","html-keyboard-response","308","363805","0.0-1.0-426.0","0","0","98891","","null","","","null","47","NaN","","","","","","","","","","","","","","",""
"","S2","","html-keyboard-response","309","364058","0.0-1.0-427.0","0","0","98891","","null","","","null","47","","NaN","","","","","","","","","","","","","",""
"","response","","html-keyboard-response","310","364411","0.0-1.0-428.0-0.0","0","0","98891","","352","","","75","47","","","1","47","training","adjacent","CB","3","2","M.jpg","P.jpg","1","0","0","",""
"","feedback","","html-keyboard-response","311","365413","0.0-1.0-429.0-0.0","0","0","98891","","null","","","null","47","","","","","","","","","","","","","","","",""
"","time_out","","html-keyboard-response","312","367421","0.0-1.0-431.0-0.0","0","0","98891","","null","","","null","47","","","","","","","","","","","","","","","",""
"","ITI","","html-keyboard-response","313","368423","0.0-1.0-432.0","0","0","98891","","null","","","null","47","","","","","","","","","","","","","","","NaN",""
"","block_over","","html-keyboard-response","314","375060","0.0-1.0-433.0-0.0","0","0","98891","","6635","","","32","47","","","","","","","","","","","","","","","",""
"","S1","","html-keyboard-response","315","375312","0.0-1.0-434.0","0","0","98891","","null","","","null","48","","","","","","","","","","","","","","","",""
"","ISI","","html-keyboard-response","316","376314","0.0-1.0-435.0","0","0","98891","","null","","","null","48","NaN","","","","","","","","","","","","","","",""
"","S2","","html-keyboard-response","317","376565","0.0-1.0-436.0","0","0","98891","","null","","","null","48","","NaN","","","","","","","","","","","","","",""
"","response","","html-keyboard-response","318","377523","0.0-1.0-437.0-0.0","0","0","98891","","957","","","75","48","","","2","48","training","adjacent","DE","4","5","N.jpg","Q.jpg","1","1","1","",""
"","feedback","","html-keyboard-response","319","378525","0.0-1.0-438.0-0.0","0","0","98891","","null","","","null","48","","","","","","","","","","","","","","","",""
"","ITI","","html-keyboard-response","320","379526","0.0-1.0-441.0","0","0","98891","","null","","","null","48","","","","","","","","","","","","","","","NaN",""
"","S1","","html-keyboard-response","321","379779","0.0-1.0-443.0","0","0","98891","","null","","","null","49","","","","","","","","","","","","","","","",""
"","ISI","","html-keyboard-response","322","380780","0.0-1.0-444.0","0","0","98891","","null","","","null","49","NaN","","","","","","","","","","","","","","",""
"","S2","","html-keyboard-response","323","381032","0.0-1.0-445.0","0","0","98891","","null","","","null","49","","NaN","","","","","","","","","","","","","",""
"","response","","html-keyboard-response","324","382040","0.0-1.0-446.0-0.0","0","0","98891","","1006","","","68","49","","","2","49","training","adjacent","CB","3","2","M.jpg","P.jpg","0","0","1","",""
"","feedback","","html-keyboard-response","325","383043","0.0-1.0-447.0-0.0","0","0","98891","","null","","","null","49","","","","","","","","","","","","","","","",""
"","ITI","","html-keyboard-response","326","384044","0.0-1.0-450.0","0","0","98891","","null","","","null","49","","","","","","","","","","","","","","","NaN",""
"","S1","","html-keyboard-response","327","384296","0.0-1.0-452.0","0","0","98891","","null","","","null","50","","","","","","","","","","","","","","","",""
"","ISI","","html-keyboard-response","328","385298","0.0-1.0-453.0","0","0","98891","","null","","","null","50","NaN","","","","","","","","","","","","","","",""
"","S2","","html-keyboard-response","329","385550","0.0-1.0-454.0","0","0","98891","","null","","","null","50","","NaN","","","","","","","","","","","","","",""
"","response","","html-keyboard-response","330","385879","0.0-1.0-455.0-0.0","0","0","98891","","327","","","68","50","","","2","50","training","adjacent","EF","5","6","Q.jpg","R.jpg","0","1","0","",""
"","feedback","","html-keyboard-response","331","386881","0.0-1.0-456.0-0.0","0","0","98891","","null","","","null","50","","","","","","","","","","","","","","","",""
"","time_out","","html-keyboard-response","332","388883","0.0-1.0-458.0-0.0","0","0","98891","","null","","","null","50","","","","","","","","","","","","","","","",""
"","ITI","","html-keyboard-response","333","389885","0.0-1.0-459.0","0","0","98891","","null","","","null","50","","","","","","","","","","","","","","","NaN",""
"","S1","","html-keyboard-response","334","390137","0.0-1.0-461.0","0","0","98891","","null","","","null","51","","","","","","","","","","","","","","","",""
"","ISI","","html-keyboard-response","335","391139","0.0-1.0-462.0","0","0","98891","","null","","","null","51","NaN","","","","","","","","","","","","","","",""
"","S2","","html-keyboard-response","336","391391","0.0-1.0-463.0","0","0","98891","","null","","","null","51","","NaN","","","","","","","","","","","","","",""
"","response","","html-keyboard-response","337","392610","0.0-1.0-464.0-0.0","0","0","98891","","1218","","","68","51","","","2","51","training","adjacent","BA","2","1","P.jpg","L.jpg","0","0","1","",""
"","feedback","","html-keyboard-response","338","393612","0.0-1.0-465.0-0.0","0","0","98891","","null","","","null","51","","","","","","","","","","","","","","","",""
"","ITI","","html-keyboard-response","339","394614","0.0-1.0-468.0","0","0","98891","","null","","","null","51","","","","","","","","","","","","","","","NaN",""
"","S1","","html-keyboard-response","340","394867","0.0-1.0-470.0","0","0","98891","","null","","","null","52","","","","","","","","","","","","","","","",""
"","ISI","","html-keyboard-response","341","395868","0.0-1.0-471.0","0","0","98891","","null","","","null","52","NaN","","","","","","","","","","","","","","",""
"","S2","","html-keyboard-response","342","396121","0.0-1.0-472.0","0","0","98891","","null","","","null","52","","NaN","","","","","","","","","","","","","",""
"","response","","html-keyboard-response","343","396850","0.0-1.0-473.0-0.0","0","0","98891","","728","","","75","52","","","2","52","training","adjacent","CB","3","2","M.jpg","P.jpg","1","0","0","",""
"","feedback","","html-keyboard-response","344","397852","0.0-1.0-474.0-0.0","0","0","98891","","null","","","null","52","","","","","","","","","","","","","","","",""
"","time_out","","html-keyboard-response","345","399853","0.0-1.0-476.0-0.0","0","0","98891","","null","","","null","52","","","","","","","","","","","","","","","",""
"","ITI","","html-keyboard-response","346","400854","0.0-1.0-477.0","0","0","98891","","null","","","null","52","","","","","","","","","","","","","","","NaN",""
"","S1","","html-keyboard-response","347","401106","0.0-1.0-479.0","0","0","98891","","null","","","null","53","","","","","","","","","","","","","","","",""
"","ISI","","html-keyboard-response","348","402108","0.0-1.0-480.0","0","0","98891","","null","","","null","53","NaN","","","","","","","","","","","","","","",""
"","S2","","html-keyboard-response","349","402361","0.0-1.0-481.0","0","0","98891","","null","","","null","53","","NaN","","","","","","","","","","","","","",""
"","response","","html-keyboard-response","350","403101","0.0-1.0-482.0-0.0","0","0","98891","","739","","","68","53","","","2","53","training","adjacent","FE","6","5","R.jpg","Q.jpg","0","0","1","",""
"","feedback","","html-keyboard-response","351","404104","0.0-1.0-483.0-0.0","0","0","98891","","null","","","null","53","","","","","","","","","","","","","","","",""
"","ITI","","html-keyboard-response","352","405106","0.0-1.0-486.0","0","0","98891","","null","","","null","53","","","","","","","","","","","","","","","NaN",""
"","S1","","html-keyboard-response","353","405358","0.0-1.0-488.0","0","0","98891","","null","","","null","54","","","","","","","","","","","","","","","",""
"","ISI","","html-keyboard-response","354","406360","0.0-1.0-489.0","0","0","98891","","null","","","null","54","NaN","","","","","","","","","","","","","","",""
"","S2","","html-keyboard-response","355","406613","0.0-1.0-490.0","0","0","98891","","null","","","null","54","","NaN","","","","","","","","","","","","","",""
"","response","","html-keyboard-response","356","406711","0.0-1.0-491.0-0.0","0","0","98891","","97","","","75","54","","","2","54","training","adjacent","ED","5","4","Q.jpg","N.jpg","1","0","0","",""
"","feedback","","html-keyboard-response","357","407715","0.0-1.0-492.0-0.0","0","0","98891","","null","","","null","54","","","","","","","","","","","","","","","",""
"","time_out","","html-keyboard-response","358","409717","0.0-1.0-494.0-0.0","0","0","98891","","null","","","null","54","","","","","","","","","","","","","","","",""
"","ITI","","html-keyboard-response","359","410719","0.0-1.0-495.0","0","0","98891","","null","","","null","54","","","","","","","","","","","","","","","NaN",""
"","S1","","html-keyboard-response","360","410971","0.0-1.0-497.0","0","0","98891","","null","","","null","55","","","","","","","","","","","","","","","",""
"","ISI","","html-keyboard-response","361","411973","0.0-1.0-498.0","0","0","98891","","null","","","null","55","NaN","","","","","","","","","","","","","","",""
"","S2","","html-keyboard-response","362","412225","0.0-1.0-499.0","0","0","98891","","null","","","null","55","","NaN","","","","","","","","","","","","","",""
"","response","","html-keyboard-response","363","413089","0.0-1.0-500.0-0.0","0","0","98891","","862","","","75","55","","","2","55","training","adjacent","DC","4","3","N.jpg","M.jpg","1","0","0","",""
"","feedback","","html-keyboard-response","364","414091","0.0-1.0-501.0-0.0","0","0","98891","","null","","","null","55","","","","","","","","","","","","","","","",""
"","time_out","","html-keyboard-response","365","416093","0.0-1.0-503.0-0.0","0","0","98891","","null","","","null","55","","","","","","","","","","","","","","","",""
"","ITI","","html-keyboard-response","366","417095","0.0-1.0-504.0","0","0","98891","","null","","","null","55","","","","","","","","","","","","","","","NaN",""
"","S1","","html-keyboard-response","367","417347","0.0-1.0-506.0","0","0","98891","","null","","","null","56","","","","","","","","","","","","","","","",""
"","ISI","","html-keyboard-response","368","418350","0.0-1.0-507.0","0","0","98891","","null","","","null","56","NaN","","","","","","","","","","","","","","",""
"","S2","","html-keyboard-response","369","418602","0.0-1.0-508.0","0","0","98891","","null","","","null","56","","NaN","","","","","","","","","","","","","",""
"","response","","html-keyboard-response","370","419795","0.0-1.0-509.0-0.0","0","0","98891","","1192","","","68","56","","","2","56","training","adjacent","AB","1","2","L.jpg","P.jpg","0","1","0","",""
"","feedback","","html-keyboard-response","371","420797","0.0-1.0-510.0-0.0","0","0","98891","","null","","","null","56","","","","","","","","","","","","","","","",""
"","time_out","","html-keyboard-response","372","422799","0.0-1.0-512.0-0.0","0","0","98891","","null","","","null","56","","","","","","","","","","","","","","","",""
"","ITI","","html-keyboard-response","373","423801","0.0-1.0-513.0","0","0","98891","","null","","","null","56","","","","","","","","","","","","","","","NaN",""
"","S1","","html-keyboard-response","374","424054","0.0-1.0-515.0","0","0","98891","","null","","","null","57","","","","","","","","","","","","","","","",""
"","ISI","","html-keyboard-response","375","425056","0.0-1.0-516.0","0","0","98891","","null","","","null","57","NaN","","","","","","","","","","","","","","",""
"","S2","","html-keyboard-response","376","425308","0.0-1.0-517.0","0","0","98891","","null","","","null","57","","NaN","","","","","","","","","","","","","",""
"","response","","html-keyboard-response","377","427060","0.0-1.0-518.0-0.0","0","0","98891","","null","","","null","57","","","2","57","training","adjacent","AB","1","2","L.jpg","P.jpg","NaN","1","0","",""
"","too_slow_prompt","","html-keyboard-response","378","428062","0.0-1.0-520.0-0.0","1","0","98891","","null","","","null","","","","","","","","","","","","","","","","",""
"","time_out","","html-keyboard-response","379","430064","0.0-1.0-521.0-0.0","0","0","98891","","null","","","null","57","","","","","","","","","","","","","","","",""
"","ITI","","html-keyboard-response","380","431067","0.0-1.0-522.0","0","0","98891","","null","","","null","57","","","","","","","","","","","","","","","NaN",""
"","S1","","html-keyboard-response","381","431320","0.0-1.0-524.0","0","0","98891","","null","","","null","58","","","","","","","","","","","","","","","",""
"","ISI","","html-keyboard-response","382","432322","0.0-1.0-525.0","0","0","98891","","null","","","null","58","NaN","","","","","","","","","","","","","","",""
"","S2","","html-keyboard-response","383","432575","0.0-1.0-526.0","0","0","98891","","null","","","null","58","","NaN","","","","","","","","","","","","","",""
"","response","","html-keyboard-response","384","432674","0.0-1.0-527.0-0.0","0","0","98891","","98","","","68","58","","","2","58","training","adjacent","BA","2","1","P.jpg","L.jpg","0","0","1","",""
"","feedback","","html-keyboard-response","385","433677","0.0-1.0-528.0-0.0","0","0","98891","","null","","","null","58","","","","","","","","","","","","","","","",""
"","ITI","","html-keyboard-response","386","434680","0.0-1.0-531.0","0","0","98891","","null","","","null","58","","","","","","","","","","","","","","","NaN",""
"","S1","","html-keyboard-response","387","434932","0.0-1.0-533.0","0","0","98891","","null","","","null","59","","","","","","","","","","","","","","","",""
"","ISI","","html-keyboard-response","388","435935","0.0-1.0-534.0","0","0","98891","","null","","","null","59","NaN","","","","","","","","","","","","","","",""
"","S2","","html-keyboard-response","389","436187","0.0-1.0-535.0","0","0","98891","","null","","","null","59","","NaN","","","","","","","","","","","","","",""
"","response","","html-keyboard-response","390","436233","0.0-1.0-536.0-0.0","0","0","98891","","45","","","75","59","","","2","59","training","adjacent","EF","5","6","Q.jpg","R.jpg","1","1","1","",""
"","feedback","","html-keyboard-response","391","437236","0.0-1.0-537.0-0.0","0","0","98891","","null","","","null","59","","","","","","","","","","","","","","","",""
"","ITI","","html-keyboard-response","392","438238","0.0-1.0-540.0","0","0","98891","","null","","","null","59","","","","","","","","","","","","","","","NaN",""
"","S1","","html-keyboard-response","393","438491","0.0-1.0-542.0","0","0","98891","","null","","","null","60","","","","","","","","","","","","","","","",""
"","ISI","","html-keyboard-response","394","439493","0.0-1.0-543.0","0","0","98891","","null","","","null","60","NaN","","","","","","","","","","","","","","",""
"","S2","","html-keyboard-response","395","439744","0.0-1.0-544.0","0","0","98891","","null","","","null","60","","NaN","","","","","","","","","","","","","",""
"","response","","html-keyboard-response","396","440537","0.0-1.0-545.0-0.0","0","0","98891","","791","","","68","60","","","2","60","training","adjacent","BA","2","1","P.jpg","L.jpg","0","0","1","",""
"","feedback","","html-keyboard-response","397","441539","0.0-1.0-546.0-0.0","0","0","98891","","null","","","null","60","","","","","","","","","","","","","","","",""
"","ITI","","html-keyboard-response","398","442542","0.0-1.0-549.0","0","0","98891","","null","","","null","60","","","","","","","","","","","","","","","NaN",""
"","S1","","html-keyboard-response","399","442795","0.0-1.0-551.0","0","0","98891","","null","","","null","61","","","","","","","","","","","","","","","",""
"","ISI","","html-keyboard-response","400","443798","0.0-1.0-552.0","0","0","98891","","null","","","null","61","NaN","","","","","","","","","","","","","","",""
"","S2","","html-keyboard-response","401","444051","0.0-1.0-553.0","0","0","98891","","null","","","null","61","","NaN","","","","","","","","","","","","","",""
"","response","","html-keyboard-response","402","444481","0.0-1.0-554.0-0.0","0","0","98891","","429","","","68","61","","","2","61","training","adjacent","DE","4","5","N.jpg","Q.jpg","0","1","0","",""
"","feedback","","html-keyboard-response","403","445483","0.0-1.0-555.0-0.0","0","0","98891","","null","","","null","61","","","","","","","","","","","","","","","",""
"","time_out","","html-keyboard-response","404","447485","0.0-1.0-557.0-0.0","0","0","98891","","null","","","null","61","","","","","","","","","","","","","","","",""
"","ITI","","html-keyboard-response","405","448487","0.0-1.0-558.0","0","0","98891","","null","","","null","61","","","","","","","","","","","","","","","NaN",""
"","S1","","html-keyboard-response","406","448739","0.0-1.0-560.0","0","0","98891","","null","","","null","62","","","","","","","","","","","","","","","",""
"","ISI","","html-keyboard-response","407","449741","0.0-1.0-561.0","0","0","98891","","null","","","null","62","NaN","","","","","","","","","","","","","","",""
"","S2","","html-keyboard-response","408","449994","0.0-1.0-562.0","0","0","98891","","null","","","null","62","","NaN","","","","","","","","","","","","","",""
"","response","","html-keyboard-response","409","450242","0.0-1.0-563.0-0.0","0","0","98891","","247","","","68","62","","","2","62","training","adjacent","DC","4","3","N.jpg","M.jpg","0","0","1","",""
"","feedback","","html-keyboard-response","410","451244","0.0-1.0-564.0-0.0","0","0","98891","","null","","","null","62","","","","","","","","","","","","","","","",""
"","ITI","","html-keyboard-response","411","452247","0.0-1.0-567.0","0","0","98891","","null","","","null","62","","","","","","","","","","","","","","","NaN",""
"","S1","","html-keyboard-response","412","452499","0.0-1.0-569.0","0","0","98891","","null","","","null","63","","","","","","","","","","","","","","","",""
"","ISI","","html-keyboard-response","413","453500","0.0-1.0-570.0","0","0","98891","","null","","","null","63","NaN","","","","","","","","","","","","","","",""
"","S2","","html-keyboard-response","414","453752","0.0-1.0-571.0","0","0","98891","","null","","","null","63","","NaN","","","","","","","","","","","","","",""
"","response","","html-keyboard-response","415","453842","0.0-1.0-572.0-0.0","0","0","98891","","89","","","75","63","","","2","63","training","adjacent","CD","3","4","M.jpg","N.jpg","1","1","1","",""
"","feedback","","html-keyboard-response","416","454843","0.0-1.0-573.0-0.0","0","0","98891","","null","","","null","63","","","","","","","","","","","","","","","",""
"","ITI","","html-keyboard-response","417","455846","0.0-1.0-576.0","0","0","98891","","null","","","null","63","","","","","","","","","","","","","","","NaN",""
"","S1","","html-keyboard-response","418","456098","0.0-1.0-578.0","0","0","98891","","null","","","null","64","","","","","","","","","","","","","","","",""
"","ISI","","html-keyboard-response","419","457100","0.0-1.0-579.0","0","0","98891","","null","","","null","64","NaN","","","","","","","","","","","","","","",""
"","S2","","html-keyboard-response","420","457353","0.0-1.0-580.0","0","0","98891","","null","","","null","64","","NaN","","","","","","","","","","","","","",""
"","response","","html-keyboard-response","421","457753","0.0-1.0-581.0-0.0","0","0","98891","","400","","","68","64","","","2","64","training","adjacent","FE","6","5","R.jpg","Q.jpg","0","0","1","",""
"","feedback","","html-keyboard-response","422","458755","0.0-1.0-582.0-0.0","0","0","98891","","null","","","null","64","","","","","","","","","","","","","","","",""
"","ITI","","html-keyboard-response","423","459757","0.0-1.0-585.0","0","0","98891","","null","","","null","64","","","","","","","","","","","","","","","NaN",""
"","S1","","html-keyboard-response","424","460009","0.0-1.0-587.0","0","0","98891","","null","","","null","65","","","","","","","","","","","","","","","",""
"","ISI","","html-keyboard-response","425","461010","0.0-1.0-588.0","0","0","98891","","null","","","null","65","NaN","","","","","","","","","","","","","","",""
"","S2","","html-keyboard-response","426","461262","0.0-1.0-589.0","0","0","98891","","null","","","null","65","","NaN","","","","","","","","","","","","","",""
"","response","","html-keyboard-response","427","462121","0.0-1.0-590.0-0.0","0","0","98891","","857","","","75","65","","","2","65","training","adjacent","CB","3","2","M.jpg","P.jpg","1","0","0","",""
"","feedback","","html-keyboard-response","428","463123","0.0-1.0-591.0-0.0","0","0","98891","","null","","","null","65","","","","","","","","","","","","","","","",""
"","time_out","","html-keyboard-response","429","465124","0.0-1.0-593.0-0.0","0","0","98891","","null","","","null","65","","","","","","","","","","","","","","","",""
"","ITI","","html-keyboard-response","430","466125","0.0-1.0-594.0","0","0","98891","","null","","","null","65","","","","","","","","","","","","","","","NaN",""
"","S1","","html-keyboard-response","431","466377","0.0-1.0-596.0","0","0","98891","","null","","","null","66","","","","","","","","","","","","","","","",""
"","ISI","","html-keyboard-response","432","467379","0.0-1.0-597.0","0","0","98891","","null","","","null","66","NaN","","","","","","","","","","","","","","",""
"","S2","","html-keyboard-response","433","467630","0.0-1.0-598.0","0","0","98891","","null","","","null","66","","NaN","","","","","","","","","","","","","",""
"","response","","html-keyboard-response","434","467641","0.0-1.0-599.0-0.0","0","0","98891","","10","","","68","66","","","2","66","training","adjacent","GF","7","6","O.jpg","R.jpg","0","0","1","",""
"","feedback","","html-keyboard-response","435","468643","0.0-1.0-600.0-0.0","0","0","98891","","null","","","null","66","","","","","","","","","","","","","","","",""
"","ITI","","html-keyboard-response","436","469645","0.0-1.0-603.0","0","0","98891","","null","","","null","66","","","","","","","","","","","","","","","NaN",""
"","S1","","html-keyboard-response","437","469897","0.0-1.0-605.0","0","0","98891","","null","","","null","67","","","","","","","","","","","","","","","",""
"","ISI","","html-keyboard-response","438","470899","0.0-1.0-606.0","0","0","98891","","null","","","null","67","NaN","","","","","","","","","","","","","","",""
"","S2","","html-keyboard-response","439","471151","0.0-1.0-607.0","0","0","98891","","null","","","null","67","","NaN","","","","","","","","","","","","","",""
"","response","","html-keyboard-response","440","471387","0.0-1.0-608.0-0.0","0","0","98891","","236","","","75","67","","","2","67","training","adjacent","ED","5","4","Q.jpg","N.jpg","1","0","0","",""
"","feedback","","html-keyboard-response","441","472389","0.0-1.0-609.0-0.0","0","0","98891","","null","","","null","67","","","","","","","","","","","","","","","",""
"","time_out","","html-keyboard-response","442","474391","0.0-1.0-611.0-0.0","0","0","98891","","null","","","null","67","","","","","","","","","","","","","","","",""
"","ITI","","html-keyboard-response","443","475393","0.0-1.0-612.0","0","0","98891","","null","","","null","67","","","","","","","","","","","","","","","NaN",""
"","S1","","html-keyboard-response","444","475644","0.0-1.0-614.0","0","0","98891","","null","","","null","68","","","","","","","","","","","","","","","",""
"","ISI","","html-keyboard-response","445","476646","0.0-1.0-615.0","0","0","98891","","null","","","null","68","NaN","","","","","","","","","","","","","","",""
"","S2","","html-keyboard-response","446","476898","0.0-1.0-616.0","0","0","98891","","null","","","null","68","","NaN","","","","","","","","","","","","","",""
"","response","","html-keyboard-response","447","477126","0.0-1.0-617.0-0.0","0","0","98891","","227","","","75","68","","","2","68","training","adjacent","DC","4","3","N.jpg","M.jpg","1","0","0","",""
"","feedback","","html-keyboard-response","448","478129","0.0-1.0-618.0-0.0","0","0","98891","","null","","","null","68","","","","","","","","","","","","","","","",""
"","time_out","","html-keyboard-response","449","480131","0.0-1.0-620.0-0.0","0","0","98891","","null","","","null","68","","","","","","","","","","","","","","","",""
"","ITI","","html-keyboard-response","450","481133","0.0-1.0-621.0","0","0","98891","","null","","","null","68","","","","","","","","","","","","","","","NaN",""
"","S1","","html-keyboard-response","451","481385","0.0-1.0-623.0","0","0","98891","","null","","","null","69","","","","","","","","","","","","","","","",""
"","ISI","","html-keyboard-response","452","482387","0.0-1.0-624.0","0","0","98891","","null","","","null","69","NaN","","","","","","","","","","","","","","",""
"","S2","","html-keyboard-response","453","482639","0.0-1.0-625.0","0","0","98891","","null","","","null","69","","NaN","","","","","","","","","","","","","",""
"","response","","html-keyboard-response","454","482937","0.0-1.0-626.0-0.0","0","0","98891","","297","","","68","69","","","2","69","training","adjacent","CD","3","4","M.jpg","N.jpg","0","1","0","",""
"","feedback","","html-keyboard-response","455","483939","0.0-1.0-627.0-0.0","0","0","98891","","null","","","null","69","","","","","","","","","","","","","","","",""
"","time_out","","html-keyboard-response","456","485941","0.0-1.0-629.0-0.0","0","0","98891","","null","","","null","69","","","","","","","","","","","","","","","",""
"","ITI","","html-keyboard-response","457","486943","0.0-1.0-630.0","0","0","98891","","null","","","null","69","","","","","","","","","","","","","","","NaN",""
"","S1","","html-keyboard-response","458","487195","0.0-1.0-632.0","0","0","98891","","null","","","null","70","","","","","","","","","","","","","","","",""
"","ISI","","html-keyboard-response","459","488197","0.0-1.0-633.0","0","0","98891","","null","","","null","70","NaN","","","","","","","","","","","","","","",""
"","S2","","html-keyboard-response","460","488449","0.0-1.0-634.0","0","0","98891","","null","","","null","70","","NaN","","","","","","","","","","","","","",""
"","response","","html-keyboard-response","461","488732","0.0-1.0-635.0-0.0","0","0","98891","","281","","","75","70","","","2","70","training","adjacent","FG","6","7","R.jpg","O.jpg","1","1","1","",""
"","feedback","","html-keyboard-response","462","489735","0.0-1.0-636.0-0.0","0","0","98891","","null","","","null","70","","","","","","","","","","","","","","","",""
"","ITI","","html-keyboard-response","463","490737","0.0-1.0-639.0","0","0","98891","","null","","","null","70","","","","","","","","","","","","","","","NaN",""
"","S1","","html-keyboard-response","464","490989","0.0-1.0-641.0","0","0","98891","","null","","","null","71","","","","","","","","","","","","","","","",""
"","ISI","","html-keyboard-response","465","491991","0.0-1.0-642.0","0","0","98891","","null","","","null","71","NaN","","","","","","","","","","","","","","",""
"","S2","","html-keyboard-response","466","492243","0.0-1.0-643.0","0","0","98891","","null","","","null","71","","NaN","","","","","","","","","","","","","",""
"","response","","html-keyboard-response","467","492260","0.0-1.0-644.0-0.0","0","0","98891","","15","","","68","71","","","2","71","training","adjacent","GF","7","6","O.jpg","R.jpg","0","0","1","",""
"","feedback","","html-keyboard-response","468","493262","0.0-1.0-645.0-0.0","0","0","98891","","null","","","null","71","","","","","","","","","","","","","","","",""
"","ITI","","html-keyboard-response","469","494264","0.0-1.0-648.0","0","0","98891","","null","","","null","71","","","","","","","","","","","","","","","NaN",""
"","S1","","html-keyboard-response","470","494517","0.0-1.0-650.0","0","0","98891","","null","","","null","72","","","","","","","","","","","","","","","",""
"","ISI","","html-keyboard-response","471","495520","0.0-1.0-651.0","0","0","98891","","null","","","null","72","NaN","","","","","","","","","","","","","","",""
"","S2","","html-keyboard-response","472","495772","0.0-1.0-652.0","0","0","98891","","null","","","null","72","","NaN","","","","","","","","","","","","","",""
"","response","","html-keyboard-response","473","496839","0.0-1.0-653.0-0.0","0","0","98891","","1064","","","75","72","","","2","72","training","adjacent","AB","1","2","L.jpg","P.jpg","1","1","1","",""
"","feedback","","html-keyboard-response","474","497842","0.0-1.0-654.0-0.0","0","0","98891","","null","","","null","72","","","","","","","","","","","","","","","",""
"","ITI","","html-keyboard-response","475","498845","0.0-1.0-657.0","0","0","98891","","null","","","null","72","","","","","","","","","","","","","","","NaN",""
"","S1","","html-keyboard-response","476","499097","0.0-1.0-659.0","0","0","98891","","null","","","null","73","","","","","","","","","","","","","","","",""
"","ISI","","html-keyboard-response","477","500099","0.0-1.0-660.0","0","0","98891","","null","","","null","73","NaN","","","","","","","","","","","","","","",""
"","S2","","html-keyboard-response","478","500351","0.0-1.0-661.0","0","0","98891","","null","","","null","73","","NaN","","","","","","","","","","","","","",""
"","response","","html-keyboard-response","479","500358","0.0-1.0-662.0-0.0","0","0","98891","","5","","","68","73","","","2","73","training","adjacent","GF","7","6","O.jpg","R.jpg","0","0","1","",""
"","feedback","","html-keyboard-response","480","501361","0.0-1.0-663.0-0.0","0","0","98891","","null","","","null","73","","","","","","","","","","","","","","","",""
"","ITI","","html-keyboard-response","481","502363","0.0-1.0-666.0","0","0","98891","","null","","","null","73","","","","","","","","","","","","","","","NaN",""
"","S1","","html-keyboard-response","482","502615","0.0-1.0-668.0","0","0","98891","","null","","","null","74","","","","","","","","","","","","","","","",""
"","ISI","","html-keyboard-response","483","503617","0.0-1.0-669.0","0","0","98891","","null","","","null","74","NaN","","","","","","","","","","","","","","",""
"","S2","","html-keyboard-response","484","503870","0.0-1.0-670.0","0","0","98891","","null","","","null","74","","NaN","","","","","","","","","","","","","",""
"","response","","html-keyboard-response","485","504236","0.0-1.0-671.0-0.0","0","0","98891","","365","","","75","74","","","2","74","training","adjacent","BC","2","3","P.jpg","M.jpg","1","1","1","",""
"","feedback","","html-keyboard-response","486","505239","0.0-1.0-672.0-0.0","0","0","98891","","null","","","null","74","","","","","","","","","","","","","","","",""
"","ITI","","html-keyboard-response","487","506241","0.0-1.0-675.0","0","0","98891","","null","","","null","74","","","","","","","","","","","","","","","NaN",""
"","S1","","html-keyboard-response","488","506494","0.0-1.0-677.0","0","0","98891","","null","","","null","75","","","","","","","","","","","","","","","",""
"","ISI","","html-keyboard-response","489","507496","0.0-1.0-678.0","0","0","98891","","null","","","null","75","NaN","","","","","","","","","","","","","","",""
"","S2","","html-keyboard-response","490","507749","0.0-1.0-679.0","0","0","98891","","null","","","null","75","","NaN","","","","","","","","","","","","","",""
"","response","","html-keyboard-response","491","507767","0.0-1.0-680.0-0.0","0","0","98891","","16","","","68","75","","","2","75","training","adjacent","DC","4","3","N.jpg","M.jpg","0","0","1","",""
"","feedback","","html-keyboard-response","492","508785","0.0-1.0-681.0-0.0","0","0","98891","","null","","","null","75","","","","","","","","","","","","","","","",""
"","ITI","","html-keyboard-response","493","509787","0.0-1.0-684.0","0","0","98891","","null","","","null","75","","","","","","","","","","","","","","","NaN",""
"","S1","","html-keyboard-response","494","510040","0.0-1.0-686.0","0","0","98891","","null","","","null","76","","","","","","","","","","","","","","","",""
"","ISI","","html-keyboard-response","495","511042","0.0-1.0-687.0","0","0","98891","","null","","","null","76","NaN","","","","","","","","","","","","","","",""
"","S2","","html-keyboard-response","496","511294","0.0-1.0-688.0","0","0","98891","","null","","","null","76","","NaN","","","","","","","","","","","","","",""
"","response","","html-keyboard-response","497","511588","0.0-1.0-689.0-0.0","0","0","98891","","292","","","68","76","","","2","76","training","adjacent","EF","5","6","Q.jpg","R.jpg","0","1","0","",""
"","feedback","","html-keyboard-response","498","512591","0.0-1.0-690.0-0.0","0","0","98891","","null","","","null","76","","","","","","","","","","","","","","","",""
"","time_out","","html-keyboard-response","499","514594","0.0-1.0-692.0-0.0","0","0","98891","","null","","","null","76","","","","","","","","","","","","","","","",""
"","ITI","","html-keyboard-response","500","515596","0.0-1.0-693.0","0","0","98891","","null","","","null","76","","","","","","","","","","","","","","","NaN",""
"","S1","","html-keyboard-response","501","515848","0.0-1.0-695.0","0","0","98891","","null","","","null","77","","","","","","","","","","","","","","","",""
"","ISI","","html-keyboard-response","502","516849","0.0-1.0-696.0","0","0","98891","","null","","","null","77","NaN","","","","","","","","","","","","","","",""
"","S2","","html-keyboard-response","503","517102","0.0-1.0-697.0","0","0","98891","","null","","","null","77","","NaN","","","","","","","","","","","","","",""
"","response","","html-keyboard-response","504","517524","0.0-1.0-698.0-0.0","0","0","98891","","421","","","75","77","","","2","77","training","adjacent","FG","6","7","R.jpg","O.jpg","1","1","1","",""
"","feedback","","html-keyboard-response","505","518526","0.0-1.0-699.0-0.0","0","0","98891","","null","","","null","77","","","","","","","","","","","","","","","",""
"","ITI","","html-keyboard-response","506","519529","0.0-1.0-702.0","0","0","98891","","null","","","null","77","","","","","","","","","","","","","","","NaN",""
"","S1","","html-keyboard-response","507","519781","0.0-1.0-704.0","0","0","98891","","null","","","null","78","","","","","","","","","","","","","","","",""
"","ISI","","html-keyboard-response","508","520783","0.0-1.0-705.0","0","0","98891","","null","","","null","78","NaN","","","","","","","","","","","","","","",""
"","S2","","html-keyboard-response","509","521035","0.0-1.0-706.0","0","0","98891","","null","","","null","78","","NaN","","","","","","","","","","","","","",""
"","response","","html-keyboard-response","510","521568","0.0-1.0-707.0-0.0","0","0","98891","","531","","","68","78","","","2","78","training","adjacent","FE","6","5","R.jpg","Q.jpg","0","0","1","",""
"","feedback","","html-keyboard-response","511","522570","0.0-1.0-708.0-0.0","0","0","98891","","null","","","null","78","","","","","","","","","","","","","","","",""
"","ITI","","html-keyboard-response","512","523572","0.0-1.0-711.0","0","0","98891","","null","","","null","78","","","","","","","","","","","","","","","NaN",""
"","S1","","html-keyboard-response","513","523823","0.0-1.0-713.0","0","0","98891","","null","","","null","79","","","","","","","","","","","","","","","",""
"","ISI","","html-keyboard-response","514","524826","0.0-1.0-714.0","0","0","98891","","null","","","null","79","NaN","","","","","","","","","","","","","","",""
"","S2","","html-keyboard-response","515","525078","0.0-1.0-715.0","0","0","98891","","null","","","null","79","","NaN","","","","","","","","","","","","","",""
"","response","","html-keyboard-response","516","525375","0.0-1.0-716.0-0.0","0","0","98891","","295","","","68","79","","","2","79","training","adjacent","DE","4","5","N.jpg","Q.jpg","0","1","0","",""
"","feedback","","html-keyboard-response","517","526377","0.0-1.0-717.0-0.0","0","0","98891","","null","","","null","79","","","","","","","","","","","","","","","",""
"","time_out","","html-keyboard-response","518","528380","0.0-1.0-719.0-0.0","0","0","98891","","null","","","null","79","","","","","","","","","","","","","","","",""
"","ITI","","html-keyboard-response","519","529382","0.0-1.0-720.0","0","0","98891","","null","","","null","79","","","","","","","","","","","","","","","NaN",""
"","S1","","html-keyboard-response","520","529634","0.0-1.0-722.0","0","0","98891","","null","","","null","80","","","","","","","","","","","","","","","",""
"","ISI","","html-keyboard-response","521","530635","0.0-1.0-723.0","0","0","98891","","null","","","null","80","NaN","","","","","","","","","","","","","","",""
"","S2","","html-keyboard-response","522","530887","0.0-1.0-724.0","0","0","98891","","null","","","null","80","","NaN","","","","","","","","","","","","","",""
"","response","","html-keyboard-response","523","531241","0.0-1.0-725.0-0.0","0","0","98891","","353","","","75","80","","","2","80","training","adjacent","FG","6","7","R.jpg","O.jpg","1","1","1","",""
"","feedback","","html-keyboard-response","524","532243","0.0-1.0-726.0-0.0","0","0","98891","","null","","","null","80","","","","","","","","","","","","","","","",""
"","ITI","","html-keyboard-response","525","533245","0.0-1.0-729.0","0","0","98891","","null","","","null","80","","","","","","","","","","","","","","","NaN",""
"","S1","","html-keyboard-response","526","533496","0.0-1.0-731.0","0","0","98891","","null","","","null","81","","","","","","","","","","","","","","","",""
"","ISI","","html-keyboard-response","527","534498","0.0-1.0-732.0","0","0","98891","","null","","","null","81","NaN","","","","","","","","","","","","","","",""
"","S2","","html-keyboard-response","528","534751","0.0-1.0-733.0","0","0","98891","","null","","","null","81","","NaN","","","","","","","","","","","","","",""
"","response","","html-keyboard-response","529","535287","0.0-1.0-734.0-0.0","0","0","98891","","534","","","75","81","","","2","81","training","adjacent","ED","5","4","Q.jpg","N.jpg","1","0","0","",""
"","feedback","","html-keyboard-response","530","536289","0.0-1.0-735.0-0.0","0","0","98891","","null","","","null","81","","","","","","","","","","","","","","","",""
"","time_out","","html-keyboard-response","531","538292","0.0-1.0-737.0-0.0","0","0","98891","","null","","","null","81","","","","","","","","","","","","","","","",""
"","ITI","","html-keyboard-response","532","539293","0.0-1.0-738.0","0","0","98891","","null","","","null","81","","","","","","","","","","","","","","","NaN",""
"","S1","","html-keyboard-response","533","539545","0.0-1.0-740.0","0","0","98891","","null","","","null","82","","","","","","","","","","","","","","","",""
"","ISI","","html-keyboard-response","534","540548","0.0-1.0-741.0","0","0","98891","","null","","","null","82","NaN","","","","","","","","","","","","","","",""
"","S2","","html-keyboard-response","535","540800","0.0-1.0-742.0","0","0","98891","","null","","","null","82","","NaN","","","","","","","","","","","","","",""
"","response","","html-keyboard-response","536","540810","0.0-1.0-743.0-0.0","0","0","98891","","7","","","68","82","","","2","82","training","adjacent","AB","1","2","L.jpg","P.jpg","0","1","0","",""
"","feedback","","html-keyboard-response","537","541812","0.0-1.0-744.0-0.0","0","0","98891","","null","","","null","82","","","","","","","","","","","","","","","",""
"","time_out","","html-keyboard-response","538","543813","0.0-1.0-746.0-0.0","0","0","98891","","null","","","null","82","","","","","","","","","","","","","","","",""
"","ITI","","html-keyboard-response","539","544816","0.0-1.0-747.0","0","0","98891","","null","","","null","82","","","","","","","","","","","","","","","NaN",""
"","S1","","html-keyboard-response","540","545068","0.0-1.0-749.0","0","0","98891","","null","","","null","83","","","","","","","","","","","","","","","",""
"","ISI","","html-keyboard-response","541","546070","0.0-1.0-750.0","0","0","98891","","null","","","null","83","NaN","","","","","","","","","","","","","","",""
"","S2","","html-keyboard-response","542","546322","0.0-1.0-751.0","0","0","98891","","null","","","null","83","","NaN","","","","","","","","","","","","","",""
"","response","","html-keyboard-response","543","546659","0.0-1.0-752.0-0.0","0","0","98891","","335","","","75","83","","","2","83","training","adjacent","FG","6","7","R.jpg","O.jpg","1","1","1","",""
"","feedback","","html-keyboard-response","544","547661","0.0-1.0-753.0-0.0","0","0","98891","","null","","","null","83","","","","","","","","","","","","","","","",""
"","ITI","","html-keyboard-response","545","548663","0.0-1.0-756.0","0","0","98891","","null","","","null","83","","","","","","","","","","","","","","","NaN",""
"","S1","","html-keyboard-response","546","548915","0.0-1.0-758.0","0","0","98891","","null","","","null","84","","","","","","","","","","","","","","","",""
"","ISI","","html-keyboard-response","547","549917","0.0-1.0-759.0","0","0","98891","","null","","","null","84","NaN","","","","","","","","","","","","","","",""
"","S2","","html-keyboard-response","548","550170","0.0-1.0-760.0","0","0","98891","","null","","","null","84","","NaN","","","","","","","","","","","","","",""
"","response","","html-keyboard-response","549","550420","0.0-1.0-761.0-0.0","0","0","98891","","248","","","75","84","","","2","84","training","adjacent","CD","3","4","M.jpg","N.jpg","1","1","1","",""
"","feedback","","html-keyboard-response","550","551423","0.0-1.0-762.0-0.0","0","0","98891","","null","","","null","84","","","","","","","","","","","","","","","",""
"","ITI","","html-keyboard-response","551","552425","0.0-1.0-765.0","0","0","98891","","null","","","null","84","","","","","","","","","","","","","","","NaN",""
"","S1","","html-keyboard-response","552","552677","0.0-1.0-767.0","0","0","98891","","null","","","null","85","","","","","","","","","","","","","","","",""
"","ISI","","html-keyboard-response","553","553679","0.0-1.0-768.0","0","0","98891","","null","","","null","85","NaN","","","","","","","","","","","","","","",""
"","S2","","html-keyboard-response","554","553931","0.0-1.0-769.0","0","0","98891","","null","","","null","85","","NaN","","","","","","","","","","","","","",""
"","response","","html-keyboard-response","555","554357","0.0-1.0-770.0-0.0","0","0","98891","","425","","","75","85","","","2","85","training","adjacent","BC","2","3","P.jpg","M.jpg","1","1","1","",""
"","feedback","","html-keyboard-response","556","555359","0.0-1.0-771.0-0.0","0","0","98891","","null","","","null","85","","","","","","","","","","","","","","","",""
"","ITI","","html-keyboard-response","557","556360","0.0-1.0-774.0","0","0","98891","","null","","","null","85","","","","","","","","","","","","","","","NaN",""
"","S1","","html-keyboard-response","558","556612","0.0-1.0-776.0","0","0","98891","","null","","","null","86","","","","","","","","","","","","","","","",""
"","ISI","","html-keyboard-response","559","557615","0.0-1.0-777.0","0","0","98891","","null","","","null","86","NaN","","","","","","","","","","","","","","",""
"","S2","","html-keyboard-response","560","557861","0.0-1.0-778.0","0","0","98891","","244","","","68","86","","d","2","86","training","adjacent","DE","4","5","N.jpg","Q.jpg","0","1","0","",""
"","feedback","","html-keyboard-response","561","558864","0.0-1.0-780.0-0.0","0","0","98891","","null","","","null","86","","","","","","","","","","","","","","","",""
"","time_out","","html-keyboard-response","562","560866","0.0-1.0-782.0-0.0","0","0","98891","","null","","","null","86","","","","","","","","","","","","","","","",""
"","ITI","","html-keyboard-response","563","561879","0.0-1.0-783.0","0","0","98891","","null","","","null","86","","","","","","","","","","","","","","","NaN",""
"","S1","","html-keyboard-response","564","562131","0.0-1.0-785.0","0","0","98891","","null","","","null","87","","","","","","","","","","","","","","","",""
"","ISI","","html-keyboard-response","565","563142","0.0-1.0-786.0","0","0","98891","","null","","","null","87","NaN","","","","","","","","","","","","","","",""
"","S2","","html-keyboard-response","566","563393","0.0-1.0-787.0","0","0","98891","","null","","","null","87","","NaN","","","","","","","","","","","","","",""
"","response","","html-keyboard-response","567","563801","0.0-1.0-788.0-0.0","0","0","98891","","407","","","68","87","","","2","87","training","adjacent","BC","2","3","P.jpg","M.jpg","0","1","0","",""
"","feedback","","html-keyboard-response","568","564804","0.0-1.0-789.0-0.0","0","0","98891","","null","","","null","87","","","","","","","","","","","","","","","",""
"","time_out","","html-keyboard-response","569","566807","0.0-1.0-791.0-0.0","0","0","98891","","null","","","null","87","","","","","","","","","","","","","","","",""
"","ITI","","html-keyboard-response","570","567809","0.0-1.0-792.0","0","0","98891","","null","","","null","87","","","","","","","","","","","","","","","NaN",""
"","S1","","html-keyboard-response","571","568062","0.0-1.0-794.0","0","0","98891","","null","","","null","88","","","","","","","","","","","","","","","",""
"","ISI","","html-keyboard-response","572","569064","0.0-1.0-795.0","0","0","98891","","null","","","null","88","NaN","","","","","","","","","","","","","","",""
"","S2","","html-keyboard-response","573","569316","0.0-1.0-796.0","0","0","98891","","null","","","null","88","","NaN","","","","","","","","","","","","","",""
"","response","","html-keyboard-response","574","569508","0.0-1.0-797.0-0.0","0","0","98891","","192","","","75","88","","","2","88","training","adjacent","CD","3","4","M.jpg","N.jpg","1","1","1","",""
"","feedback","","html-keyboard-response","575","570510","0.0-1.0-798.0-0.0","0","0","98891","","null","","","null","88","","","","","","","","","","","","","","","",""
"","ITI","","html-keyboard-response","576","571511","0.0-1.0-801.0","0","0","98891","","null","","","null","88","","","","","","","","","","","","","","","NaN",""
"","S1","","html-keyboard-response","577","571763","0.0-1.0-803.0","0","0","98891","","null","","","null","89","","","","","","","","","","","","","","","",""
"","ISI","","html-keyboard-response","578","572766","0.0-1.0-804.0","0","0","98891","","null","","","null","89","NaN","","","","","","","","","","","","","","",""
"","S2","","html-keyboard-response","579","573018","0.0-1.0-805.0","0","0","98891","","null","","","null","89","","NaN","","","","","","","","","","","","","",""
"","response","","html-keyboard-response","580","573146","0.0-1.0-806.0-0.0","0","0","98891","","126","","","75","89","","","2","89","training","adjacent","BC","2","3","P.jpg","M.jpg","1","1","1","",""
