"success","ttype","start_time","trial_type","trial_index","time_elapsed","internal_node_id","warning","missed_checkup","PID","view_history","rt","responses","repeat_instructions","key_press","index","keypress_isi","keypress_S2","block","trial_num","phase","group_type","pair_type","S1_stim","S2_stim","S1_img","S2_img","S1_chosen","S1_higher","accuracy","keypress_iti","total_bonus_tally"
"true","full_screen","d08032022hr2059","fullscreen","0","19844","0.0-0.0","0","0","62907","","","","","","","","","","","","","","","","","","","","","",""
"","instructions","","instructions","1","86972","0.0-1.0-0.0-0.0","0","0","62907","[{""page_index"":0,""viewing_time"":6010},{""page_index"":1,""viewing_time"":47081},{""page_index"":2,""viewing_time"":11670},{""page_index"":3,""viewing_time"":2365}]","67127","","","","","","","","","","","","","","","","","","","",""
"","comprehension_check","","survey-multi-choice","2","129632","0.0-1.0-0.0-1.0","0","0","62907","","42657","{""Q0"":""True"",""Q1"":""K"",""Q2"":""Once the second image appears and while the screen 'MAKE A CHOICE' is shown"",""Q3"":""Green mark"",""Q4"":""either D or K""}","0","","","","","","","","","","","","","","","","","",""
"","start_exp","","html-keyboard-response","3","132111","0.0-1.0-1.0","0","0","62907","","2476","","","32","","","","","","","","","","","","","","","","",""
"","S1","","html-keyboard-response","4","132364","0.0-1.0-2.0","0","0","62907","","null","","","null","0","","","","","","","","","","","","","","","",""
"","ISI","","html-keyboard-response","5","134368","0.0-1.0-3.0","0","0","62907","","null","","","null","0","NaN","","","","","","","","","","","","","","",""
"","S2","","html-keyboard-response","6","134624","0.0-1.0-4.0","0","0","62907","","null","","","null","0","","NaN","","","","","","","","","","","","","",""
"","response","","html-keyboard-response","7","136012","0.0-1.0-5.0-0.0","0","0","62907","","1387","","","75","0","","","1","0","training","adjacent","DC","4","3","R.jpg","Q.jpg","1","0","0","",""
"","feedback","","html-keyboard-response","8","137016","0.0-1.0-6.0-0.0","0","0","62907","","null","","","null","0","","","","","","","","","","","","","","","",""
"","time_out","","html-keyboard-response","9","139018","0.0-1.0-8.0-0.0","0","0","62907","","null","","","null","0","","","","","","","","","","","","","","","",""
"","ITI","","html-keyboard-response","10","140032","0.0-1.0-9.0","0","0","62907","","null","","","null","0","","","","","","","","","","","","","","","NaN",""
"","S1","","html-keyboard-response","11","140286","0.0-1.0-11.0","0","0","62907","","null","","","null","1","","","","","","","","","","","","","","","",""
"","ISI","","html-keyboard-response","12","142289","0.0-1.0-12.0","0","0","62907","","null","","","null","1","NaN","","","","","","","","","","","","","","",""
"","S2","","html-keyboard-response","13","142541","0.0-1.0-13.0","0","0","62907","","null","","","null","1","","NaN","","","","","","","","","","","","","",""
"","response","","html-keyboard-response","14","143632","0.0-1.0-14.0-0.0","0","0","62907","","1090","","","68","1","","","1","1","training","adjacent","FE","6","5","P.jpg","O.jpg","0","0","1","",""
"","feedback","","html-keyboard-response","15","144635","0.0-1.0-15.0-0.0","0","0","62907","","null","","","null","1","","","","","","","","","","","","","","","",""
"","ITI","","html-keyboard-response","16","145638","0.0-1.0-18.0","0","0","62907","","null","","","null","1","","","","","","","","","","","","","","","NaN",""
"","S1","","html-keyboard-response","17","145891","0.0-1.0-20.0","0","0","62907","","null","","","null","2","","","","","","","","","","","","","","","",""
"","ISI","","html-keyboard-response","18","147894","0.0-1.0-21.0","0","0","62907","","null","","","null","2","NaN","","","","","","","","","","","","","","",""
"","S2","","html-keyboard-response","19","148146","0.0-1.0-22.0","0","0","62907","","null","","","null","2","","NaN","","","","","","","","","","","","","",""
"","response","","html-keyboard-response","20","148838","0.0-1.0-23.0-0.0","0","0","62907","","690","","","75","2","","","1","2","training","adjacent","BA","2","1","M.jpg","L.jpg","1","0","0","",""
"","feedback","","html-keyboard-response","21","149840","0.0-1.0-24.0-0.0","0","0","62907","","null","","","null","2","","","","","","","","","","","","","","","",""
"","time_out","","html-keyboard-response","22","151843","0.0-1.0-26.0-0.0","0","0","62907","","null","","","null","2","","","","","","","","","","","","","","","",""
"","ITI","","html-keyboard-response","23","152845","0.0-1.0-27.0","0","0","62907","","null","","","null","2","","","","","","","","","","","","","","","NaN",""
"","S1","","html-keyboard-response","24","153099","0.0-1.0-29.0","0","0","62907","","null","","","null","3","","","","","","","","","","","","","","","",""
"","ISI","","html-keyboard-response","25","155101","0.0-1.0-30.0","0","0","62907","","null","","","null","3","NaN","","","","","","","","","","","","","","",""
"","S2","","html-keyboard-response","26","155355","0.0-1.0-31.0","0","0","62907","","null","","","null","3","","NaN","","","","","","","","","","","","","",""
"","response","","html-keyboard-response","27","155567","0.0-1.0-32.0-0.0","0","0","62907","","210","","","68","3","","","1","3","training","adjacent","GF","7","6","N.jpg","P.jpg","0","0","1","",""
"","feedback","","html-keyboard-response","28","156569","0.0-1.0-33.0-0.0","0","0","62907","","null","","","null","3","","","","","","","","","","","","","","","",""
"","ITI","","html-keyboard-response","29","157571","0.0-1.0-36.0","0","0","62907","","null","","","null","3","","","","","","","","","","","","","","","NaN",""
"","S1","","html-keyboard-response","30","157824","0.0-1.0-38.0","0","0","62907","","null","","","null","4","","","","","","","","","","","","","","","",""
"","ISI","","html-keyboard-response","31","159826","0.0-1.0-39.0","0","0","62907","","null","","","null","4","NaN","","","","","","","","","","","","","","",""
"","S2","","html-keyboard-response","32","160080","0.0-1.0-40.0","0","0","62907","","null","","","null","4","","NaN","","","","","","","","","","","","","",""
"","response","","html-keyboard-response","33","160280","0.0-1.0-41.0-0.0","0","0","62907","","199","","","68","4","","","1","4","training","adjacent","EF","5","6","O.jpg","P.jpg","0","1","0","",""
"","feedback","","html-keyboard-response","34","161283","0.0-1.0-42.0-0.0","0","0","62907","","null","","","null","4","","","","","","","","","","","","","","","",""
"","time_out","","html-keyboard-response","35","163284","0.0-1.0-44.0-0.0","0","0","62907","","null","","","null","4","","","","","","","","","","","","","","","",""
"","ITI","","html-keyboard-response","36","164300","0.0-1.0-45.0","0","0","62907","","null","","","null","4","","","","","","","","","","","","","","","NaN",""
"","S1","","html-keyboard-response","37","164553","0.0-1.0-47.0","0","0","62907","","null","","","null","5","","","","","","","","","","","","","","","",""
"","ISI","","html-keyboard-response","38","166557","0.0-1.0-48.0","0","0","62907","","null","","","null","5","NaN","","","","","","","","","","","","","","",""
"","S2","","html-keyboard-response","39","166810","0.0-1.0-49.0","0","0","62907","","null","","","null","5","","NaN","","","","","","","","","","","","","",""
"","response","","html-keyboard-response","40","166903","0.0-1.0-50.0-0.0","0","0","62907","","92","","","75","5","","","1","5","training","adjacent","BC","2","3","M.jpg","Q.jpg","1","1","1","",""
"","feedback","","html-keyboard-response","41","167905","0.0-1.0-51.0-0.0","0","0","62907","","null","","","null","5","","","","","","","","","","","","","","","",""
"","ITI","","html-keyboard-response","42","168909","0.0-1.0-54.0","0","0","62907","","null","","","null","5","","","","","","","","","","","","","","","NaN",""
"","S1","","html-keyboard-response","43","169162","0.0-1.0-56.0","0","0","62907","","null","","","null","6","","","","","","","","","","","","","","","",""
"","ISI","","html-keyboard-response","44","171164","0.0-1.0-57.0","0","0","62907","","null","","","null","6","NaN","","","","","","","","","","","","","","",""
"","S2","","html-keyboard-response","45","171418","0.0-1.0-58.0","0","0","62907","","null","","","null","6","","NaN","","","","","","","","","","","","","",""
"","response","","html-keyboard-response","46","172103","0.0-1.0-59.0-0.0","0","0","62907","","684","","","75","6","","","1","6","training","adjacent","BC","2","3","M.jpg","Q.jpg","1","1","1","",""
"","feedback","","html-keyboard-response","47","173105","0.0-1.0-60.0-0.0","0","0","62907","","null","","","null","6","","","","","","","","","","","","","","","",""
"","ITI","","html-keyboard-response","48","174119","0.0-1.0-63.0","0","0","62907","","null","","","null","6","","","","","","","","","","","","","","","NaN",""
"","S1","","html-keyboard-response","49","174371","0.0-1.0-65.0","0","0","62907","","null","","","null","7","","","","","","","","","","","","","","","",""
"","ISI","","html-keyboard-response","50","176372","0.0-1.0-66.0","0","0","62907","","null","","","null","7","NaN","","","","","","","","","","","","","","",""
"","S2","","html-keyboard-response","51","176625","0.0-1.0-67.0","0","0","62907","","null","","","null","7","","NaN","","","","","","","","","","","","","",""
"","response","","html-keyboard-response","52","177883","0.0-1.0-68.0-0.0","0","0","62907","","1256","","","68","7","","","1","7","training","adjacent","BA","2","1","M.jpg","L.jpg","0","0","1","",""
"","feedback","","html-keyboard-response","53","178886","0.0-1.0-69.0-0.0","0","0","62907","","null","","","null","7","","","","","","","","","","","","","","","",""
"","ITI","","html-keyboard-response","54","179890","0.0-1.0-72.0","0","0","62907","","null","","","null","7","","","","","","","","","","","","","","","NaN",""
"","S1","","html-keyboard-response","55","180142","0.0-1.0-74.0","0","0","62907","","null","","","null","8","","","","","","","","","","","","","","","",""
"","ISI","","html-keyboard-response","56","182145","0.0-1.0-75.0","0","0","62907","","null","","","null","8","NaN","","","","","","","","","","","","","","",""
"","S2","","html-keyboard-response","57","182412","0.0-1.0-76.0","0","0","62907","","null","","","null","8","","NaN","","","","","","","","","","","","","",""
"","response","","html-keyboard-response","58","183040","0.0-1.0-77.0-0.0","0","0","62907","","627","","","68","8","","","1","8","training","adjacent","GF","7","6","N.jpg","P.jpg","0","0","1","",""
"","feedback","","html-keyboard-response","59","184042","0.0-1.0-78.0-0.0","0","0","62907","","null","","","null","8","","","","","","","","","","","","","","","",""
"","ITI","","html-keyboard-response","60","185043","0.0-1.0-81.0","0","0","62907","","null","","","null","8","","","","","","","","","","","","","","","NaN",""
"","S1","","html-keyboard-response","61","185296","0.0-1.0-83.0","0","0","62907","","null","","","null","9","","","","","","","","","","","","","","","",""
"","ISI","","html-keyboard-response","62","187298","0.0-1.0-84.0","0","0","62907","","null","","","null","9","NaN","","","","","","","","","","","","","","",""
"","S2","","html-keyboard-response","63","187550","0.0-1.0-85.0","0","0","62907","","null","","","null","9","","NaN","","","","","","","","","","","","","",""
"","response","","html-keyboard-response","64","188164","0.0-1.0-86.0-0.0","0","0","62907","","613","","","68","9","","","1","9","training","adjacent","DC","4","3","R.jpg","Q.jpg","0","0","1","",""
"","feedback","","html-keyboard-response","65","189166","0.0-1.0-87.0-0.0","0","0","62907","","null","","","null","9","","","","","","","","","","","","","","","",""
"","ITI","","html-keyboard-response","66","190168","0.0-1.0-90.0","0","0","62907","","null","","","null","9","","","","","","","","","","","","","","","NaN",""
"","S1","","html-keyboard-response","67","190422","0.0-1.0-92.0","0","0","62907","","null","","","null","10","","","","","","","","","","","","","","","",""
"","ISI","","html-keyboard-response","68","192425","0.0-1.0-93.0","0","0","62907","","null","","","null","10","NaN","","","","","","","","","","","","","","",""
"","S2","","html-keyboard-response","69","192678","0.0-1.0-94.0","0","0","62907","","null","","","null","10","","NaN","","","","","","","","","","","","","",""
"","response","","html-keyboard-response","70","193541","0.0-1.0-95.0-0.0","0","0","62907","","862","","","75","10","","","1","10","training","adjacent","CB","3","2","Q.jpg","M.jpg","1","0","0","",""
"","feedback","","html-keyboard-response","71","194544","0.0-1.0-96.0-0.0","0","0","62907","","null","","","null","10","","","","","","","","","","","","","","","",""
"","time_out","","html-keyboard-response","72","196547","0.0-1.0-98.0-0.0","0","0","62907","","null","","","null","10","","","","","","","","","","","","","","","",""
"","ITI","","html-keyboard-response","73","197549","0.0-1.0-99.0","0","0","62907","","null","","","null","10","","","","","","","","","","","","","","","NaN",""
"","S1","","html-keyboard-response","74","197801","0.0-1.0-101.0","0","0","62907","","null","","","null","11","","","","","","","","","","","","","","","",""
"","ISI","","html-keyboard-response","75","199803","0.0-1.0-102.0","0","0","62907","","null","","","null","11","NaN","","","","","","","","","","","","","","",""
"","S2","","html-keyboard-response","76","200057","0.0-1.0-103.0","0","0","62907","","null","","","null","11","","NaN","","","","","","","","","","","","","",""
"","response","","html-keyboard-response","77","200388","0.0-1.0-104.0-0.0","0","0","62907","","327","","","68","11","","","1","11","training","adjacent","AB","1","2","L.jpg","M.jpg","0","1","0","",""
"","feedback","","html-keyboard-response","78","201392","0.0-1.0-105.0-0.0","0","0","62907","","null","","","null","11","","","","","","","","","","","","","","","",""
"","time_out","","html-keyboard-response","79","203395","0.0-1.0-107.0-0.0","0","0","62907","","null","","","null","11","","","","","","","","","","","","","","","",""
"","ITI","","html-keyboard-response","80","204402","0.0-1.0-108.0","0","0","62907","","null","","","null","11","","","","","","","","","","","","","","","NaN",""
"","S1","","html-keyboard-response","81","204656","0.0-1.0-110.0","0","0","62907","","null","","","null","12","","","","","","","","","","","","","","","",""
"","ISI","","html-keyboard-response","82","206658","0.0-1.0-111.0","0","0","62907","","null","","","null","12","NaN","","","","","","","","","","","","","","",""
"","S2","","html-keyboard-response","83","206910","0.0-1.0-112.0","0","0","62907","","null","","","null","12","","NaN","","","","","","","","","","","","","",""
"","response","","html-keyboard-response","84","207166","0.0-1.0-113.0-0.0","0","0","62907","","255","","","68","12","","","1","12","training","adjacent","CB","3","2","Q.jpg","M.jpg","0","0","1","",""
"","feedback","","html-keyboard-response","85","208170","0.0-1.0-114.0-0.0","0","0","62907","","null","","","null","12","","","","","","","","","","","","","","","",""
"","ITI","","html-keyboard-response","86","209178","0.0-1.0-117.0","0","0","62907","","null","","","null","12","","","","","","","","","","","","","","","NaN",""
"","S1","","html-keyboard-response","87","209431","0.0-1.0-119.0","0","0","62907","","null","","","null","13","","","","","","","","","","","","","","","",""
"","ISI","","html-keyboard-response","88","211434","0.0-1.0-120.0","0","0","62907","","null","","","null","13","NaN","","","","","","","","","","","","","","",""
"","S2","","html-keyboard-response","89","211688","0.0-1.0-121.0","0","0","62907","","null","","","null","13","","NaN","","","","","","","","","","","","","",""
"","response","","html-keyboard-response","90","212358","0.0-1.0-122.0-0.0","0","0","62907","","667","","","68","13","","","1","13","training","adjacent","CD","3","4","Q.jpg","R.jpg","0","1","0","",""
"","feedback","","html-keyboard-response","91","213362","0.0-1.0-123.0-0.0","0","0","62907","","null","","","null","13","","","","","","","","","","","","","","","",""
"","time_out","","html-keyboard-response","92","215364","0.0-1.0-125.0-0.0","0","0","62907","","null","","","null","13","","","","","","","","","","","","","","","",""
"","ITI","","html-keyboard-response","93","216365","0.0-1.0-126.0","0","0","62907","","null","","","null","13","","","","","","","","","","","","","","","NaN",""
"","S1","","html-keyboard-response","94","216620","0.0-1.0-128.0","0","0","62907","","null","","","null","14","","","","","","","","","","","","","","","",""
"","ISI","","html-keyboard-response","95","218624","0.0-1.0-129.0","0","0","62907","","null","","","null","14","NaN","","","","","","","","","","","","","","",""
"","S2","","html-keyboard-response","96","218876","0.0-1.0-130.0","0","0","62907","","null","","","null","14","","NaN","","","","","","","","","","","","","",""
"","response","","html-keyboard-response","97","219339","0.0-1.0-131.0-0.0","0","0","62907","","462","","","68","14","","","1","14","training","adjacent","AB","1","2","L.jpg","M.jpg","0","1","0","",""
"","feedback","","html-keyboard-response","98","220341","0.0-1.0-132.0-0.0","0","0","62907","","null","","","null","14","","","","","","","","","","","","","","","",""
"","time_out","","html-keyboard-response","99","222343","0.0-1.0-134.0-0.0","0","0","62907","","null","","","null","14","","","","","","","","","","","","","","","",""
"","ITI","","html-keyboard-response","100","223345","0.0-1.0-135.0","0","0","62907","","null","","","null","14","","","","","","","","","","","","","","","NaN",""
"","S1","","html-keyboard-response","101","223611","0.0-1.0-137.0","0","0","62907","","null","","","null","15","","","","","","","","","","","","","","","",""
"","ISI","","html-keyboard-response","102","225613","0.0-1.0-138.0","0","0","62907","","null","","","null","15","NaN","","","","","","","","","","","","","","",""
"","S2","","html-keyboard-response","103","225866","0.0-1.0-139.0","0","0","62907","","null","","","null","15","","NaN","","","","","","","","","","","","","",""
"","response","","html-keyboard-response","104","226458","0.0-1.0-140.0-0.0","0","0","62907","","589","","","75","15","","","1","15","training","adjacent","ED","5","4","O.jpg","R.jpg","1","0","0","",""
"","feedback","","html-keyboard-response","105","227459","0.0-1.0-141.0-0.0","0","0","62907","","null","","","null","15","","","","","","","","","","","","","","","",""
"","time_out","","html-keyboard-response","106","229462","0.0-1.0-143.0-0.0","0","0","62907","","null","","","null","15","","","","","","","","","","","","","","","",""
"","ITI","","html-keyboard-response","107","230464","0.0-1.0-144.0","0","0","62907","","null","","","null","15","","","","","","","","","","","","","","","NaN",""
"","S1","","html-keyboard-response","108","230717","0.0-1.0-146.0","0","0","62907","","null","","","null","16","","","","","","","","","","","","","","","",""
"","ISI","","html-keyboard-response","109","232720","0.0-1.0-147.0","0","0","62907","","null","","","null","16","NaN","","","","","","","","","","","","","","",""
"","S2","","html-keyboard-response","110","232973","0.0-1.0-148.0","0","0","62907","","null","","","null","16","","NaN","","","","","","","","","","","","","",""
"","response","","html-keyboard-response","111","233211","0.0-1.0-149.0-0.0","0","0","62907","","237","","","68","16","","","1","16","training","adjacent","BC","2","3","M.jpg","Q.jpg","0","1","0","",""
"","feedback","","html-keyboard-response","112","234213","0.0-1.0-150.0-0.0","0","0","62907","","null","","","null","16","","","","","","","","","","","","","","","",""
"","time_out","","html-keyboard-response","113","236216","0.0-1.0-152.0-0.0","0","0","62907","","null","","","null","16","","","","","","","","","","","","","","","",""
"","ITI","","html-keyboard-response","114","237218","0.0-1.0-153.0","0","0","62907","","null","","","null","16","","","","","","","","","","","","","","","NaN",""
"","S1","","html-keyboard-response","115","237471","0.0-1.0-155.0","0","0","62907","","null","","","null","17","","","","","","","","","","","","","","","",""
"","ISI","","html-keyboard-response","116","239472","0.0-1.0-156.0","0","0","62907","","null","","","null","17","NaN","","","","","","","","","","","","","","",""
"","S2","","html-keyboard-response","117","239725","0.0-1.0-157.0","0","0","62907","","null","","","null","17","","NaN","","","","","","","","","","","","","",""
"","response","","html-keyboard-response","118","240083","0.0-1.0-158.0-0.0","0","0","62907","","357","","","68","17","","","1","17","training","adjacent","EF","5","6","O.jpg","P.jpg","0","1","0","",""
"","feedback","","html-keyboard-response","119","241086","0.0-1.0-159.0-0.0","0","0","62907","","null","","","null","17","","","","","","","","","","","","","","","",""
"","time_out","","html-keyboard-response","120","243089","0.0-1.0-161.0-0.0","0","0","62907","","null","","","null","17","","","","","","","","","","","","","","","",""
"","ITI","","html-keyboard-response","121","244091","0.0-1.0-162.0","0","0","62907","","null","","","null","17","","","","","","","","","","","","","","","NaN",""
"","S1","","html-keyboard-response","122","244342","0.0-1.0-164.0","0","0","62907","","null","","","null","18","","","","","","","","","","","","","","","",""
"","ISI","","html-keyboard-response","123","246345","0.0-1.0-165.0","0","0","62907","","null","","","null","18","NaN","","","","","","","","","","","","","","",""
"","S2","","html-keyboard-response","124","246600","0.0-1.0-166.0","0","0","62907","","null","","","null","18","","NaN","","","","","","","","","","","","","",""
"","response","","html-keyboard-response","125","246834","0.0-1.0-167.0-0.0","0","0","62907","","233","","","75","18","","","1","18","training","adjacent","CD","3","4","Q.jpg","R.jpg","1","1","1","",""
"","feedback","","html-keyboard-response","126","247835","0.0-1.0-168.0-0.0","0","0","62907","","null","","","null","18","","","","","","","","","","","","","","","",""
"","ITI","","html-keyboard-response","127","248838","0.0-1.0-171.0","0","0","62907","","null","","","null","18","","","","","","","","","","","","","","","NaN",""
"","S1","","html-keyboard-response","128","249091","0.0-1.0-173.0","0","0","62907","","null","","","null","19","","","","","","","","","","","","","","","",""
"","ISI","","html-keyboard-response","129","251093","0.0-1.0-174.0","0","0","62907","","null","","","null","19","NaN","","","","","","","","","","","","","","",""
"","S2","","html-keyboard-response","130","251348","0.0-1.0-175.0","0","0","62907","","null","","","null","19","","NaN","","","","","","","","","","","","","",""
"","response","","html-keyboard-response","131","251885","0.0-1.0-176.0-0.0","0","0","62907","","536","","","68","19","","","1","19","training","adjacent","FG","6","7","P.jpg","N.jpg","0","1","0","",""
"","feedback","","html-keyboard-response","132","252888","0.0-1.0-177.0-0.0","0","0","62907","","null","","","null","19","","","","","","","","","","","","","","","",""
"","time_out","","html-keyboard-response","133","254891","0.0-1.0-179.0-0.0","0","0","62907","","null","","","null","19","","","","","","","","","","","","","","","",""
"","ITI","","html-keyboard-response","134","255894","0.0-1.0-180.0","0","0","62907","","null","","","null","19","","","","","","","","","","","","","","","NaN",""
"","S1","","html-keyboard-response","135","256146","0.0-1.0-182.0","0","0","62907","","null","","","null","20","","","","","","","","","","","","","","","",""
"","ISI","","html-keyboard-response","136","258149","0.0-1.0-183.0","0","0","62907","","null","","","null","20","NaN","","","","","","","","","","","","","","",""
"","S2","","html-keyboard-response","137","258370","0.0-1.0-184.0","0","0","62907","","219","","","75","20","","k","1","20","training","adjacent","EF","5","6","O.jpg","P.jpg","1","1","1","",""
"","feedback","","html-keyboard-response","138","259372","0.0-1.0-186.0-0.0","0","0","62907","","null","","","null","20","","","","","","","","","","","","","","","",""
"","ITI","","html-keyboard-response","139","260374","0.0-1.0-189.0","0","0","62907","","null","","","null","20","","","","","","","","","","","","","","","NaN",""
"","S1","","html-keyboard-response","140","260629","0.0-1.0-191.0","0","0","62907","","null","","","null","21","","","","","","","","","","","","","","","",""
"","ISI","","html-keyboard-response","141","262632","0.0-1.0-192.0","0","0","62907","","null","","","null","21","NaN","","","","","","","","","","","","","","",""
"","S2","","html-keyboard-response","142","262884","0.0-1.0-193.0","0","0","62907","","null","","","null","21","","NaN","","","","","","","","","","","","","",""
"","response","","html-keyboard-response","143","264637","0.0-1.0-194.0-0.0","0","0","62907","","null","","","null","21","","","1","21","training","adjacent","FG","6","7","P.jpg","N.jpg","NaN","1","0","",""
"","too_slow_prompt","","html-keyboard-response","144","265640","0.0-1.0-196.0-0.0","1","0","62907","","null","","","null","","","","","","","","","","","","","","","","",""
"","time_out","","html-keyboard-response","145","267643","0.0-1.0-197.0-0.0","0","0","62907","","null","","","null","21","","","","","","","","","","","","","","","",""
"","ITI","","html-keyboard-response","146","268644","0.0-1.0-198.0","0","0","62907","","null","","","null","21","","","","","","","","","","","","","","","NaN",""
"","S1","","html-keyboard-response","147","268896","0.0-1.0-200.0","0","0","62907","","null","","","null","22","","","","","","","","","","","","","","","",""
"","ISI","","html-keyboard-response","148","270898","0.0-1.0-201.0","0","0","62907","","null","","","null","22","NaN","","","","","","","","","","","","","","",""
"","S2","","html-keyboard-response","149","271152","0.0-1.0-202.0","0","0","62907","","null","","","null","22","","NaN","","","","","","","","","","","","","",""
"","response","","html-keyboard-response","150","271409","0.0-1.0-203.0-0.0","0","0","62907","","255","","","68","22","","","1","22","training","adjacent","FE","6","5","P.jpg","O.jpg","0","0","1","",""
"","feedback","","html-keyboard-response","151","272411","0.0-1.0-204.0-0.0","0","0","62907","","null","","","null","22","","","","","","","","","","","","","","","",""
"","ITI","","html-keyboard-response","152","273413","0.0-1.0-207.0","0","0","62907","","null","","","null","22","","","","","","","","","","","","","","","NaN",""
"","S1","","html-keyboard-response","153","273666","0.0-1.0-209.0","0","0","62907","","null","","","null","23","","","","","","","","","","","","","","","",""
"","ISI","","html-keyboard-response","154","275668","0.0-1.0-210.0","0","0","62907","","null","","","null","23","NaN","","","","","","","","","","","","","","",""
"","S2","","html-keyboard-response","155","275920","0.0-1.0-211.0","0","0","62907","","null","","","null","23","","NaN","","","","","","","","","","","","","",""
"","response","","html-keyboard-response","156","276163","0.0-1.0-212.0-0.0","0","0","62907","","241","","","75","23","","","1","23","training","adjacent","ED","5","4","O.jpg","R.jpg","1","0","0","",""
"","feedback","","html-keyboard-response","157","277165","0.0-1.0-213.0-0.0","0","0","62907","","null","","","null","23","","","","","","","","","","","","","","","",""
"","time_out","","html-keyboard-response","158","279168","0.0-1.0-215.0-0.0","0","0","62907","","null","","","null","23","","","","","","","","","","","","","","","",""
"","ITI","","html-keyboard-response","159","280170","0.0-1.0-216.0","0","0","62907","","null","","","null","23","","","","","","","","","","","","","","","NaN",""
"","S1","","html-keyboard-response","160","280424","0.0-1.0-218.0","0","0","62907","","null","","","null","24","","","","","","","","","","","","","","","",""
"","ISI","","html-keyboard-response","161","282426","0.0-1.0-219.0","0","0","62907","","null","","","null","24","NaN","","","","","","","","","","","","","","",""
"","S2","","html-keyboard-response","162","282679","0.0-1.0-220.0","0","0","62907","","null","","","null","24","","NaN","","","","","","","","","","","","","",""
"","response","","html-keyboard-response","163","283068","0.0-1.0-221.0-0.0","0","0","62907","","388","","","75","24","","","1","24","training","adjacent","GF","7","6","N.jpg","P.jpg","1","0","0","",""
"","feedback","","html-keyboard-response","164","284070","0.0-1.0-222.0-0.0","0","0","62907","","null","","","null","24","","","","","","","","","","","","","","","",""
"","time_out","","html-keyboard-response","165","286073","0.0-1.0-224.0-0.0","0","0","62907","","null","","","null","24","","","","","","","","","","","","","","","",""
"","ITI","","html-keyboard-response","166","287075","0.0-1.0-225.0","0","0","62907","","null","","","null","24","","","","","","","","","","","","","","","NaN",""
"","S1","","html-keyboard-response","167","287327","0.0-1.0-227.0","0","0","62907","","null","","","null","25","","","","","","","","","","","","","","","",""
"","ISI","","html-keyboard-response","168","289329","0.0-1.0-228.0","0","0","62907","","null","","","null","25","NaN","","","","","","","","","","","","","","",""
"","S2","","html-keyboard-response","169","289581","0.0-1.0-229.0","0","0","62907","","null","","","null","25","","NaN","","","","","","","","","","","","","",""
"","response","","html-keyboard-response","170","291334","0.0-1.0-230.0-0.0","0","0","62907","","null","","","null","25","","","1","25","training","adjacent","DE","4","5","R.jpg","O.jpg","NaN","1","0","",""
"","too_slow_prompt","","html-keyboard-response","171","292337","0.0-1.0-232.0-0.0","1","0","62907","","null","","","null","","","","","","","","","","","","","","","","",""
"","time_out","","html-keyboard-response","172","294339","0.0-1.0-233.0-0.0","0","0","62907","","null","","","null","25","","","","","","","","","","","","","","","",""
"","ITI","","html-keyboard-response","173","295340","0.0-1.0-234.0","0","0","62907","","null","","","null","25","","","","","","","","","","","","","","","NaN",""
"","S1","","html-keyboard-response","174","295593","0.0-1.0-236.0","0","0","62907","","null","","","null","26","","","","","","","","","","","","","","","",""
"","ISI","","html-keyboard-response","175","297596","0.0-1.0-237.0","0","0","62907","","null","","","null","26","NaN","","","","","","","","","","","","","","",""
"","S2","","html-keyboard-response","176","297848","0.0-1.0-238.0","0","0","62907","","null","","","null","26","","NaN","","","","","","","","","","","","","",""
"","response","","html-keyboard-response","177","298213","0.0-1.0-239.0-0.0","0","0","62907","","364","","","75","26","","","1","26","training","adjacent","FE","6","5","P.jpg","O.jpg","1","0","0","",""
"","feedback","","html-keyboard-response","178","299216","0.0-1.0-240.0-0.0","0","0","62907","","null","","","null","26","","","","","","","","","","","","","","","",""
"","time_out","","html-keyboard-response","179","301219","0.0-1.0-242.0-0.0","0","0","62907","","null","","","null","26","","","","","","","","","","","","","","","",""
"","ITI","","html-keyboard-response","180","302224","0.0-1.0-243.0","0","0","62907","","null","","","null","26","","","","","","","","","","","","","","","NaN",""
"","S1","","html-keyboard-response","181","302477","0.0-1.0-245.0","0","0","62907","","null","","","null","27","","","","","","","","","","","","","","","",""
"","ISI","","html-keyboard-response","182","304480","0.0-1.0-246.0","0","0","62907","","null","","","null","27","NaN","","","","","","","","","","","","","","",""
"","S2","","html-keyboard-response","183","304733","0.0-1.0-247.0","0","0","62907","","null","","","null","27","","NaN","","","","","","","","","","","","","",""
"","response","","html-keyboard-response","184","305362","0.0-1.0-248.0-0.0","0","0","62907","","625","","","68","27","","","1","27","training","adjacent","DE","4","5","R.jpg","O.jpg","0","1","0","",""
"","feedback","","html-keyboard-response","185","306365","0.0-1.0-249.0-0.0","0","0","62907","","null","","","null","27","","","","","","","","","","","","","","","",""
"","time_out","","html-keyboard-response","186","308368","0.0-1.0-251.0-0.0","0","0","62907","","null","","","null","27","","","","","","","","","","","","","","","",""
"","ITI","","html-keyboard-response","187","309371","0.0-1.0-252.0","0","0","62907","","null","","","null","27","","","","","","","","","","","","","","","NaN",""
"","S1","","html-keyboard-response","188","309623","0.0-1.0-254.0","0","0","62907","","null","","","null","28","","","","","","","","","","","","","","","",""
"","ISI","","html-keyboard-response","189","311626","0.0-1.0-255.0","0","0","62907","","null","","","null","28","NaN","","","","","","","","","","","","","","",""
"","S2","","html-keyboard-response","190","311879","0.0-1.0-256.0","0","0","62907","","null","","","null","28","","NaN","","","","","","","","","","","","","",""
"","response","","html-keyboard-response","191","312303","0.0-1.0-257.0-0.0","0","0","62907","","422","","","68","28","","","1","28","training","adjacent","FE","6","5","P.jpg","O.jpg","0","0","1","",""
"","feedback","","html-keyboard-response","192","313307","0.0-1.0-258.0-0.0","0","0","62907","","null","","","null","28","","","","","","","","","","","","","","","",""
"","ITI","","html-keyboard-response","193","314309","0.0-1.0-261.0","0","0","62907","","null","","","null","28","","","","","","","","","","","","","","","NaN",""
"","S1","","html-keyboard-response","194","314562","0.0-1.0-263.0","0","0","62907","","null","","","null","29","","","","","","","","","","","","","","","",""
"","ISI","","html-keyboard-response","195","316565","0.0-1.0-264.0","0","0","62907","","null","","","null","29","NaN","","","","","","","","","","","","","","",""
"","S2","","html-keyboard-response","196","316824","0.0-1.0-265.0","0","0","62907","","null","","","null","29","","NaN","","","","","","","","","","","","","",""
"","response","","html-keyboard-response","197","316993","0.0-1.0-266.0-0.0","0","0","62907","","166","","","68","29","","","1","29","training","adjacent","CD","3","4","Q.jpg","R.jpg","0","1","0","",""
"","feedback","","html-keyboard-response","198","317995","0.0-1.0-267.0-0.0","0","0","62907","","null","","","null","29","","","","","","","","","","","","","","","",""
"","time_out","","html-keyboard-response","199","319998","0.0-1.0-269.0-0.0","0","0","62907","","null","","","null","29","","","","","","","","","","","","","","","",""
"","ITI","","html-keyboard-response","200","321008","0.0-1.0-270.0","0","0","62907","","null","","","null","29","","","","","","","","","","","","","","","NaN",""
"","S1","","html-keyboard-response","201","321260","0.0-1.0-272.0","0","0","62907","","null","","","null","30","","","","","","","","","","","","","","","",""
"","ISI","","html-keyboard-response","202","323261","0.0-1.0-273.0","0","0","62907","","null","","","null","30","NaN","","","","","","","","","","","","","","",""
"","S2","","html-keyboard-response","203","323514","0.0-1.0-274.0","0","0","62907","","null","","","null","30","","NaN","","","","","","","","","","","","","",""
"","response","","html-keyboard-response","204","324376","0.0-1.0-275.0-0.0","0","0","62907","","861","","","75","30","","","1","30","training","adjacent","AB","1","2","L.jpg","M.jpg","1","1","1","",""
"","feedback","","html-keyboard-response","205","325379","0.0-1.0-276.0-0.0","0","0","62907","","null","","","null","30","","","","","","","","","","","","","","","",""
"","ITI","","html-keyboard-response","206","326382","0.0-1.0-279.0","0","0","62907","","null","","","null","30","","","","","","","","","","","","","","","NaN",""
"","S1","","html-keyboard-response","207","326634","0.0-1.0-281.0","0","0","62907","","null","","","null","31","","","","","","","","","","","","","","","",""
"","ISI","","html-keyboard-response","208","328637","0.0-1.0-282.0","0","0","62907","","null","","","null","31","NaN","","","","","","","","","","","","","","",""
"","S2","","html-keyboard-response","209","328891","0.0-1.0-283.0","0","0","62907","","null","","","null","31","","NaN","","","","","","","","","","","","","",""
"","response","","html-keyboard-response","210","329299","0.0-1.0-284.0-0.0","0","0","62907","","407","","","75","31","","","1","31","training","adjacent","ED","5","4","O.jpg","R.jpg","1","0","0","",""
"","feedback","","html-keyboard-response","211","330303","0.0-1.0-285.0-0.0","0","0","62907","","null","","","null","31","","","","","","","","","","","","","","","",""
"","time_out","","html-keyboard-response","212","332305","0.0-1.0-287.0-0.0","0","0","62907","","null","","","null","31","","","","","","","","","","","","","","","",""
"","ITI","","html-keyboard-response","213","333318","0.0-1.0-288.0","0","0","62907","","null","","","null","31","","","","","","","","","","","","","","","NaN",""
"","S1","","html-keyboard-response","214","333570","0.0-1.0-290.0","0","0","62907","","null","","","null","32","","","","","","","","","","","","","","","",""
"","ISI","","html-keyboard-response","215","335573","0.0-1.0-291.0","0","0","62907","","344","","","68","32","d","","","","","","","","","","","","","","",""
"","S2","","html-keyboard-response","216","335826","0.0-1.0-292.0","0","0","62907","","null","","","null","32","","NaN","","","","","","","","","","","","","",""
"","response","","html-keyboard-response","217","336102","0.0-1.0-293.0-0.0","0","0","62907","","274","","","75","32","","","1","32","training","adjacent","GF","7","6","N.jpg","P.jpg","1","0","0","",""
"","feedback","","html-keyboard-response","218","337103","0.0-1.0-294.0-0.0","0","0","62907","","null","","","null","32","","","","","","","","","","","","","","","",""
"","time_out","","html-keyboard-response","219","339114","0.0-1.0-296.0-0.0","0","0","62907","","null","","","null","32","","","","","","","","","","","","","","","",""
"","ITI","","html-keyboard-response","220","340116","0.0-1.0-297.0","0","0","62907","","null","","","null","32","","","","","","","","","","","","","","","NaN",""
"","S1","","html-keyboard-response","221","340368","0.0-1.0-299.0","0","0","62907","","null","","","null","33","","","","","","","","","","","","","","","",""
"","ISI","","html-keyboard-response","222","342371","0.0-1.0-300.0","0","0","62907","","null","","","null","33","NaN","","","","","","","","","","","","","","",""
"","S2","","html-keyboard-response","223","342625","0.0-1.0-301.0","0","0","62907","","null","","","null","33","","NaN","","","","","","","","","","","","","",""
"","response","","html-keyboard-response","224","343156","0.0-1.0-302.0-0.0","0","0","62907","","530","","","68","33","","","1","33","training","adjacent","DC","4","3","R.jpg","Q.jpg","0","0","1","",""
"","feedback","","html-keyboard-response","225","344159","0.0-1.0-303.0-0.0","0","0","62907","","null","","","null","33","","","","","","","","","","","","","","","",""
"","ITI","","html-keyboard-response","226","345163","0.0-1.0-306.0","0","0","62907","","null","","","null","33","","","","","","","","","","","","","","","NaN",""
"","S1","","html-keyboard-response","227","345415","0.0-1.0-308.0","0","0","62907","","null","","","null","34","","","","","","","","","","","","","","","",""
"","ISI","","html-keyboard-response","228","347419","0.0-1.0-309.0","0","0","62907","","null","","","null","34","NaN","","","","","","","","","","","","","","",""
"","S2","","html-keyboard-response","229","347673","0.0-1.0-310.0","0","0","62907","","null","","","null","34","","NaN","","","","","","","","","","","","","",""
"","response","","html-keyboard-response","230","347943","0.0-1.0-311.0-0.0","0","0","62907","","269","","","68","34","","","1","34","training","adjacent","CB","3","2","Q.jpg","M.jpg","0","0","1","",""
"","feedback","","html-keyboard-response","231","348945","0.0-1.0-312.0-0.0","0","0","62907","","null","","","null","34","","","","","","","","","","","","","","","",""
"","ITI","","html-keyboard-response","232","349947","0.0-1.0-315.0","0","0","62907","","null","","","null","34","","","","","","","","","","","","","","","NaN",""
"","S1","","html-keyboard-response","233","350201","0.0-1.0-317.0","0","0","62907","","null","","","null","35","","","","","","","","","","","","","","","",""
"","ISI","","html-keyboard-response","234","352203","0.0-1.0-318.0","0","0","62907","","null","","","null","35","NaN","","","","","","","","","","","","","","",""
"","S2","","html-keyboard-response","235","352457","0.0-1.0-319.0","0","0","62907","","null","","","null","35","","NaN","","","","","","","","","","","","","",""
"","response","","html-keyboard-response","236","352761","0.0-1.0-320.0-0.0","0","0","62907","","302","","","68","35","","","1","35","training","adjacent","DE","4","5","R.jpg","O.jpg","0","1","0","",""
"","feedback","","html-keyboard-response","237","353765","0.0-1.0-321.0-0.0","0","0","62907","","null","","","null","35","","","","","","","","","","","","","","","",""
"","time_out","","html-keyboard-response","238","355766","0.0-1.0-323.0-0.0","0","0","62907","","null","","","null","35","","","","","","","","","","","","","","","",""
"","ITI","","html-keyboard-response","239","356768","0.0-1.0-324.0","0","0","62907","","null","","","null","35","","","","","","","","","","","","","","","NaN",""
"","S1","","html-keyboard-response","240","357020","0.0-1.0-326.0","0","0","62907","","null","","","null","36","","","","","","","","","","","","","","","",""
"","ISI","","html-keyboard-response","241","359023","0.0-1.0-327.0","0","0","62907","","null","","","null","36","NaN","","","","","","","","","","","","","","",""
"","S2","","html-keyboard-response","242","359276","0.0-1.0-328.0","0","0","62907","","null","","","null","36","","NaN","","","","","","","","","","","","","",""
"","response","","html-keyboard-response","243","360260","0.0-1.0-329.0-0.0","0","0","62907","","982","","","75","36","","","1","36","training","adjacent","BA","2","1","M.jpg","L.jpg","1","0","0","",""
"","feedback","","html-keyboard-response","244","361261","0.0-1.0-330.0-0.0","0","0","62907","","null","","","null","36","","","","","","","","","","","","","","","",""
"","time_out","","html-keyboard-response","245","363263","0.0-1.0-332.0-0.0","0","0","62907","","null","","","null","36","","","","","","","","","","","","","","","",""
"","ITI","","html-keyboard-response","246","364265","0.0-1.0-333.0","0","0","62907","","null","","","null","36","","","","","","","","","","","","","","","NaN",""
"","S1","","html-keyboard-response","247","364519","0.0-1.0-335.0","0","0","62907","","null","","","null","37","","","","","","","","","","","","","","","",""
"","ISI","","html-keyboard-response","248","366522","0.0-1.0-336.0","0","0","62907","","null","","","null","37","NaN","","","","","","","","","","","","","","",""
"","S2","","html-keyboard-response","249","366775","0.0-1.0-337.0","0","0","62907","","null","","","null","37","","NaN","","","","","","","","","","","","","",""
"","response","","html-keyboard-response","250","367033","0.0-1.0-338.0-0.0","0","0","62907","","257","","","75","37","","","1","37","training","adjacent","AB","1","2","L.jpg","M.jpg","1","1","1","",""
"","feedback","","html-keyboard-response","251","368035","0.0-1.0-339.0-0.0","0","0","62907","","null","","","null","37","","","","","","","","","","","","","","","",""
"","ITI","","html-keyboard-response","252","369038","0.0-1.0-342.0","0","0","62907","","null","","","null","37","","","","","","","","","","","","","","","NaN",""
"","S1","","html-keyboard-response","253","369291","0.0-1.0-344.0","0","0","62907","","null","","","null","38","","","","","","","","","","","","","","","",""
"","ISI","","html-keyboard-response","254","371293","0.0-1.0-345.0","0","0","62907","","122","","","68","38","d","","","","","","","","","","","","","","",""
"","S2","","html-keyboard-response","255","371545","0.0-1.0-346.0","0","0","62907","","null","","","null","38","","NaN","","","","","","","","","","","","","",""
"","response","","html-keyboard-response","256","372133","0.0-1.0-347.0-0.0","0","0","62907","","587","","","68","38","","","1","38","training","adjacent","CD","3","4","Q.jpg","R.jpg","0","1","0","",""
"","feedback","","html-keyboard-response","257","373134","0.0-1.0-348.0-0.0","0","0","62907","","null","","","null","38","","","","","","","","","","","","","","","",""
"","time_out","","html-keyboard-response","258","375136","0.0-1.0-350.0-0.0","0","0","62907","","null","","","null","38","","","","","","","","","","","","","","","",""
"","ITI","","html-keyboard-response","259","376139","0.0-1.0-351.0","0","0","62907","","null","","","null","38","","","","","","","","","","","","","","","NaN",""
"","S1","","html-keyboard-response","260","376392","0.0-1.0-353.0","0","0","62907","","null","","","null","39","","","","","","","","","","","","","","","",""
"","ISI","","html-keyboard-response","261","378394","0.0-1.0-354.0","0","0","62907","","null","","","null","39","NaN","","","","","","","","","","","","","","",""
"","S2","","html-keyboard-response","262","378647","0.0-1.0-355.0","0","0","62907","","null","","","null","39","","NaN","","","","","","","","","","","","","",""
"","response","","html-keyboard-response","263","378864","0.0-1.0-356.0-0.0","0","0","62907","","215","","","75","39","","","1","39","training","adjacent","BC","2","3","M.jpg","Q.jpg","1","1","1","",""
"","feedback","","html-keyboard-response","264","379868","0.0-1.0-357.0-0.0","0","0","62907","","null","","","null","39","","","","","","","","","","","","","","","",""
"","ITI","","html-keyboard-response","265","380871","0.0-1.0-360.0","0","0","62907","","null","","","null","39","","","","","","","","","","","","","","","NaN",""
"","S1","","html-keyboard-response","266","381124","0.0-1.0-362.0","0","0","62907","","null","","","null","40","","","","","","","","","","","","","","","",""
"","ISI","","html-keyboard-response","267","383127","0.0-1.0-363.0","0","0","62907","","null","","","null","40","NaN","","","","","","","","","","","","","","",""
"","S2","","html-keyboard-response","268","383378","0.0-1.0-364.0","0","0","62907","","null","","","null","40","","NaN","","","","","","","","","","","","","",""
"","response","","html-keyboard-response","269","383669","0.0-1.0-365.0-0.0","0","0","62907","","290","","","75","40","","","1","40","training","adjacent","FG","6","7","P.jpg","N.jpg","1","1","1","",""
"","feedback","","html-keyboard-response","270","384671","0.0-1.0-366.0-0.0","0","0","62907","","null","","","null","40","","","","","","","","","","","","","","","",""
"","ITI","","html-keyboard-response","271","385674","0.0-1.0-369.0","0","0","62907","","null","","","null","40","","","","","","","","","","","","","","","NaN",""
"","S1","","html-keyboard-response","272","385927","0.0-1.0-371.0","0","0","62907","","null","","","null","41","","","","","","","","","","","","","","","",""
"","ISI","","html-keyboard-response","273","387929","0.0-1.0-372.0","0","0","62907","","689","","","75","41","k","","","","","","","","","","","","","","",""
"","S2","","html-keyboard-response","274","388184","0.0-1.0-373.0","0","0","62907","","null","","","null","41","","NaN","","","","","","","","","","","","","",""
"","response","","html-keyboard-response","275","389936","0.0-1.0-374.0-0.0","0","0","62907","","null","","","null","41","","","1","41","training","adjacent","EF","5","6","O.jpg","P.jpg","NaN","1","0","",""
"","too_slow_prompt","","html-keyboard-response","276","390938","0.0-1.0-376.0-0.0","1","0","62907","","null","","","null","","","","","","","","","","","","","","","","",""
"","time_out","","html-keyboard-response","277","392943","0.0-1.0-377.0-0.0","0","0","62907","","null","","","null","41","","","","","","","","","","","","","","","",""
"","ITI","","html-keyboard-response","278","393946","0.0-1.0-378.0","0","0","62907","","null","","","null","41","","","","","","","","","","","","","","","NaN",""
"","S1","","html-keyboard-response","279","394203","0.0-1.0-380.0","0","0","62907","","null","","","null","42","","","","","","","","","","","","","","","",""
"","ISI","","html-keyboard-response","280","396207","0.0-1.0-381.0","0","0","62907","","279","","","68","42","d","","","","","","","","","","","","","","",""
"","S2","","html-keyboard-response","281","396460","0.0-1.0-382.0","0","0","62907","","null","","","null","42","","NaN","","","","","","","","","","","","","",""
"","response","","html-keyboard-response","282","396732","0.0-1.0-383.0-0.0","0","0","62907","","270","","","68","42","","","1","42","training","adjacent","CB","3","2","Q.jpg","M.jpg","0","0","1","",""
"","feedback","","html-keyboard-response","283","397733","0.0-1.0-384.0-0.0","0","0","62907","","null","","","null","42","","","","","","","","","","","","","","","",""
"","ITI","","html-keyboard-response","284","398736","0.0-1.0-387.0","0","0","62907","","null","","","null","42","","","","","","","","","","","","","","","NaN",""
"","S1","","html-keyboard-response","285","398990","0.0-1.0-389.0","0","0","62907","","null","","","null","43","","","","","","","","","","","","","","","",""
"","ISI","","html-keyboard-response","286","400992","0.0-1.0-390.0","0","0","62907","","null","","","null","43","NaN","","","","","","","","","","","","","","",""
"","S2","","html-keyboard-response","287","401244","0.0-1.0-391.0","0","0","62907","","null","","","null","43","","NaN","","","","","","","","","","","","","",""
"","response","","html-keyboard-response","288","401707","0.0-1.0-392.0-0.0","0","0","62907","","459","","","75","43","","","1","43","training","adjacent","ED","5","4","O.jpg","R.jpg","1","0","0","",""
"","feedback","","html-keyboard-response","289","402709","0.0-1.0-393.0-0.0","0","0","62907","","null","","","null","43","","","","","","","","","","","","","","","",""
"","time_out","","html-keyboard-response","290","404712","0.0-1.0-395.0-0.0","0","0","62907","","null","","","null","43","","","","","","","","","","","","","","","",""
"","ITI","","html-keyboard-response","291","405713","0.0-1.0-396.0","0","0","62907","","null","","","null","43","","","","","","","","","","","","","","","NaN",""
"","S1","","html-keyboard-response","292","405966","0.0-1.0-398.0","0","0","62907","","null","","","null","44","","","","","","","","","","","","","","","",""
"","ISI","","html-keyboard-response","293","407968","0.0-1.0-399.0","0","0","62907","","null","","","null","44","NaN","","","","","","","","","","","","","","",""
"","S2","","html-keyboard-response","294","408222","0.0-1.0-400.0","0","0","62907","","null","","","null","44","","NaN","","","","","","","","","","","","","",""
"","response","","html-keyboard-response","295","408354","0.0-1.0-401.0-0.0","0","0","62907","","130","","","68","44","","","1","44","training","adjacent","BA","2","1","M.jpg","L.jpg","0","0","1","",""
"","feedback","","html-keyboard-response","296","409357","0.0-1.0-402.0-0.0","0","0","62907","","null","","","null","44","","","","","","","","","","","","","","","",""
"","ITI","","html-keyboard-response","297","410360","0.0-1.0-405.0","0","0","62907","","null","","","null","44","","","","","","","","","","","","","","","NaN",""
"","S1","","html-keyboard-response","298","410613","0.0-1.0-407.0","0","0","62907","","null","","","null","45","","","","","","","","","","","","","","","",""
"","ISI","","html-keyboard-response","299","412615","0.0-1.0-408.0","0","0","62907","","null","","","null","45","NaN","","","","","","","","","","","","","","",""
"","S2","","html-keyboard-response","300","412869","0.0-1.0-409.0","0","0","62907","","null","","","null","45","","NaN","","","","","","","","","","","","","",""
"","response","","html-keyboard-response","301","413025","0.0-1.0-410.0-0.0","0","0","62907","","153","","","68","45","","","1","45","training","adjacent","DC","4","3","R.jpg","Q.jpg","0","0","1","",""
"","feedback","","html-keyboard-response","302","414028","0.0-1.0-411.0-0.0","0","0","62907","","null","","","null","45","","","","","","","","","","","","","","","",""
"","ITI","","html-keyboard-response","303","415032","0.0-1.0-414.0","0","0","62907","","null","","","null","45","","","","","","","","","","","","","","","NaN",""
"","S1","","html-keyboard-response","304","415285","0.0-1.0-416.0","0","0","62907","","null","","","null","46","","","","","","","","","","","","","","","",""
"","ISI","","html-keyboard-response","305","417288","0.0-1.0-417.0","0","0","62907","","691","","","68","46","d","","","","","","","","","","","","","","",""
"","S2","","html-keyboard-response","306","417541","0.0-1.0-418.0","0","0","62907","","null","","","null","46","","NaN","","","","","","","","","","","","","",""
"","response","","html-keyboard-response","307","417781","0.0-1.0-419.0-0.0","0","0","62907","","239","","","68","46","","","1","46","training","adjacent","FG","6","7","P.jpg","N.jpg","0","1","0","",""
"","feedback","","html-keyboard-response","308","418782","0.0-1.0-420.0-0.0","0","0","62907","","null","","","null","46","","","","","","","","","","","","","","","",""
"","time_out","","html-keyboard-response","309","420784","0.0-1.0-422.0-0.0","0","0","62907","","null","","","null","46","","","","","","","","","","","","","","","",""
"","ITI","","html-keyboard-response","310","421787","0.0-1.0-423.0","0","0","62907","","null","","","null","46","","","","","","","","","","","","","","","NaN",""
"","S1","","html-keyboard-response","311","422039","0.0-1.0-425.0","0","0","62907","","null","","","null","47","","","","","","","","","","","","","","","",""
"","ISI","","html-keyboard-response","312","424043","0.0-1.0-426.0","0","0","62907","","612","","","75","47","k","","","","","","","","","","","","","","",""
"","S2","","html-keyboard-response","313","424297","0.0-1.0-427.0","0","0","62907","","null","","","null","47","","NaN","","","","","","","","","","","","","",""
"","response","","html-keyboard-response","314","426048","0.0-1.0-428.0-0.0","0","0","62907","","null","","","null","47","","","1","47","training","adjacent","DE","4","5","R.jpg","O.jpg","NaN","1","0","",""
"","too_slow_prompt","","html-keyboard-response","315","427053","0.0-1.0-430.0-0.0","1","0","62907","","null","","","null","","","","","","","","","","","","","","","","",""
"","time_out","","html-keyboard-response","316","429056","0.0-1.0-431.0-0.0","0","0","62907","","null","","","null","47","","","","","","","","","","","","","","","",""
"","ITI","","html-keyboard-response","317","430059","0.0-1.0-432.0","0","0","62907","","null","","","null","47","","","","","","","","","","","","","","","NaN",""
"","block_over","","html-keyboard-response","318","436812","0.0-1.0-433.0-0.0","0","0","62907","","6751","","","32","47","","","","","","","","","","","","","","","",""
"","S1","","html-keyboard-response","319","437064","0.0-1.0-434.0","0","0","62907","","null","","","null","48","","","","","","","","","","","","","","","",""
"","ISI","","html-keyboard-response","320","439067","0.0-1.0-435.0","0","0","62907","","null","","","null","48","NaN","","","","","","","","","","","","","","",""
"","S2","","html-keyboard-response","321","439321","0.0-1.0-436.0","0","0","62907","","null","","","null","48","","NaN","","","","","","","","","","","","","",""
"","response","","html-keyboard-response","322","440494","0.0-1.0-437.0-0.0","0","0","62907","","1172","","","75","48","","","2","48","training","adjacent","GF","7","6","N.jpg","P.jpg","1","0","0","",""
"","feedback","","html-keyboard-response","323","441496","0.0-1.0-438.0-0.0","0","0","62907","","null","","","null","48","","","","","","","","","","","","","","","",""
"","time_out","","html-keyboard-response","324","443499","0.0-1.0-440.0-0.0","0","0","62907","","null","","","null","48","","","","","","","","","","","","","","","",""
"","ITI","","html-keyboard-response","325","444502","0.0-1.0-441.0","0","0","62907","","null","","","null","48","","","","","","","","","","","","","","","NaN",""
"","S1","","html-keyboard-response","326","444755","0.0-1.0-443.0","0","0","62907","","null","","","null","49","","","","","","","","","","","","","","","",""
"","ISI","","html-keyboard-response","327","446758","0.0-1.0-444.0","0","0","62907","","null","","","null","49","NaN","","","","","","","","","","","","","","",""
"","S2","","html-keyboard-response","328","447011","0.0-1.0-445.0","0","0","62907","","null","","","null","49","","NaN","","","","","","","","","","","","","",""
"","response","","html-keyboard-response","329","447214","0.0-1.0-446.0-0.0","0","0","62907","","201","","","68","49","","","2","49","training","adjacent","DE","4","5","R.jpg","O.jpg","0","1","0","",""
"","feedback","","html-keyboard-response","330","448218","0.0-1.0-447.0-0.0","0","0","62907","","null","","","null","49","","","","","","","","","","","","","","","",""
"","time_out","","html-keyboard-response","331","450221","0.0-1.0-449.0-0.0","0","0","62907","","null","","","null","49","","","","","","","","","","","","","","","",""
"","ITI","","html-keyboard-response","332","451224","0.0-1.0-450.0","0","0","62907","","null","","","null","49","","","","","","","","","","","","","","","NaN",""
"","S1","","html-keyboard-response","333","451477","0.0-1.0-452.0","0","0","62907","","null","","","null","50","","","","","","","","","","","","","","","",""
"","ISI","","html-keyboard-response","334","453480","0.0-1.0-453.0","0","0","62907","","null","","","null","50","NaN","","","","","","","","","","","","","","",""
"","S2","","html-keyboard-response","335","453735","0.0-1.0-454.0","0","0","62907","","null","","","null","50","","NaN","","","","","","","","","","","","","",""
"","response","","html-keyboard-response","336","454121","0.0-1.0-455.0-0.0","0","0","62907","","384","","","75","50","","","2","50","training","adjacent","CB","3","2","Q.jpg","M.jpg","1","0","0","",""
"","feedback","","html-keyboard-response","337","455124","0.0-1.0-456.0-0.0","0","0","62907","","null","","","null","50","","","","","","","","","","","","","","","",""
"","time_out","","html-keyboard-response","338","457127","0.0-1.0-458.0-0.0","0","0","62907","","null","","","null","50","","","","","","","","","","","","","","","",""
"","ITI","","html-keyboard-response","339","458130","0.0-1.0-459.0","0","0","62907","","null","","","null","50","","","","","","","","","","","","","","","NaN",""
"","S1","","html-keyboard-response","340","458384","0.0-1.0-461.0","0","0","62907","","null","","","null","51","","","","","","","","","","","","","","","",""
"","ISI","","html-keyboard-response","341","460386","0.0-1.0-462.0","0","0","62907","","null","","","null","51","NaN","","","","","","","","","","","","","","",""
"","S2","","html-keyboard-response","342","460640","0.0-1.0-463.0","0","0","62907","","null","","","null","51","","NaN","","","","","","","","","","","","","",""
"","response","","html-keyboard-response","343","460928","0.0-1.0-464.0-0.0","0","0","62907","","284","","","75","51","","","2","51","training","adjacent","AB","1","2","L.jpg","M.jpg","1","1","1","",""
"","feedback","","html-keyboard-response","344","461933","0.0-1.0-465.0-0.0","0","0","62907","","null","","","null","51","","","","","","","","","","","","","","","",""
"","ITI","","html-keyboard-response","345","462935","0.0-1.0-468.0","0","0","62907","","null","","","null","51","","","","","","","","","","","","","","","NaN",""
"","S1","","html-keyboard-response","346","463188","0.0-1.0-470.0","0","0","62907","","null","","","null","52","","","","","","","","","","","","","","","",""
"","ISI","","html-keyboard-response","347","465192","0.0-1.0-471.0","0","0","62907","","null","","","null","52","NaN","","","","","","","","","","","","","","",""
"","S2","","html-keyboard-response","348","465445","0.0-1.0-472.0","0","0","62907","","null","","","null","52","","NaN","","","","","","","","","","","","","",""
"","response","","html-keyboard-response","349","466197","0.0-1.0-473.0-0.0","0","0","62907","","751","","","68","52","","","2","52","training","adjacent","BA","2","1","M.jpg","L.jpg","0","0","1","",""
"","feedback","","html-keyboard-response","350","467208","0.0-1.0-474.0-0.0","0","0","62907","","null","","","null","52","","","","","","","","","","","","","","","",""
"","ITI","","html-keyboard-response","351","468211","0.0-1.0-477.0","0","0","62907","","null","","","null","52","","","","","","","","","","","","","","","NaN",""
"","S1","","html-keyboard-response","352","468464","0.0-1.0-479.0","0","0","62907","","null","","","null","53","","","","","","","","","","","","","","","",""
"","ISI","","html-keyboard-response","353","470466","0.0-1.0-480.0","0","0","62907","","null","","","null","53","NaN","","","","","","","","","","","","","","",""
"","S2","","html-keyboard-response","354","470719","0.0-1.0-481.0","0","0","62907","","null","","","null","53","","NaN","","","","","","","","","","","","","",""
"","response","","html-keyboard-response","355","471332","0.0-1.0-482.0-0.0","0","0","62907","","609","","","68","53","","","2","53","training","adjacent","BC","2","3","M.jpg","Q.jpg","0","1","0","",""
"","feedback","","html-keyboard-response","356","472336","0.0-1.0-483.0-0.0","0","0","62907","","null","","","null","53","","","","","","","","","","","","","","","",""
"","time_out","","html-keyboard-response","357","474339","0.0-1.0-485.0-0.0","0","0","62907","","null","","","null","53","","","","","","","","","","","","","","","",""
"","ITI","","html-keyboard-response","358","475340","0.0-1.0-486.0","0","0","62907","","null","","","null","53","","","","","","","","","","","","","","","NaN",""
"","S1","","html-keyboard-response","359","475593","0.0-1.0-488.0","0","0","62907","","null","","","null","54","","","","","","","","","","","","","","","",""
"","ISI","","html-keyboard-response","360","477595","0.0-1.0-489.0","0","0","62907","","null","","","null","54","NaN","","","","","","","","","","","","","","",""
"","S2","","html-keyboard-response","361","477847","0.0-1.0-490.0","0","0","62907","","null","","","null","54","","NaN","","","","","","","","","","","","","",""
"","response","","html-keyboard-response","362","478521","0.0-1.0-491.0-0.0","0","0","62907","","671","","","68","54","","","2","54","training","adjacent","FG","6","7","P.jpg","N.jpg","0","1","0","",""
"","feedback","","html-keyboard-response","363","479525","0.0-1.0-492.0-0.0","0","0","62907","","null","","","null","54","","","","","","","","","","","","","","","",""
"","time_out","","html-keyboard-response","364","481528","0.0-1.0-494.0-0.0","0","0","62907","","null","","","null","54","","","","","","","","","","","","","","","",""
"","ITI","","html-keyboard-response","365","482530","0.0-1.0-495.0","0","0","62907","","null","","","null","54","","","","","","","","","","","","","","","NaN",""
"","S1","","html-keyboard-response","366","482784","0.0-1.0-497.0","0","0","62907","","null","","","null","55","","","","","","","","","","","","","","","",""
"","ISI","","html-keyboard-response","367","484788","0.0-1.0-498.0","0","0","62907","","null","","","null","55","NaN","","","","","","","","","","","","","","",""
"","S2","","html-keyboard-response","368","485041","0.0-1.0-499.0","0","0","62907","","null","","","null","55","","NaN","","","","","","","","","","","","","",""
"","response","","html-keyboard-response","369","485345","0.0-1.0-500.0-0.0","0","0","62907","","303","","","75","55","","","2","55","training","adjacent","FE","6","5","P.jpg","O.jpg","1","0","0","",""
"","feedback","","html-keyboard-response","370","486348","0.0-1.0-501.0-0.0","0","0","62907","","null","","","null","55","","","","","","","","","","","","","","","",""
"","time_out","","html-keyboard-response","371","488353","0.0-1.0-503.0-0.0","0","0","62907","","null","","","null","55","","","","","","","","","","","","","","","",""
"","ITI","","html-keyboard-response","372","489357","0.0-1.0-504.0","0","0","62907","","null","","","null","55","","","","","","","","","","","","","","","NaN",""
"","S1","","html-keyboard-response","373","489610","0.0-1.0-506.0","0","0","62907","","null","","","null","56","","","","","","","","","","","","","","","",""
"","ISI","","html-keyboard-response","374","491613","0.0-1.0-507.0","0","0","62907","","null","","","null","56","NaN","","","","","","","","","","","","","","",""
"","S2","","html-keyboard-response","375","491864","0.0-1.0-508.0","0","0","62907","","null","","","null","56","","NaN","","","","","","","","","","","","","",""
"","response","","html-keyboard-response","376","492262","0.0-1.0-509.0-0.0","0","0","62907","","396","","","68","56","","","2","56","training","adjacent","ED","5","4","O.jpg","R.jpg","0","0","1","",""
"","feedback","","html-keyboard-response","377","493265","0.0-1.0-510.0-0.0","0","0","62907","","null","","","null","56","","","","","","","","","","","","","","","",""
"","ITI","","html-keyboard-response","378","494267","0.0-1.0-513.0","0","0","62907","","null","","","null","56","","","","","","","","","","","","","","","NaN",""
"","S1","","html-keyboard-response","379","494520","0.0-1.0-515.0","0","0","62907","","null","","","null","57","","","","","","","","","","","","","","","",""
"","ISI","","html-keyboard-response","380","496524","0.0-1.0-516.0","0","0","62907","","null","","","null","57","NaN","","","","","","","","","","","","","","",""
"","S2","","html-keyboard-response","381","496778","0.0-1.0-517.0","0","0","62907","","null","","","null","57","","NaN","","","","","","","","","","","","","",""
"","response","","html-keyboard-response","382","498530","0.0-1.0-518.0-0.0","0","0","62907","","null","","","null","57","","","2","57","training","adjacent","EF","5","6","O.jpg","P.jpg","NaN","1","0","",""
"","too_slow_prompt","","html-keyboard-response","383","499532","0.0-1.0-520.0-0.0","1","0","62907","","null","","","null","","","","","","","","","","","","","","","","",""
"","time_out","","html-keyboard-response","384","501535","0.0-1.0-521.0-0.0","0","0","62907","","null","","","null","57","","","","","","","","","","","","","","","",""
"","ITI","","html-keyboard-response","385","502536","0.0-1.0-522.0","0","0","62907","","null","","","null","57","","","","","","","","","","","","","","","NaN",""
"","S1","","html-keyboard-response","386","502799","0.0-1.0-524.0","0","0","62907","","null","","","null","58","","","","","","","","","","","","","","","",""
"","ISI","","html-keyboard-response","387","504801","0.0-1.0-525.0","0","0","62907","","null","","","null","58","NaN","","","","","","","","","","","","","","",""
"","S2","","html-keyboard-response","388","505054","0.0-1.0-526.0","0","0","62907","","null","","","null","58","","NaN","","","","","","","","","","","","","",""
"","response","","html-keyboard-response","389","505514","0.0-1.0-527.0-0.0","0","0","62907","","459","","","68","58","","","2","58","training","adjacent","DC","4","3","R.jpg","Q.jpg","0","0","1","",""
"","feedback","","html-keyboard-response","390","506517","0.0-1.0-528.0-0.0","0","0","62907","","null","","","null","58","","","","","","","","","","","","","","","",""
"","ITI","","html-keyboard-response","391","507521","0.0-1.0-531.0","0","0","62907","","null","","","null","58","","","","","","","","","","","","","","","NaN",""
"","S1","","html-keyboard-response","392","507773","0.0-1.0-533.0","0","0","62907","","null","","","null","59","","","","","","","","","","","","","","","",""
"","ISI","","html-keyboard-response","393","509776","0.0-1.0-534.0","0","0","62907","","null","","","null","59","NaN","","","","","","","","","","","","","","",""
"","S2","","html-keyboard-response","394","510029","0.0-1.0-535.0","0","0","62907","","null","","","null","59","","NaN","","","","","","","","","","","","","",""
"","response","","html-keyboard-response","395","510479","0.0-1.0-536.0-0.0","0","0","62907","","449","","","75","59","","","2","59","training","adjacent","CB","3","2","Q.jpg","M.jpg","1","0","0","",""
"","feedback","","html-keyboard-response","396","511481","0.0-1.0-537.0-0.0","0","0","62907","","null","","","null","59","","","","","","","","","","","","","","","",""
"","time_out","","html-keyboard-response","397","513485","0.0-1.0-539.0-0.0","0","0","62907","","null","","","null","59","","","","","","","","","","","","","","","",""
"","ITI","","html-keyboard-response","398","514492","0.0-1.0-540.0","0","0","62907","","null","","","null","59","","","","","","","","","","","","","","","NaN",""
"","S1","","html-keyboard-response","399","514745","0.0-1.0-542.0","0","0","62907","","null","","","null","60","","","","","","","","","","","","","","","",""
"","ISI","","html-keyboard-response","400","516755","0.0-1.0-543.0","0","0","62907","","null","","","null","60","NaN","","","","","","","","","","","","","","",""
"","S2","","html-keyboard-response","401","517007","0.0-1.0-544.0","0","0","62907","","null","","","null","60","","NaN","","","","","","","","","","","","","",""
"","response","","html-keyboard-response","402","517488","0.0-1.0-545.0-0.0","0","0","62907","","479","","","68","60","","","2","60","training","adjacent","EF","5","6","O.jpg","P.jpg","0","1","0","",""
"","feedback","","html-keyboard-response","403","518492","0.0-1.0-546.0-0.0","0","0","62907","","null","","","null","60","","","","","","","","","","","","","","","",""
"","time_out","","html-keyboard-response","404","520494","0.0-1.0-548.0-0.0","0","0","62907","","null","","","null","60","","","","","","","","","","","","","","","",""
"","ITI","","html-keyboard-response","405","521496","0.0-1.0-549.0","0","0","62907","","null","","","null","60","","","","","","","","","","","","","","","NaN",""
"","S1","","html-keyboard-response","406","521749","0.0-1.0-551.0","0","0","62907","","null","","","null","61","","","","","","","","","","","","","","","",""
"","ISI","","html-keyboard-response","407","523751","0.0-1.0-552.0","0","0","62907","","null","","","null","61","NaN","","","","","","","","","","","","","","",""
"","S2","","html-keyboard-response","408","524003","0.0-1.0-553.0","0","0","62907","","null","","","null","61","","NaN","","","","","","","","","","","","","",""
"","response","","html-keyboard-response","409","524732","0.0-1.0-554.0-0.0","0","0","62907","","726","","","75","61","","","2","61","training","adjacent","FE","6","5","P.jpg","O.jpg","1","0","0","",""
"","feedback","","html-keyboard-response","410","525735","0.0-1.0-555.0-0.0","0","0","62907","","null","","","null","61","","","","","","","","","","","","","","","",""
"","time_out","","html-keyboard-response","411","527738","0.0-1.0-557.0-0.0","0","0","62907","","null","","","null","61","","","","","","","","","","","","","","","",""
"","ITI","","html-keyboard-response","412","528740","0.0-1.0-558.0","0","0","62907","","null","","","null","61","","","","","","","","","","","","","","","NaN",""
"","S1","","html-keyboard-response","413","528992","0.0-1.0-560.0","0","0","62907","","null","","","null","62","","","","","","","","","","","","","","","",""
"","ISI","","html-keyboard-response","414","530994","0.0-1.0-561.0","0","0","62907","","null","","","null","62","NaN","","","","","","","","","","","","","","",""
"","S2","","html-keyboard-response","415","531251","0.0-1.0-562.0","0","0","62907","","null","","","null","62","","NaN","","","","","","","","","","","","","",""
"","response","","html-keyboard-response","416","531994","0.0-1.0-563.0-0.0","0","0","62907","","740","","","75","62","","","2","62","training","adjacent","AB","1","2","L.jpg","M.jpg","1","1","1","",""
"","feedback","","html-keyboard-response","417","532997","0.0-1.0-564.0-0.0","0","0","62907","","null","","","null","62","","","","","","","","","","","","","","","",""
"","ITI","","html-keyboard-response","418","533999","0.0-1.0-567.0","0","0","62907","","null","","","null","62","","","","","","","","","","","","","","","NaN",""
"","S1","","html-keyboard-response","419","534252","0.0-1.0-569.0","0","0","62907","","null","","","null","63","","","","","","","","","","","","","","","",""
"","ISI","","html-keyboard-response","420","536256","0.0-1.0-570.0","0","0","62907","","null","","","null","63","NaN","","","","","","","","","","","","","","",""
"","S2","","html-keyboard-response","421","536509","0.0-1.0-571.0","0","0","62907","","null","","","null","63","","NaN","","","","","","","","","","","","","",""
"","response","","html-keyboard-response","422","537398","0.0-1.0-572.0-0.0","0","0","62907","","885","","","75","63","","","2","63","training","adjacent","BA","2","1","M.jpg","L.jpg","1","0","0","",""
"","feedback","","html-keyboard-response","423","538403","0.0-1.0-573.0-0.0","0","0","62907","","null","","","null","63","","","","","","","","","","","","","","","",""
"","time_out","","html-keyboard-response","424","540407","0.0-1.0-575.0-0.0","0","0","62907","","null","","","null","63","","","","","","","","","","","","","","","",""
"","ITI","","html-keyboard-response","425","541409","0.0-1.0-576.0","0","0","62907","","null","","","null","63","","","","","","","","","","","","","","","NaN",""
"","S1","","html-keyboard-response","426","541661","0.0-1.0-578.0","0","0","62907","","null","","","null","64","","","","","","","","","","","","","","","",""
"","ISI","","html-keyboard-response","427","543665","0.0-1.0-579.0","0","0","62907","","null","","","null","64","NaN","","","","","","","","","","","","","","",""
"","S2","","html-keyboard-response","428","543921","0.0-1.0-580.0","0","0","62907","","null","","","null","64","","NaN","","","","","","","","","","","","","",""
"","response","","html-keyboard-response","429","544352","0.0-1.0-581.0-0.0","0","0","62907","","430","","","75","64","","","2","64","training","adjacent","DE","4","5","R.jpg","O.jpg","1","1","1","",""
"","feedback","","html-keyboard-response","430","545357","0.0-1.0-582.0-0.0","0","0","62907","","null","","","null","64","","","","","","","","","","","","","","","",""
"","ITI","","html-keyboard-response","431","546360","0.0-1.0-585.0","0","0","62907","","null","","","null","64","","","","","","","","","","","","","","","NaN",""
"","S1","","html-keyboard-response","432","546613","0.0-1.0-587.0","0","0","62907","","null","","","null","65","","","","","","","","","","","","","","","",""
"","ISI","","html-keyboard-response","433","548615","0.0-1.0-588.0","0","0","62907","","null","","","null","65","NaN","","","","","","","","","","","","","","",""
"","S2","","html-keyboard-response","434","548868","0.0-1.0-589.0","0","0","62907","","null","","","null","65","","NaN","","","","","","","","","","","","","",""
"","response","","html-keyboard-response","435","549417","0.0-1.0-590.0-0.0","0","0","62907","","546","","","75","65","","","2","65","training","adjacent","CB","3","2","Q.jpg","M.jpg","1","0","0","",""
"","feedback","","html-keyboard-response","436","550421","0.0-1.0-591.0-0.0","0","0","62907","","null","","","null","65","","","","","","","","","","","","","","","",""
"","time_out","","html-keyboard-response","437","552423","0.0-1.0-593.0-0.0","0","0","62907","","null","","","null","65","","","","","","","","","","","","","","","",""
"","ITI","","html-keyboard-response","438","553428","0.0-1.0-594.0","0","0","62907","","null","","","null","65","","","","","","","","","","","","","","","NaN",""
"","S1","","html-keyboard-response","439","553680","0.0-1.0-596.0","0","0","62907","","null","","","null","66","","","","","","","","","","","","","","","",""
"","ISI","","html-keyboard-response","440","555682","0.0-1.0-597.0","0","0","62907","","null","","","null","66","NaN","","","","","","","","","","","","","","",""
"","S2","","html-keyboard-response","441","555935","0.0-1.0-598.0","0","0","62907","","null","","","null","66","","NaN","","","","","","","","","","","","","",""
"","response","","html-keyboard-response","442","556269","0.0-1.0-599.0-0.0","0","0","62907","","332","","","75","66","","","2","66","training","adjacent","GF","7","6","N.jpg","P.jpg","1","0","0","",""
"","feedback","","html-keyboard-response","443","557272","0.0-1.0-600.0-0.0","0","0","62907","","null","","","null","66","","","","","","","","","","","","","","","",""
"","time_out","","html-keyboard-response","444","559275","0.0-1.0-602.0-0.0","0","0","62907","","null","","","null","66","","","","","","","","","","","","","","","",""
"","ITI","","html-keyboard-response","445","560277","0.0-1.0-603.0","0","0","62907","","null","","","null","66","","","","","","","","","","","","","","","NaN",""
"","S1","","html-keyboard-response","446","560532","0.0-1.0-605.0","0","0","62907","","null","","","null","67","","","","","","","","","","","","","","","",""
"","ISI","","html-keyboard-response","447","562535","0.0-1.0-606.0","0","0","62907","","null","","","null","67","NaN","","","","","","","","","","","","","","",""
"","S2","","html-keyboard-response","448","562787","0.0-1.0-607.0","0","0","62907","","null","","","null","67","","NaN","","","","","","","","","","","","","",""
"","response","","html-keyboard-response","449","563169","0.0-1.0-608.0-0.0","0","0","62907","","381","","","68","67","","","2","67","training","adjacent","EF","5","6","O.jpg","P.jpg","0","1","0","",""
"","feedback","","html-keyboard-response","450","564172","0.0-1.0-609.0-0.0","0","0","62907","","null","","","null","67","","","","","","","","","","","","","","","",""
"","time_out","","html-keyboard-response","451","566174","0.0-1.0-611.0-0.0","0","0","62907","","null","","","null","67","","","","","","","","","","","","","","","",""
"","ITI","","html-keyboard-response","452","567177","0.0-1.0-612.0","0","0","62907","","null","","","null","67","","","","","","","","","","","","","","","NaN",""
"","S1","","html-keyboard-response","453","567430","0.0-1.0-614.0","0","0","62907","","null","","","null","68","","","","","","","","","","","","","","","",""
"","ISI","","html-keyboard-response","454","569433","0.0-1.0-615.0","0","0","62907","","null","","","null","68","NaN","","","","","","","","","","","","","","",""
"","S2","","html-keyboard-response","455","569687","0.0-1.0-616.0","0","0","62907","","null","","","null","68","","NaN","","","","","","","","","","","","","",""
"","response","","html-keyboard-response","456","570821","0.0-1.0-617.0-0.0","0","0","62907","","1132","","","68","68","","","2","68","training","adjacent","DC","4","3","R.jpg","Q.jpg","0","0","1","",""
"","feedback","","html-keyboard-response","457","571826","0.0-1.0-618.0-0.0","0","0","62907","","null","","","null","68","","","","","","","","","","","","","","","",""
"","ITI","","html-keyboard-response","458","572830","0.0-1.0-621.0","0","0","62907","","null","","","null","68","","","","","","","","","","","","","","","NaN",""
"","S1","","html-keyboard-response","459","573084","0.0-1.0-623.0","0","0","62907","","null","","","null","69","","","","","","","","","","","","","","","",""
"","ISI","","html-keyboard-response","460","575088","0.0-1.0-624.0","0","0","62907","","null","","","null","69","NaN","","","","","","","","","","","","","","",""
"","S2","","html-keyboard-response","461","575342","0.0-1.0-625.0","0","0","62907","","null","","","null","69","","NaN","","","","","","","","","","","","","",""
"","response","","html-keyboard-response","462","576925","0.0-1.0-626.0-0.0","0","0","62907","","1581","","","75","69","","","2","69","training","adjacent","FE","6","5","P.jpg","O.jpg","1","0","0","",""
"","feedback","","html-keyboard-response","463","577928","0.0-1.0-627.0-0.0","0","0","62907","","null","","","null","69","","","","","","","","","","","","","","","",""
"","time_out","","html-keyboard-response","464","579931","0.0-1.0-629.0-0.0","0","0","62907","","null","","","null","69","","","","","","","","","","","","","","","",""
"","ITI","","html-keyboard-response","465","580946","0.0-1.0-630.0","0","0","62907","","null","","","null","69","","","","","","","","","","","","","","","NaN",""
"","S1","","html-keyboard-response","466","581197","0.0-1.0-632.0","0","0","62907","","null","","","null","70","","","","","","","","","","","","","","","",""
"","ISI","","html-keyboard-response","467","583200","0.0-1.0-633.0","0","0","62907","","null","","","null","70","NaN","","","","","","","","","","","","","","",""
"","S2","","html-keyboard-response","468","583454","0.0-1.0-634.0","0","0","62907","","null","","","null","70","","NaN","","","","","","","","","","","","","",""
"","response","","html-keyboard-response","469","583951","0.0-1.0-635.0-0.0","0","0","62907","","494","","","75","70","","","2","70","training","adjacent","FE","6","5","P.jpg","O.jpg","1","0","0","",""
"","feedback","","html-keyboard-response","470","584954","0.0-1.0-636.0-0.0","0","0","62907","","null","","","null","70","","","","","","","","","","","","","","","",""
"","time_out","","html-keyboard-response","471","586957","0.0-1.0-638.0-0.0","0","0","62907","","null","","","null","70","","","","","","","","","","","","","","","",""
"","ITI","","html-keyboard-response","472","587959","0.0-1.0-639.0","0","0","62907","","null","","","null","70","","","","","","","","","","","","","","","NaN",""
"","S1","","html-keyboard-response","473","588211","0.0-1.0-641.0","0","0","62907","","null","","","null","71","","","","","","","","","","","","","","","",""
"","ISI","","html-keyboard-response","474","590214","0.0-1.0-642.0","0","0","62907","","null","","","null","71","NaN","","","","","","","","","","","","","","",""
"","S2","","html-keyboard-response","475","590466","0.0-1.0-643.0","0","0","62907","","null","","","null","71","","NaN","","","","","","","","","","","","","",""
"","response","","html-keyboard-response","476","590727","0.0-1.0-644.0-0.0","0","0","62907","","259","","","68","71","","","2","71","training","adjacent","GF","7","6","N.jpg","P.jpg","0","0","1","",""
"","feedback","","html-keyboard-response","477","591731","0.0-1.0-645.0-0.0","0","0","62907","","null","","","null","71","","","","","","","","","","","","","","","",""
"","ITI","","html-keyboard-response","478","592733","0.0-1.0-648.0","0","0","62907","","null","","","null","71","","","","","","","","","","","","","","","NaN",""
"","S1","","html-keyboard-response","479","592986","0.0-1.0-650.0","0","0","62907","","null","","","null","72","","","","","","","","","","","","","","","",""
"","ISI","","html-keyboard-response","480","594990","0.0-1.0-651.0","0","0","62907","","null","","","null","72","NaN","","","","","","","","","","","","","","",""
"","S2","","html-keyboard-response","481","595243","0.0-1.0-652.0","0","0","62907","","null","","","null","72","","NaN","","","","","","","","","","","","","",""
"","response","","html-keyboard-response","482","595455","0.0-1.0-653.0-0.0","0","0","62907","","209","","","75","72","","","2","72","training","adjacent","CB","3","2","Q.jpg","M.jpg","1","0","0","",""
"","feedback","","html-keyboard-response","483","596459","0.0-1.0-654.0-0.0","0","0","62907","","null","","","null","72","","","","","","","","","","","","","","","",""
"","time_out","","html-keyboard-response","484","598462","0.0-1.0-656.0-0.0","0","0","62907","","null","","","null","72","","","","","","","","","","","","","","","",""
"","ITI","","html-keyboard-response","485","599465","0.0-1.0-657.0","0","0","62907","","null","","","null","72","","","","","","","","","","","","","","","NaN",""
"","S1","","html-keyboard-response","486","599718","0.0-1.0-659.0","0","0","62907","","null","","","null","73","","","","","","","","","","","","","","","",""
"","ISI","","html-keyboard-response","487","601721","0.0-1.0-660.0","0","0","62907","","null","","","null","73","NaN","","","","","","","","","","","","","","",""
"","S2","","html-keyboard-response","488","601974","0.0-1.0-661.0","0","0","62907","","null","","","null","73","","NaN","","","","","","","","","","","","","",""
"","response","","html-keyboard-response","489","602413","0.0-1.0-662.0-0.0","0","0","62907","","437","","","68","73","","","2","73","training","adjacent","FG","6","7","P.jpg","N.jpg","0","1","0","",""
"","feedback","","html-keyboard-response","490","603415","0.0-1.0-663.0-0.0","0","0","62907","","null","","","null","73","","","","","","","","","","","","","","","",""
"","time_out","","html-keyboard-response","491","605419","0.0-1.0-665.0-0.0","0","0","62907","","null","","","null","73","","","","","","","","","","","","","","","",""
"","ITI","","html-keyboard-response","492","606424","0.0-1.0-666.0","0","0","62907","","null","","","null","73","","","","","","","","","","","","","","","NaN",""
"","S1","","html-keyboard-response","493","606677","0.0-1.0-668.0","0","0","62907","","null","","","null","74","","","","","","","","","","","","","","","",""
"","ISI","","html-keyboard-response","494","608679","0.0-1.0-669.0","0","0","62907","","null","","","null","74","NaN","","","","","","","","","","","","","","",""
"","S2","","html-keyboard-response","495","608932","0.0-1.0-670.0","0","0","62907","","null","","","null","74","","NaN","","","","","","","","","","","","","",""
"","response","","html-keyboard-response","496","609300","0.0-1.0-671.0-0.0","0","0","62907","","367","","","75","74","","","2","74","training","adjacent","CD","3","4","Q.jpg","R.jpg","1","1","1","",""
"","feedback","","html-keyboard-response","497","610303","0.0-1.0-672.0-0.0","0","0","62907","","null","","","null","74","","","","","","","","","","","","","","","",""
"","ITI","","html-keyboard-response","498","611305","0.0-1.0-675.0","0","0","62907","","null","","","null","74","","","","","","","","","","","","","","","NaN",""
"","S1","","html-keyboard-response","499","611558","0.0-1.0-677.0","0","0","62907","","null","","","null","75","","","","","","","","","","","","","","","",""
"","ISI","","html-keyboard-response","500","613560","0.0-1.0-678.0","0","0","62907","","null","","","null","75","NaN","","","","","","","","","","","","","","",""
"","S2","","html-keyboard-response","501","613813","0.0-1.0-679.0","0","0","62907","","null","","","null","75","","NaN","","","","","","","","","","","","","",""
"","response","","html-keyboard-response","502","613991","0.0-1.0-680.0-0.0","0","0","62907","","176","","","75","75","","","2","75","training","adjacent","CD","3","4","Q.jpg","R.jpg","1","1","1","",""
"","feedback","","html-keyboard-response","503","614995","0.0-1.0-681.0-0.0","0","0","62907","","null","","","null","75","","","","","","","","","","","","","","","",""
"","ITI","","html-keyboard-response","504","616001","0.0-1.0-684.0","0","0","62907","","null","","","null","75","","","","","","","","","","","","","","","NaN",""
"","S1","","html-keyboard-response","505","616254","0.0-1.0-686.0","0","0","62907","","null","","","null","76","","","","","","","","","","","","","","","",""
"","ISI","","html-keyboard-response","506","618258","0.0-1.0-687.0","0","0","62907","","null","","","null","76","NaN","","","","","","","","","","","","","","",""
"","S2","","html-keyboard-response","507","618510","0.0-1.0-688.0","0","0","62907","","null","","","null","76","","NaN","","","","","","","","","","","","","",""
"","response","","html-keyboard-response","508","619335","0.0-1.0-689.0-0.0","0","0","62907","","824","","","75","76","","","2","76","training","adjacent","BC","2","3","M.jpg","Q.jpg","1","1","1","",""
"","feedback","","html-keyboard-response","509","620338","0.0-1.0-690.0-0.0","0","0","62907","","null","","","null","76","","","","","","","","","","","","","","","",""
"","ITI","","html-keyboard-response","510","621341","0.0-1.0-693.0","0","0","62907","","null","","","null","76","","","","","","","","","","","","","","","NaN",""
"","S1","","html-keyboard-response","511","621593","0.0-1.0-695.0","0","0","62907","","null","","","null","77","","","","","","","","","","","","","","","",""
"","ISI","","html-keyboard-response","512","623597","0.0-1.0-696.0","0","0","62907","","null","","","null","77","NaN","","","","","","","","","","","","","","",""
"","S2","","html-keyboard-response","513","623850","0.0-1.0-697.0","0","0","62907","","null","","","null","77","","NaN","","","","","","","","","","","","","",""
"","response","","html-keyboard-response","514","624047","0.0-1.0-698.0-0.0","0","0","62907","","196","","","75","77","","","2","77","training","adjacent","BC","2","3","M.jpg","Q.jpg","1","1","1","",""
"","feedback","","html-keyboard-response","515","625050","0.0-1.0-699.0-0.0","0","0","62907","","null","","","null","77","","","","","","","","","","","","","","","",""
"","ITI","","html-keyboard-response","516","626052","0.0-1.0-702.0","0","0","62907","","null","","","null","77","","","","","","","","","","","","","","","NaN",""
"","S1","","html-keyboard-response","517","626305","0.0-1.0-704.0","0","0","62907","","null","","","null","78","","","","","","","","","","","","","","","",""
"","ISI","","html-keyboard-response","518","628307","0.0-1.0-705.0","0","0","62907","","null","","","null","78","NaN","","","","","","","","","","","","","","",""
"","S2","","html-keyboard-response","519","628562","0.0-1.0-706.0","0","0","62907","","null","","","null","78","","NaN","","","","","","","","","","","","","",""
"","response","","html-keyboard-response","520","628741","0.0-1.0-707.0-0.0","0","0","62907","","178","","","75","78","","","2","78","training","adjacent","FG","6","7","P.jpg","N.jpg","1","1","1","",""
"","feedback","","html-keyboard-response","521","629742","0.0-1.0-708.0-0.0","0","0","62907","","null","","","null","78","","","","","","","","","","","","","","","",""
"","ITI","","html-keyboard-response","522","630746","0.0-1.0-711.0","0","0","62907","","null","","","null","78","","","","","","","","","","","","","","","NaN",""
"","S1","","html-keyboard-response","523","631000","0.0-1.0-713.0","0","0","62907","","null","","","null","79","","","","","","","","","","","","","","","",""
"","ISI","","html-keyboard-response","524","633002","0.0-1.0-714.0","0","0","62907","","null","","","null","79","NaN","","","","","","","","","","","","","","",""
"","S2","","html-keyboard-response","525","633256","0.0-1.0-715.0","0","0","62907","","null","","","null","79","","NaN","","","","","","","","","","","","","",""
"","response","","html-keyboard-response","526","633527","0.0-1.0-716.0-0.0","0","0","62907","","269","","","75","79","","","2","79","training","adjacent","ED","5","4","O.jpg","R.jpg","1","0","0","",""
"","feedback","","html-keyboard-response","527","634529","0.0-1.0-717.0-0.0","0","0","62907","","null","","","null","79","","","","","","","","","","","","","","","",""
"","time_out","","html-keyboard-response","528","636546","0.0-1.0-719.0-0.0","0","0","62907","","null","","","null","79","","","","","","","","","","","","","","","",""
"","ITI","","html-keyboard-response","529","637548","0.0-1.0-720.0","0","0","62907","","null","","","null","79","","","","","","","","","","","","","","","NaN",""
"","S1","","html-keyboard-response","530","637800","0.0-1.0-722.0","0","0","62907","","null","","","null","80","","","","","","","","","","","","","","","",""
"","ISI","","html-keyboard-response","531","639803","0.0-1.0-723.0","0","0","62907","","null","","","null","80","NaN","","","","","","","","","","","","","","",""
"","S2","","html-keyboard-response","532","640058","0.0-1.0-724.0","0","0","62907","","null","","","null","80","","NaN","","","","","","","","","","","","","",""
"","response","","html-keyboard-response","533","640260","0.0-1.0-725.0-0.0","0","0","62907","","200","","","68","80","","","2","80","training","adjacent","BA","2","1","M.jpg","L.jpg","0","0","1","",""
"","feedback","","html-keyboard-response","534","641264","0.0-1.0-726.0-0.0","0","0","62907","","null","","","null","80","","","","","","","","","","","","","","","",""
"","ITI","","html-keyboard-response","535","642267","0.0-1.0-729.0","0","0","62907","","null","","","null","80","","","","","","","","","","","","","","","NaN",""
"","S1","","html-keyboard-response","536","642519","0.0-1.0-731.0","0","0","62907","","null","","","null","81","","","","","","","","","","","","","","","",""
"","ISI","","html-keyboard-response","537","644522","0.0-1.0-732.0","0","0","62907","","null","","","null","81","NaN","","","","","","","","","","","","","","",""
"","S2","","html-keyboard-response","538","644774","0.0-1.0-733.0","0","0","62907","","null","","","null","81","","NaN","","","","","","","","","","","","","",""
"","response","","html-keyboard-response","539","644907","0.0-1.0-734.0-0.0","0","0","62907","","132","","","75","81","","","2","81","training","adjacent","CD","3","4","Q.jpg","R.jpg","1","1","1","",""
"","feedback","","html-keyboard-response","540","645908","0.0-1.0-735.0-0.0","0","0","62907","","null","","","null","81","","","","","","","","","","","","","","","",""
"","ITI","","html-keyboard-response","541","646927","0.0-1.0-738.0","0","0","62907","","null","","","null","81","","","","","","","","","","","","","","","NaN",""
"","S1","","html-keyboard-response","542","647179","0.0-1.0-740.0","0","0","62907","","null","","","null","82","","","","","","","","","","","","","","","",""
"","ISI","","html-keyboard-response","543","649182","0.0-1.0-741.0","0","0","62907","","null","","","null","82","NaN","","","","","","","","","","","","","","",""
"","S2","","html-keyboard-response","544","649434","0.0-1.0-742.0","0","0","62907","","null","","","null","82","","NaN","","","","","","","","","","","","","",""
"","response","","html-keyboard-response","545","649816","0.0-1.0-743.0-0.0","0","0","62907","","381","","","75","82","","","2","82","training","adjacent","DC","4","3","R.jpg","Q.jpg","1","0","0","",""
"","feedback","","html-keyboard-response","546","650818","0.0-1.0-744.0-0.0","0","0","62907","","null","","","null","82","","","","","","","","","","","","","","","",""
"","time_out","","html-keyboard-response","547","652822","0.0-1.0-746.0-0.0","0","0","62907","","null","","","null","82","","","","","","","","","","","","","","","",""
"","ITI","","html-keyboard-response","548","653827","0.0-1.0-747.0","0","0","62907","","null","","","null","82","","","","","","","","","","","","","","","NaN",""
"","S1","","html-keyboard-response","549","654080","0.0-1.0-749.0","0","0","62907","","null","","","null","83","","","","","","","","","","","","","","","",""
"","ISI","","html-keyboard-response","550","656082","0.0-1.0-750.0","0","0","62907","","null","","","null","83","NaN","","","","","","","","","","","","","","",""
"","S2","","html-keyboard-response","551","656334","0.0-1.0-751.0","0","0","62907","","null","","","null","83","","NaN","","","","","","","","","","","","","",""
"","response","","html-keyboard-response","552","658088","0.0-1.0-752.0-0.0","0","0","62907","","null","","","null","83","","","2","83","training","adjacent","FG","6","7","P.jpg","N.jpg","NaN","1","0","",""
"","too_slow_prompt","","html-keyboard-response","553","659091","0.0-1.0-754.0-0.0","1","0","62907","","null","","","null","","","","","","","","","","","","","","","","",""
"","time_out","","html-keyboard-response","554","661093","0.0-1.0-755.0-0.0","0","0","62907","","null","","","null","83","","","","","","","","","","","","","","","",""
"","ITI","","html-keyboard-response","555","662096","0.0-1.0-756.0","0","0","62907","","null","","","null","83","","","","","","","","","","","","","","","NaN",""
"","S1","","html-keyboard-response","556","662349","0.0-1.0-758.0","0","0","62907","","null","","","null","84","","","","","","","","","","","","","","","",""
"","ISI","","html-keyboard-response","557","664350","0.0-1.0-759.0","0","0","62907","","null","","","null","84","NaN","","","","","","","","","","","","","","",""
"","S2","","html-keyboard-response","558","664603","0.0-1.0-760.0","0","0","62907","","null","","","null","84","","NaN","","","","","","","","","","","","","",""
"","response","","html-keyboard-response","559","664873","0.0-1.0-761.0-0.0","0","0","62907","","269","","","75","84","","","2","84","training","adjacent","DC","4","3","R.jpg","Q.jpg","1","0","0","",""
"","feedback","","html-keyboard-response","560","665874","0.0-1.0-762.0-0.0","0","0","62907","","null","","","null","84","","","","","","","","","","","","","","","",""
"","time_out","","html-keyboard-response","561","667877","0.0-1.0-764.0-0.0","0","0","62907","","null","","","null","84","","","","","","","","","","","","","","","",""
"","ITI","","html-keyboard-response","562","668888","0.0-1.0-765.0","0","0","62907","","null","","","null","84","","","","","","","","","","","","","","","NaN",""
"","S1","","html-keyboard-response","563","669141","0.0-1.0-767.0","0","0","62907","","null","","","null","85","","","","","","","","","","","","","","","",""
"","ISI","","html-keyboard-response","564","671144","0.0-1.0-768.0","0","0","62907","","null","","","null","85","NaN","","","","","","","","","","","","","","",""
"","S2","","html-keyboard-response","565","671396","0.0-1.0-769.0","0","0","62907","","null","","","null","85","","NaN","","","","","","","","","","","","","",""
"","response","","html-keyboard-response","566","671463","0.0-1.0-770.0-0.0","0","0","62907","","64","","","75","85","","","2","85","training","adjacent","CD","3","4","Q.jpg","R.jpg","1","1","1","",""
"","feedback","","html-keyboard-response","567","672465","0.0-1.0-771.0-0.0","0","0","62907","","null","","","null","85","","","","","","","","","","","","","","","",""
"","ITI","","html-keyboard-response","568","673467","0.0-1.0-774.0","0","0","62907","","null","","","null","85","","","","","","","","","","","","","","","NaN",""
"","S1","","html-keyboard-response","569","673720","0.0-1.0-776.0","0","0","62907","","null","","","null","86","","","","","","","","","","","","","","","",""
"","ISI","","html-keyboard-response","570","675724","0.0-1.0-777.0","0","0","62907","","null","","","null","86","NaN","","","","","","","","","","","","","","",""
"","S2","","html-keyboard-response","571","675977","0.0-1.0-778.0","0","0","62907","","null","","","null","86","","NaN","","","","","","","","","","","","","",""
"","response","","html-keyboard-response","572","676729","0.0-1.0-779.0-0.0","0","0","62907","","751","","","75","86","","","2","86","training","adjacent","DE","4","5","R.jpg","O.jpg","1","1","1","",""
"","feedback","","html-keyboard-response","573","677732","0.0-1.0-780.0-0.0","0","0","62907","","null","","","null","86","","","","","","","","","","","","","","","",""
"","ITI","","html-keyboard-response","574","678733","0.0-1.0-783.0","0","0","62907","","null","","","null","86","","","","","","","","","","","","","","","NaN",""
"","S1","","html-keyboard-response","575","678986","0.0-1.0-785.0","0","0","62907","","null","","","null","87","","","","","","","","","","","","","","","",""
"","ISI","","html-keyboard-response","576","680990","0.0-1.0-786.0","0","0","62907","","null","","","null","87","NaN","","","","","","","","","","","","","","",""
"","S2","","html-keyboard-response","577","681243","0.0-1.0-787.0","0","0","62907","","null","","","null","87","","NaN","","","","","","","","","","","","","",""
"","response","","html-keyboard-response","578","681346","0.0-1.0-788.0-0.0","0","0","62907","","102","","","75","87","","","2","87","training","adjacent","DE","4","5","R.jpg","O.jpg","1","1","1","",""
"","feedback","","html-keyboard-response","579","682350","0.0-1.0-789.0-0.0","0","0","62907","","null","","","null","87","","","","","","","","","","","","","","","",""
"","ITI","","html-keyboard-response","580","683354","0.0-1.0-792.0","0","0","62907","","null","","","null","87","","","","","","","","","","","","","","","NaN",""
"","S1","","html-keyboard-response","581","683614","0.0-1.0-794.0","0","0","62907","","null","","","null","88","","","","","","","","","","","","","","","",""
"","ISI","","html-keyboard-response","582","685616","0.0-1.0-795.0","0","0","62907","","null","","","null","88","NaN","","","","","","","","","","","","","","",""
