"success","ttype","start_time","trial_type","trial_index","time_elapsed","internal_node_id","warning","missed_checkup","PID","view_history","rt","responses","repeat_instructions","key_press","index","keypress_isi","keypress_S2","block","trial_num","phase","group_type","pair_type","S1_stim","S2_stim","S1_img","S2_img","S1_chosen","S1_higher","accuracy","keypress_iti","total_bonus_tally"
"true","full_screen","d04062023hr1733","fullscreen","0","13763","0.0-0.0","0","0","67366","","","","","","","","","","","","","","","","","","","","","",""
"","instructions","","instructions","1","113450","0.0-1.0-0.0-0.0","0","0","67366","[{""page_index"":0,""viewing_time"":8437},{""page_index"":1,""viewing_time"":66727},{""page_index"":2,""viewing_time"":22620},{""page_index"":3,""viewing_time"":1900}]","99685","","","","","","","","","","","","","","","","","","","",""
"","comprehension_check","","survey-multi-choice","2","141658","0.0-1.0-0.0-1.0","0","0","67366","","28201","{""Q0"":""True"",""Q1"":""D"",""Q2"":""Only when the screen 'MAKE A CHOICE' is shown"",""Q3"":""Green mark"",""Q4"":""either D or K""}","1","","","","","","","","","","","","","","","","","",""
"","missed_instruction_checkup","","html-keyboard-response","3","144320","0.0-1.0-0.0-2.0-0.0","0","1","67366","","2657","","","32","","","","","","","","","","","","","","","","",""
"","instructions","","instructions","4","186823","0.0-1.0-0.1-0.1","0","0","67366","[{""page_index"":0,""viewing_time"":18799},{""page_index"":1,""viewing_time"":17016},{""page_index"":2,""viewing_time"":5672},{""page_index"":3,""viewing_time"":1013}]","42500","","","","","","","","","","","","","","","","","","","",""
"","comprehension_check","","survey-multi-choice","5","216486","0.0-1.0-0.1-1.1","0","0","67366","","29657","{""Q0"":""True"",""Q1"":""D"",""Q2"":""Once the second image appears and while the screen 'MAKE A CHOICE' is shown"",""Q3"":""Green mark"",""Q4"":""either D or K""}","0","","","","","","","","","","","","","","","","","",""
"","start_exp","","html-keyboard-response","6","218927","0.0-1.0-1.0","0","0","67366","","2437","","","32","","","","","","","","","","","","","","","","",""
"","S1","","html-keyboard-response","7","219080","0.0-1.0-2.0","0","0","67366","","null","","","null","0","","","","","","","","","","","","","","","",""
"","ISI","","html-keyboard-response","8","221083","0.0-1.0-3.0","0","0","67366","","null","","","null","0","NaN","","","","","","","","","","","","","","",""
"","S2","","html-keyboard-response","9","221237","0.0-1.0-4.0","0","0","67366","","null","","","null","0","","NaN","","","","","","","","","","","","","",""
"","response","","html-keyboard-response","10","222096","0.0-1.0-5.0-0.0","0","0","67366","","856","","","75","0","","","1","0","training","adjacent","DC","4","3","M.jpg","N.jpg","0","0","1","",""
"","feedback","","html-keyboard-response","11","223099","0.0-1.0-6.0-0.0","0","0","67366","","null","","","null","0","","","","","","","","","","","","","","","",""
"","ITI","","html-keyboard-response","12","224102","0.0-1.0-9.0","0","0","67366","","null","","","null","0","","","","","","","","","","","","","","","NaN",""
"","S1","","html-keyboard-response","13","224256","0.0-1.0-11.0","0","0","67366","","null","","","null","1","","","","","","","","","","","","","","","",""
"","ISI","","html-keyboard-response","14","226258","0.0-1.0-12.0","0","0","67366","","null","","","null","1","NaN","","","","","","","","","","","","","","",""
"","S2","","html-keyboard-response","15","226411","0.0-1.0-13.0","0","0","67366","","null","","","null","1","","NaN","","","","","","","","","","","","","",""
"","response","","html-keyboard-response","16","227167","0.0-1.0-14.0-0.0","0","0","67366","","753","","","68","1","","","1","1","training","adjacent","CD","3","4","N.jpg","M.jpg","1","1","1","",""
"","feedback","","html-keyboard-response","17","228170","0.0-1.0-15.0-0.0","0","0","67366","","null","","","null","1","","","","","","","","","","","","","","","",""
"","ITI","","html-keyboard-response","18","229174","0.0-1.0-18.0","0","0","67366","","null","","","null","1","","","","","","","","","","","","","","","NaN",""
"","S1","","html-keyboard-response","19","229328","0.0-1.0-20.0","0","0","67366","","null","","","null","2","","","","","","","","","","","","","","","",""
"","ISI","","html-keyboard-response","20","231330","0.0-1.0-21.0","0","0","67366","","null","","","null","2","NaN","","","","","","","","","","","","","","",""
"","S2","","html-keyboard-response","21","231484","0.0-1.0-22.0","0","0","67366","","null","","","null","2","","NaN","","","","","","","","","","","","","",""
"","response","","html-keyboard-response","22","231959","0.0-1.0-23.0-0.0","0","0","67366","","473","","","75","2","","","1","2","training","adjacent","FE","6","5","P.jpg","L.jpg","0","0","1","",""
"","feedback","","html-keyboard-response","23","232962","0.0-1.0-24.0-0.0","0","0","67366","","null","","","null","2","","","","","","","","","","","","","","","",""
"","ITI","","html-keyboard-response","24","233965","0.0-1.0-27.0","0","0","67366","","null","","","null","2","","","","","","","","","","","","","","","NaN",""
"","S1","","html-keyboard-response","25","234117","0.0-1.0-29.0","0","0","67366","","null","","","null","3","","","","","","","","","","","","","","","",""
"","ISI","","html-keyboard-response","26","236181","0.0-1.0-30.0","0","0","67366","","null","","","null","3","NaN","","","","","","","","","","","","","","",""
"","S2","","html-keyboard-response","27","236364","0.0-1.0-31.0","0","0","67366","","null","","","null","3","","NaN","","","","","","","","","","","","","",""
"","response","","html-keyboard-response","28","236791","0.0-1.0-32.0-0.0","0","0","67366","","424","","","75","3","","","1","3","training","adjacent","DE","4","5","M.jpg","L.jpg","0","1","0","",""
"","feedback","","html-keyboard-response","29","237794","0.0-1.0-33.0-0.0","0","0","67366","","null","","","null","3","","","","","","","","","","","","","","","",""
"","time_out","","html-keyboard-response","30","239797","0.0-1.0-35.0-0.0","0","0","67366","","null","","","null","3","","","","","","","","","","","","","","","",""
"","ITI","","html-keyboard-response","31","240801","0.0-1.0-36.0","0","0","67366","","null","","","null","3","","","","","","","","","","","","","","","NaN",""
"","S1","","html-keyboard-response","32","240954","0.0-1.0-38.0","0","0","67366","","null","","","null","4","","","","","","","","","","","","","","","",""
"","ISI","","html-keyboard-response","33","242956","0.0-1.0-39.0","0","0","67366","","null","","","null","4","NaN","","","","","","","","","","","","","","",""
"","S2","","html-keyboard-response","34","243110","0.0-1.0-40.0","0","0","67366","","null","","","null","4","","NaN","","","","","","","","","","","","","",""
"","response","","html-keyboard-response","35","243663","0.0-1.0-41.0-0.0","0","0","67366","","551","","","68","4","","","1","4","training","adjacent","EF","5","6","L.jpg","P.jpg","1","1","1","",""
"","feedback","","html-keyboard-response","36","244665","0.0-1.0-42.0-0.0","0","0","67366","","null","","","null","4","","","","","","","","","","","","","","","",""
"","ITI","","html-keyboard-response","37","245668","0.0-1.0-45.0","0","0","67366","","null","","","null","4","","","","","","","","","","","","","","","NaN",""
"","S1","","html-keyboard-response","38","245823","0.0-1.0-47.0","0","0","67366","","null","","","null","5","","","","","","","","","","","","","","","",""
"","ISI","","html-keyboard-response","39","247825","0.0-1.0-48.0","0","0","67366","","null","","","null","5","NaN","","","","","","","","","","","","","","",""
"","S2","","html-keyboard-response","40","247978","0.0-1.0-49.0","0","0","67366","","null","","","null","5","","NaN","","","","","","","","","","","","","",""
"","response","","html-keyboard-response","41","248574","0.0-1.0-50.0-0.0","0","0","67366","","594","","","68","5","","","1","5","training","adjacent","FG","6","7","P.jpg","O.jpg","1","1","1","",""
"","feedback","","html-keyboard-response","42","249606","0.0-1.0-51.0-0.0","0","0","67366","","null","","","null","5","","","","","","","","","","","","","","","",""
"","ITI","","html-keyboard-response","43","250608","0.0-1.0-54.0","0","0","67366","","null","","","null","5","","","","","","","","","","","","","","","NaN",""
"","S1","","html-keyboard-response","44","250762","0.0-1.0-56.0","0","0","67366","","null","","","null","6","","","","","","","","","","","","","","","",""
"","ISI","","html-keyboard-response","45","252764","0.0-1.0-57.0","0","0","67366","","null","","","null","6","NaN","","","","","","","","","","","","","","",""
"","S2","","html-keyboard-response","46","252917","0.0-1.0-58.0","0","0","67366","","null","","","null","6","","NaN","","","","","","","","","","","","","",""
"","response","","html-keyboard-response","47","253663","0.0-1.0-59.0-0.0","0","0","67366","","744","","","68","6","","","1","6","training","adjacent","CB","3","2","N.jpg","R.jpg","1","0","0","",""
"","feedback","","html-keyboard-response","48","254666","0.0-1.0-60.0-0.0","0","0","67366","","null","","","null","6","","","","","","","","","","","","","","","",""
"","time_out","","html-keyboard-response","49","256669","0.0-1.0-62.0-0.0","0","0","67366","","null","","","null","6","","","","","","","","","","","","","","","",""
"","ITI","","html-keyboard-response","50","257671","0.0-1.0-63.0","0","0","67366","","null","","","null","6","","","","","","","","","","","","","","","NaN",""
"","S1","","html-keyboard-response","51","257823","0.0-1.0-65.0","0","0","67366","","null","","","null","7","","","","","","","","","","","","","","","",""
"","ISI","","html-keyboard-response","52","259870","0.0-1.0-66.0","0","0","67366","","null","","","null","7","NaN","","","","","","","","","","","","","","",""
"","S2","","html-keyboard-response","53","260074","0.0-1.0-67.0","0","0","67366","","null","","","null","7","","NaN","","","","","","","","","","","","","",""
"","response","","html-keyboard-response","54","260526","0.0-1.0-68.0-0.0","0","0","67366","","448","","","75","7","","","1","7","training","adjacent","DE","4","5","M.jpg","L.jpg","0","1","0","",""
"","feedback","","html-keyboard-response","55","261529","0.0-1.0-69.0-0.0","0","0","67366","","null","","","null","7","","","","","","","","","","","","","","","",""
"","time_out","","html-keyboard-response","56","263532","0.0-1.0-71.0-0.0","0","0","67366","","null","","","null","7","","","","","","","","","","","","","","","",""
"","ITI","","html-keyboard-response","57","264536","0.0-1.0-72.0","0","0","67366","","null","","","null","7","","","","","","","","","","","","","","","NaN",""
"","S1","","html-keyboard-response","58","264689","0.0-1.0-74.0","0","0","67366","","null","","","null","8","","","","","","","","","","","","","","","",""
"","ISI","","html-keyboard-response","59","266692","0.0-1.0-75.0","0","0","67366","","null","","","null","8","NaN","","","","","","","","","","","","","","",""
"","S2","","html-keyboard-response","60","266845","0.0-1.0-76.0","0","0","67366","","null","","","null","8","","NaN","","","","","","","","","","","","","",""
"","response","","html-keyboard-response","61","267318","0.0-1.0-77.0-0.0","0","0","67366","","471","","","75","8","","","1","8","training","adjacent","FE","6","5","P.jpg","L.jpg","0","0","1","",""
"","feedback","","html-keyboard-response","62","268321","0.0-1.0-78.0-0.0","0","0","67366","","null","","","null","8","","","","","","","","","","","","","","","",""
"","ITI","","html-keyboard-response","63","269324","0.0-1.0-81.0","0","0","67366","","null","","","null","8","","","","","","","","","","","","","","","NaN",""
"","S1","","html-keyboard-response","64","269477","0.0-1.0-83.0","0","0","67366","","null","","","null","9","","","","","","","","","","","","","","","",""
"","ISI","","html-keyboard-response","65","271480","0.0-1.0-84.0","0","0","67366","","null","","","null","9","NaN","","","","","","","","","","","","","","",""
"","S2","","html-keyboard-response","66","271632","0.0-1.0-85.0","0","0","67366","","null","","","null","9","","NaN","","","","","","","","","","","","","",""
"","response","","html-keyboard-response","67","272543","0.0-1.0-86.0-0.0","0","0","67366","","908","","","75","9","","","1","9","training","adjacent","GF","7","6","O.jpg","P.jpg","0","0","1","",""
"","feedback","","html-keyboard-response","68","273622","0.0-1.0-87.0-0.0","0","0","67366","","null","","","null","9","","","","","","","","","","","","","","","",""
"","ITI","","html-keyboard-response","69","274624","0.0-1.0-90.0","0","0","67366","","null","","","null","9","","","","","","","","","","","","","","","NaN",""
"","S1","","html-keyboard-response","70","274777","0.0-1.0-92.0","0","0","67366","","null","","","null","10","","","","","","","","","","","","","","","",""
"","ISI","","html-keyboard-response","71","276780","0.0-1.0-93.0","0","0","67366","","null","","","null","10","NaN","","","","","","","","","","","","","","",""
"","S2","","html-keyboard-response","72","276933","0.0-1.0-94.0","0","0","67366","","null","","","null","10","","NaN","","","","","","","","","","","","","",""
"","response","","html-keyboard-response","73","277566","0.0-1.0-95.0-0.0","0","0","67366","","631","","","75","10","","","1","10","training","adjacent","BC","2","3","R.jpg","N.jpg","0","1","0","",""
"","feedback","","html-keyboard-response","74","278569","0.0-1.0-96.0-0.0","0","0","67366","","null","","","null","10","","","","","","","","","","","","","","","",""
"","time_out","","html-keyboard-response","75","280573","0.0-1.0-98.0-0.0","0","0","67366","","null","","","null","10","","","","","","","","","","","","","","","",""
"","ITI","","html-keyboard-response","76","281575","0.0-1.0-99.0","0","0","67366","","null","","","null","10","","","","","","","","","","","","","","","NaN",""
"","S1","","html-keyboard-response","77","281728","0.0-1.0-101.0","0","0","67366","","null","","","null","11","","","","","","","","","","","","","","","",""
"","ISI","","html-keyboard-response","78","283732","0.0-1.0-102.0","0","0","67366","","null","","","null","11","NaN","","","","","","","","","","","","","","",""
"","S2","","html-keyboard-response","79","283885","0.0-1.0-103.0","0","0","67366","","null","","","null","11","","NaN","","","","","","","","","","","","","",""
"","response","","html-keyboard-response","80","284478","0.0-1.0-104.0-0.0","0","0","67366","","592","","","68","11","","","1","11","training","adjacent","BA","2","1","R.jpg","Q.jpg","1","0","0","",""
"","feedback","","html-keyboard-response","81","285482","0.0-1.0-105.0-0.0","0","0","67366","","null","","","null","11","","","","","","","","","","","","","","","",""
"","time_out","","html-keyboard-response","82","287522","0.0-1.0-107.0-0.0","0","0","67366","","null","","","null","11","","","","","","","","","","","","","","","",""
"","ITI","","html-keyboard-response","83","288525","0.0-1.0-108.0","0","0","67366","","null","","","null","11","","","","","","","","","","","","","","","NaN",""
"","S1","","html-keyboard-response","84","288678","0.0-1.0-110.0","0","0","67366","","null","","","null","12","","","","","","","","","","","","","","","",""
"","ISI","","html-keyboard-response","85","290681","0.0-1.0-111.0","0","0","67366","","null","","","null","12","NaN","","","","","","","","","","","","","","",""
"","S2","","html-keyboard-response","86","290834","0.0-1.0-112.0","0","0","67366","","null","","","null","12","","NaN","","","","","","","","","","","","","",""
"","response","","html-keyboard-response","87","291241","0.0-1.0-113.0-0.0","0","0","67366","","404","","","75","12","","","1","12","training","adjacent","FE","6","5","P.jpg","L.jpg","0","0","1","",""
"","feedback","","html-keyboard-response","88","292244","0.0-1.0-114.0-0.0","0","0","67366","","null","","","null","12","","","","","","","","","","","","","","","",""
"","ITI","","html-keyboard-response","89","293247","0.0-1.0-117.0","0","0","67366","","null","","","null","12","","","","","","","","","","","","","","","NaN",""
"","S1","","html-keyboard-response","90","293400","0.0-1.0-119.0","0","0","67366","","null","","","null","13","","","","","","","","","","","","","","","",""
"","ISI","","html-keyboard-response","91","295403","0.0-1.0-120.0","0","0","67366","","null","","","null","13","NaN","","","","","","","","","","","","","","",""
"","S2","","html-keyboard-response","92","295556","0.0-1.0-121.0","0","0","67366","","null","","","null","13","","NaN","","","","","","","","","","","","","",""
"","response","","html-keyboard-response","93","296039","0.0-1.0-122.0-0.0","0","0","67366","","481","","","75","13","","","1","13","training","adjacent","FG","6","7","P.jpg","O.jpg","0","1","0","",""
"","feedback","","html-keyboard-response","94","297042","0.0-1.0-123.0-0.0","0","0","67366","","null","","","null","13","","","","","","","","","","","","","","","",""
"","time_out","","html-keyboard-response","95","299044","0.0-1.0-125.0-0.0","0","0","67366","","null","","","null","13","","","","","","","","","","","","","","","",""
"","ITI","","html-keyboard-response","96","300047","0.0-1.0-126.0","0","0","67366","","null","","","null","13","","","","","","","","","","","","","","","NaN",""
"","S1","","html-keyboard-response","97","300200","0.0-1.0-128.0","0","0","67366","","null","","","null","14","","","","","","","","","","","","","","","",""
"","ISI","","html-keyboard-response","98","302238","0.0-1.0-129.0","0","0","67366","","null","","","null","14","NaN","","","","","","","","","","","","","","",""
"","S2","","html-keyboard-response","99","302391","0.0-1.0-130.0","0","0","67366","","null","","","null","14","","NaN","","","","","","","","","","","","","",""
"","response","","html-keyboard-response","100","303087","0.0-1.0-131.0-0.0","0","0","67366","","694","","","68","14","","","1","14","training","adjacent","CB","3","2","N.jpg","R.jpg","1","0","0","",""
"","feedback","","html-keyboard-response","101","304089","0.0-1.0-132.0-0.0","0","0","67366","","null","","","null","14","","","","","","","","","","","","","","","",""
"","time_out","","html-keyboard-response","102","306092","0.0-1.0-134.0-0.0","0","0","67366","","null","","","null","14","","","","","","","","","","","","","","","",""
"","ITI","","html-keyboard-response","103","307095","0.0-1.0-135.0","0","0","67366","","null","","","null","14","","","","","","","","","","","","","","","NaN",""
"","S1","","html-keyboard-response","104","307247","0.0-1.0-137.0","0","0","67366","","null","","","null","15","","","","","","","","","","","","","","","",""
"","ISI","","html-keyboard-response","105","309250","0.0-1.0-138.0","0","0","67366","","null","","","null","15","NaN","","","","","","","","","","","","","","",""
"","S2","","html-keyboard-response","106","309403","0.0-1.0-139.0","0","0","67366","","null","","","null","15","","NaN","","","","","","","","","","","","","",""
"","response","","html-keyboard-response","107","309935","0.0-1.0-140.0-0.0","0","0","67366","","529","","","68","15","","","1","15","training","adjacent","BA","2","1","R.jpg","Q.jpg","1","0","0","",""
"","feedback","","html-keyboard-response","108","310937","0.0-1.0-141.0-0.0","0","0","67366","","null","","","null","15","","","","","","","","","","","","","","","",""
"","time_out","","html-keyboard-response","109","312941","0.0-1.0-143.0-0.0","0","0","67366","","null","","","null","15","","","","","","","","","","","","","","","",""
"","ITI","","html-keyboard-response","110","313944","0.0-1.0-144.0","0","0","67366","","null","","","null","15","","","","","","","","","","","","","","","NaN",""
"","S1","","html-keyboard-response","111","314098","0.0-1.0-146.0","0","0","67366","","null","","","null","16","","","","","","","","","","","","","","","",""
"","ISI","","html-keyboard-response","112","316101","0.0-1.0-147.0","0","0","67366","","null","","","null","16","NaN","","","","","","","","","","","","","","",""
"","S2","","html-keyboard-response","113","316254","0.0-1.0-148.0","0","0","67366","","null","","","null","16","","NaN","","","","","","","","","","","","","",""
"","response","","html-keyboard-response","114","316822","0.0-1.0-149.0-0.0","0","0","67366","","567","","","75","16","","","1","16","training","adjacent","BC","2","3","R.jpg","N.jpg","0","1","0","",""
"","feedback","","html-keyboard-response","115","317825","0.0-1.0-150.0-0.0","0","0","67366","","null","","","null","16","","","","","","","","","","","","","","","",""
"","time_out","","html-keyboard-response","116","319828","0.0-1.0-152.0-0.0","0","0","67366","","null","","","null","16","","","","","","","","","","","","","","","",""
"","ITI","","html-keyboard-response","117","320832","0.0-1.0-153.0","0","0","67366","","null","","","null","16","","","","","","","","","","","","","","","NaN",""
"","S1","","html-keyboard-response","118","320984","0.0-1.0-155.0","0","0","67366","","null","","","null","17","","","","","","","","","","","","","","","",""
"","ISI","","html-keyboard-response","119","322988","0.0-1.0-156.0","0","0","67366","","null","","","null","17","NaN","","","","","","","","","","","","","","",""
"","S2","","html-keyboard-response","120","323140","0.0-1.0-157.0","0","0","67366","","null","","","null","17","","NaN","","","","","","","","","","","","","",""
"","response","","html-keyboard-response","121","323662","0.0-1.0-158.0-0.0","0","0","67366","","520","","","68","17","","","1","17","training","adjacent","EF","5","6","L.jpg","P.jpg","1","1","1","",""
"","feedback","","html-keyboard-response","122","324665","0.0-1.0-159.0-0.0","0","0","67366","","null","","","null","17","","","","","","","","","","","","","","","",""
"","ITI","","html-keyboard-response","123","325668","0.0-1.0-162.0","0","0","67366","","null","","","null","17","","","","","","","","","","","","","","","NaN",""
"","S1","","html-keyboard-response","124","325822","0.0-1.0-164.0","0","0","67366","","null","","","null","18","","","","","","","","","","","","","","","",""
"","ISI","","html-keyboard-response","125","327867","0.0-1.0-165.0","0","0","67366","","null","","","null","18","NaN","","","","","","","","","","","","","","",""
"","S2","","html-keyboard-response","126","328062","0.0-1.0-166.0","0","0","67366","","null","","","null","18","","NaN","","","","","","","","","","","","","",""
"","response","","html-keyboard-response","127","328591","0.0-1.0-167.0-0.0","0","0","67366","","527","","","75","18","","","1","18","training","adjacent","FG","6","7","P.jpg","O.jpg","0","1","0","",""
"","feedback","","html-keyboard-response","128","329594","0.0-1.0-168.0-0.0","0","0","67366","","null","","","null","18","","","","","","","","","","","","","","","",""
"","time_out","","html-keyboard-response","129","331596","0.0-1.0-170.0-0.0","0","0","67366","","null","","","null","18","","","","","","","","","","","","","","","",""
"","ITI","","html-keyboard-response","130","332599","0.0-1.0-171.0","0","0","67366","","null","","","null","18","","","","","","","","","","","","","","","NaN",""
"","S1","","html-keyboard-response","131","332753","0.0-1.0-173.0","0","0","67366","","null","","","null","19","","","","","","","","","","","","","","","",""
"","ISI","","html-keyboard-response","132","334756","0.0-1.0-174.0","0","0","67366","","null","","","null","19","NaN","","","","","","","","","","","","","","",""
"","S2","","html-keyboard-response","133","334909","0.0-1.0-175.0","0","0","67366","","null","","","null","19","","NaN","","","","","","","","","","","","","",""
"","response","","html-keyboard-response","134","335478","0.0-1.0-176.0-0.0","0","0","67366","","566","","","75","19","","","1","19","training","adjacent","ED","5","4","L.jpg","M.jpg","0","0","1","",""
"","feedback","","html-keyboard-response","135","336482","0.0-1.0-177.0-0.0","0","0","67366","","null","","","null","19","","","","","","","","","","","","","","","",""
"","ITI","","html-keyboard-response","136","337484","0.0-1.0-180.0","0","0","67366","","null","","","null","19","","","","","","","","","","","","","","","NaN",""
"","S1","","html-keyboard-response","137","337682","0.0-1.0-182.0","0","0","67366","","null","","","null","20","","","","","","","","","","","","","","","",""
"","ISI","","html-keyboard-response","138","339684","0.0-1.0-183.0","0","0","67366","","null","","","null","20","NaN","","","","","","","","","","","","","","",""
"","S2","","html-keyboard-response","139","339841","0.0-1.0-184.0","0","0","67366","","null","","","null","20","","NaN","","","","","","","","","","","","","",""
"","response","","html-keyboard-response","140","340150","0.0-1.0-185.0-0.0","0","0","67366","","306","","","68","20","","","1","20","training","adjacent","ED","5","4","L.jpg","M.jpg","1","0","0","",""
"","feedback","","html-keyboard-response","141","341152","0.0-1.0-186.0-0.0","0","0","67366","","null","","","null","20","","","","","","","","","","","","","","","",""
"","time_out","","html-keyboard-response","142","343156","0.0-1.0-188.0-0.0","0","0","67366","","null","","","null","20","","","","","","","","","","","","","","","",""
"","ITI","","html-keyboard-response","143","344158","0.0-1.0-189.0","0","0","67366","","null","","","null","20","","","","","","","","","","","","","","","NaN",""
"","S1","","html-keyboard-response","144","344312","0.0-1.0-191.0","0","0","67366","","null","","","null","21","","","","","","","","","","","","","","","",""
"","ISI","","html-keyboard-response","145","346314","0.0-1.0-192.0","0","0","67366","","null","","","null","21","NaN","","","","","","","","","","","","","","",""
"","S2","","html-keyboard-response","146","346467","0.0-1.0-193.0","0","0","67366","","null","","","null","21","","NaN","","","","","","","","","","","","","",""
"","response","","html-keyboard-response","147","346950","0.0-1.0-194.0-0.0","0","0","67366","","482","","","75","21","","","1","21","training","adjacent","EF","5","6","L.jpg","P.jpg","0","1","0","",""
"","feedback","","html-keyboard-response","148","347988","0.0-1.0-195.0-0.0","0","0","67366","","null","","","null","21","","","","","","","","","","","","","","","",""
"","time_out","","html-keyboard-response","149","350044","0.0-1.0-197.0-0.0","0","0","67366","","null","","","null","21","","","","","","","","","","","","","","","",""
"","ITI","","html-keyboard-response","150","351051","0.0-1.0-198.0","0","0","67366","","null","","","null","21","","","","","","","","","","","","","","","NaN",""
"","S1","","html-keyboard-response","151","351204","0.0-1.0-200.0","0","0","67366","","null","","","null","22","","","","","","","","","","","","","","","",""
"","ISI","","html-keyboard-response","152","353207","0.0-1.0-201.0","0","0","67366","","null","","","null","22","NaN","","","","","","","","","","","","","","",""
"","S2","","html-keyboard-response","153","353360","0.0-1.0-202.0","0","0","67366","","null","","","null","22","","NaN","","","","","","","","","","","","","",""
"","response","","html-keyboard-response","154","353950","0.0-1.0-203.0-0.0","0","0","67366","","588","","","68","22","","","1","22","training","adjacent","FE","6","5","P.jpg","L.jpg","1","0","0","",""
"","feedback","","html-keyboard-response","155","354952","0.0-1.0-204.0-0.0","0","0","67366","","null","","","null","22","","","","","","","","","","","","","","","",""
"","time_out","","html-keyboard-response","156","356955","0.0-1.0-206.0-0.0","0","0","67366","","null","","","null","22","","","","","","","","","","","","","","","",""
"","ITI","","html-keyboard-response","157","357958","0.0-1.0-207.0","0","0","67366","","null","","","null","22","","","","","","","","","","","","","","","NaN",""
"","S1","","html-keyboard-response","158","358111","0.0-1.0-209.0","0","0","67366","","null","","","null","23","","","","","","","","","","","","","","","",""
"","ISI","","html-keyboard-response","159","360113","0.0-1.0-210.0","0","0","67366","","null","","","null","23","NaN","","","","","","","","","","","","","","",""
"","S2","","html-keyboard-response","160","360266","0.0-1.0-211.0","0","0","67366","","null","","","null","23","","NaN","","","","","","","","","","","","","",""
"","response","","html-keyboard-response","161","360926","0.0-1.0-212.0-0.0","0","0","67366","","657","","","75","23","","","1","23","training","adjacent","AB","1","2","Q.jpg","R.jpg","0","1","0","",""
"","feedback","","html-keyboard-response","162","361929","0.0-1.0-213.0-0.0","0","0","67366","","null","","","null","23","","","","","","","","","","","","","","","",""
"","time_out","","html-keyboard-response","163","363932","0.0-1.0-215.0-0.0","0","0","67366","","null","","","null","23","","","","","","","","","","","","","","","",""
"","ITI","","html-keyboard-response","164","364934","0.0-1.0-216.0","0","0","67366","","null","","","null","23","","","","","","","","","","","","","","","NaN",""
"","S1","","html-keyboard-response","165","365087","0.0-1.0-218.0","0","0","67366","","null","","","null","24","","","","","","","","","","","","","","","",""
"","ISI","","html-keyboard-response","166","367090","0.0-1.0-219.0","0","0","67366","","null","","","null","24","NaN","","","","","","","","","","","","","","",""
"","S2","","html-keyboard-response","167","367242","0.0-1.0-220.0","0","0","67366","","null","","","null","24","","NaN","","","","","","","","","","","","","",""
"","response","","html-keyboard-response","168","367840","0.0-1.0-221.0-0.0","0","0","67366","","593","","","75","24","","","1","24","training","adjacent","AB","1","2","Q.jpg","R.jpg","0","1","0","",""
"","feedback","","html-keyboard-response","169","368843","0.0-1.0-222.0-0.0","0","0","67366","","null","","","null","24","","","","","","","","","","","","","","","",""
"","time_out","","html-keyboard-response","170","370846","0.0-1.0-224.0-0.0","0","0","67366","","null","","","null","24","","","","","","","","","","","","","","","",""
"","ITI","","html-keyboard-response","171","371849","0.0-1.0-225.0","0","0","67366","","null","","","null","24","","","","","","","","","","","","","","","NaN",""
"","S1","","html-keyboard-response","172","372002","0.0-1.0-227.0","0","0","67366","","null","","","null","25","","","","","","","","","","","","","","","",""
"","ISI","","html-keyboard-response","173","374005","0.0-1.0-228.0","0","0","67366","","null","","","null","25","NaN","","","","","","","","","","","","","","",""
"","S2","","html-keyboard-response","174","374157","0.0-1.0-229.0","0","0","67366","","null","","","null","25","","NaN","","","","","","","","","","","","","",""
"","response","","html-keyboard-response","175","374894","0.0-1.0-230.0-0.0","0","0","67366","","734","","","75","25","","","1","25","training","adjacent","GF","7","6","O.jpg","P.jpg","0","0","1","",""
"","feedback","","html-keyboard-response","176","375929","0.0-1.0-231.0-0.0","0","0","67366","","null","","","null","25","","","","","","","","","","","","","","","",""
"","ITI","","html-keyboard-response","177","376931","0.0-1.0-234.0","0","0","67366","","null","","","null","25","","","","","","","","","","","","","","","NaN",""
"","S1","","html-keyboard-response","178","377084","0.0-1.0-236.0","0","0","67366","","null","","","null","26","","","","","","","","","","","","","","","",""
"","ISI","","html-keyboard-response","179","379089","0.0-1.0-237.0","0","0","67366","","null","","","null","26","NaN","","","","","","","","","","","","","","",""
"","S2","","html-keyboard-response","180","379243","0.0-1.0-238.0","0","0","67366","","null","","","null","26","","NaN","","","","","","","","","","","","","",""
"","response","","html-keyboard-response","181","379982","0.0-1.0-239.0-0.0","0","0","67366","","737","","","75","26","","","1","26","training","adjacent","CD","3","4","N.jpg","M.jpg","0","1","0","",""
"","feedback","","html-keyboard-response","182","380985","0.0-1.0-240.0-0.0","0","0","67366","","null","","","null","26","","","","","","","","","","","","","","","",""
"","time_out","","html-keyboard-response","183","382987","0.0-1.0-242.0-0.0","0","0","67366","","null","","","null","26","","","","","","","","","","","","","","","",""
"","ITI","","html-keyboard-response","184","383991","0.0-1.0-243.0","0","0","67366","","null","","","null","26","","","","","","","","","","","","","","","NaN",""
"","S1","","html-keyboard-response","185","384143","0.0-1.0-245.0","0","0","67366","","null","","","null","27","","","","","","","","","","","","","","","",""
"","ISI","","html-keyboard-response","186","386146","0.0-1.0-246.0","0","0","67366","","null","","","null","27","NaN","","","","","","","","","","","","","","",""
"","S2","","html-keyboard-response","187","386300","0.0-1.0-247.0","0","0","67366","","null","","","null","27","","NaN","","","","","","","","","","","","","",""
"","response","","html-keyboard-response","188","386990","0.0-1.0-248.0-0.0","0","0","67366","","688","","","75","27","","","1","27","training","adjacent","FG","6","7","P.jpg","O.jpg","0","1","0","",""
"","feedback","","html-keyboard-response","189","387992","0.0-1.0-249.0-0.0","0","0","67366","","null","","","null","27","","","","","","","","","","","","","","","",""
"","time_out","","html-keyboard-response","190","390006","0.0-1.0-251.0-0.0","0","0","67366","","null","","","null","27","","","","","","","","","","","","","","","",""
"","ITI","","html-keyboard-response","191","391008","0.0-1.0-252.0","0","0","67366","","null","","","null","27","","","","","","","","","","","","","","","NaN",""
"","S1","","html-keyboard-response","192","391161","0.0-1.0-254.0","0","0","67366","","null","","","null","28","","","","","","","","","","","","","","","",""
"","ISI","","html-keyboard-response","193","393164","0.0-1.0-255.0","0","0","67366","","null","","","null","28","NaN","","","","","","","","","","","","","","",""
"","S2","","html-keyboard-response","194","393318","0.0-1.0-256.0","0","0","67366","","null","","","null","28","","NaN","","","","","","","","","","","","","",""
"","response","","html-keyboard-response","195","393814","0.0-1.0-257.0-0.0","0","0","67366","","494","","","68","28","","","1","28","training","adjacent","EF","5","6","L.jpg","P.jpg","1","1","1","",""
"","feedback","","html-keyboard-response","196","394817","0.0-1.0-258.0-0.0","0","0","67366","","null","","","null","28","","","","","","","","","","","","","","","",""
"","ITI","","html-keyboard-response","197","395820","0.0-1.0-261.0","0","0","67366","","null","","","null","28","","","","","","","","","","","","","","","NaN",""
"","S1","","html-keyboard-response","198","395974","0.0-1.0-263.0","0","0","67366","","null","","","null","29","","","","","","","","","","","","","","","",""
"","ISI","","html-keyboard-response","199","397977","0.0-1.0-264.0","0","0","67366","","null","","","null","29","NaN","","","","","","","","","","","","","","",""
"","S2","","html-keyboard-response","200","398130","0.0-1.0-265.0","0","0","67366","","null","","","null","29","","NaN","","","","","","","","","","","","","",""
"","response","","html-keyboard-response","201","398990","0.0-1.0-266.0-0.0","0","0","67366","","857","","","75","29","","","1","29","training","adjacent","AB","1","2","Q.jpg","R.jpg","0","1","0","",""
"","feedback","","html-keyboard-response","202","399992","0.0-1.0-267.0-0.0","0","0","67366","","null","","","null","29","","","","","","","","","","","","","","","",""
"","time_out","","html-keyboard-response","203","401996","0.0-1.0-269.0-0.0","0","0","67366","","null","","","null","29","","","","","","","","","","","","","","","",""
"","ITI","","html-keyboard-response","204","402998","0.0-1.0-270.0","0","0","67366","","null","","","null","29","","","","","","","","","","","","","","","NaN",""
"","S1","","html-keyboard-response","205","403151","0.0-1.0-272.0","0","0","67366","","null","","","null","30","","","","","","","","","","","","","","","",""
"","ISI","","html-keyboard-response","206","405154","0.0-1.0-273.0","0","0","67366","","null","","","null","30","NaN","","","","","","","","","","","","","","",""
"","S2","","html-keyboard-response","207","405310","0.0-1.0-274.0","0","0","67366","","null","","","null","30","","NaN","","","","","","","","","","","","","",""
"","response","","html-keyboard-response","208","405838","0.0-1.0-275.0-0.0","0","0","67366","","525","","","75","30","","","1","30","training","adjacent","BC","2","3","R.jpg","N.jpg","0","1","0","",""
"","feedback","","html-keyboard-response","209","406840","0.0-1.0-276.0-0.0","0","0","67366","","null","","","null","30","","","","","","","","","","","","","","","",""
"","time_out","","html-keyboard-response","210","408843","0.0-1.0-278.0-0.0","0","0","67366","","null","","","null","30","","","","","","","","","","","","","","","",""
"","ITI","","html-keyboard-response","211","409846","0.0-1.0-279.0","0","0","67366","","null","","","null","30","","","","","","","","","","","","","","","NaN",""
"","S1","","html-keyboard-response","212","409999","0.0-1.0-281.0","0","0","67366","","null","","","null","31","","","","","","","","","","","","","","","",""
"","ISI","","html-keyboard-response","213","412001","0.0-1.0-282.0","0","0","67366","","null","","","null","31","NaN","","","","","","","","","","","","","","",""
"","S2","","html-keyboard-response","214","412154","0.0-1.0-283.0","0","0","67366","","null","","","null","31","","NaN","","","","","","","","","","","","","",""
"","response","","html-keyboard-response","215","412702","0.0-1.0-284.0-0.0","0","0","67366","","546","","","68","31","","","1","31","training","adjacent","BA","2","1","R.jpg","Q.jpg","1","0","0","",""
"","feedback","","html-keyboard-response","216","413705","0.0-1.0-285.0-0.0","0","0","67366","","null","","","null","31","","","","","","","","","","","","","","","",""
"","time_out","","html-keyboard-response","217","415707","0.0-1.0-287.0-0.0","0","0","67366","","null","","","null","31","","","","","","","","","","","","","","","",""
"","ITI","","html-keyboard-response","218","416711","0.0-1.0-288.0","0","0","67366","","null","","","null","31","","","","","","","","","","","","","","","NaN",""
"","S1","","html-keyboard-response","219","416864","0.0-1.0-290.0","0","0","67366","","null","","","null","32","","","","","","","","","","","","","","","",""
"","ISI","","html-keyboard-response","220","418868","0.0-1.0-291.0","0","0","67366","","null","","","null","32","NaN","","","","","","","","","","","","","","",""
"","S2","","html-keyboard-response","221","419023","0.0-1.0-292.0","0","0","67366","","null","","","null","32","","NaN","","","","","","","","","","","","","",""
"","response","","html-keyboard-response","222","419589","0.0-1.0-293.0-0.0","0","0","67366","","564","","","68","32","","","1","32","training","adjacent","DC","4","3","M.jpg","N.jpg","1","0","0","",""
"","feedback","","html-keyboard-response","223","420593","0.0-1.0-294.0-0.0","0","0","67366","","null","","","null","32","","","","","","","","","","","","","","","",""
"","time_out","","html-keyboard-response","224","422595","0.0-1.0-296.0-0.0","0","0","67366","","null","","","null","32","","","","","","","","","","","","","","","",""
"","ITI","","html-keyboard-response","225","423598","0.0-1.0-297.0","0","0","67366","","null","","","null","32","","","","","","","","","","","","","","","NaN",""
"","S1","","html-keyboard-response","226","423753","0.0-1.0-299.0","0","0","67366","","null","","","null","33","","","","","","","","","","","","","","","",""
"","ISI","","html-keyboard-response","227","425756","0.0-1.0-300.0","0","0","67366","","null","","","null","33","NaN","","","","","","","","","","","","","","",""
"","S2","","html-keyboard-response","228","425910","0.0-1.0-301.0","0","0","67366","","null","","","null","33","","NaN","","","","","","","","","","","","","",""
"","response","","html-keyboard-response","229","426575","0.0-1.0-302.0-0.0","0","0","67366","","663","","","75","33","","","1","33","training","adjacent","GF","7","6","O.jpg","P.jpg","0","0","1","",""
"","feedback","","html-keyboard-response","230","427578","0.0-1.0-303.0-0.0","0","0","67366","","null","","","null","33","","","","","","","","","","","","","","","",""
"","ITI","","html-keyboard-response","231","428581","0.0-1.0-306.0","0","0","67366","","null","","","null","33","","","","","","","","","","","","","","","NaN",""
"","S1","","html-keyboard-response","232","428734","0.0-1.0-308.0","0","0","67366","","null","","","null","34","","","","","","","","","","","","","","","",""
"","ISI","","html-keyboard-response","233","430737","0.0-1.0-309.0","0","0","67366","","null","","","null","34","NaN","","","","","","","","","","","","","","",""
"","S2","","html-keyboard-response","234","430890","0.0-1.0-310.0","0","0","67366","","null","","","null","34","","NaN","","","","","","","","","","","","","",""
"","response","","html-keyboard-response","235","431902","0.0-1.0-311.0-0.0","0","0","67366","","1009","","","68","34","","","1","34","training","adjacent","BA","2","1","R.jpg","Q.jpg","1","0","0","",""
"","feedback","","html-keyboard-response","236","432905","0.0-1.0-312.0-0.0","0","0","67366","","null","","","null","34","","","","","","","","","","","","","","","",""
"","time_out","","html-keyboard-response","237","434908","0.0-1.0-314.0-0.0","0","0","67366","","null","","","null","34","","","","","","","","","","","","","","","",""
"","ITI","","html-keyboard-response","238","435912","0.0-1.0-315.0","0","0","67366","","null","","","null","34","","","","","","","","","","","","","","","NaN",""
"","S1","","html-keyboard-response","239","436066","0.0-1.0-317.0","0","0","67366","","null","","","null","35","","","","","","","","","","","","","","","",""
"","ISI","","html-keyboard-response","240","438069","0.0-1.0-318.0","0","0","67366","","null","","","null","35","NaN","","","","","","","","","","","","","","",""
"","S2","","html-keyboard-response","241","438222","0.0-1.0-319.0","0","0","67366","","null","","","null","35","","NaN","","","","","","","","","","","","","",""
"","response","","html-keyboard-response","242","438726","0.0-1.0-320.0-0.0","0","0","67366","","502","","","75","35","","","1","35","training","adjacent","DE","4","5","M.jpg","L.jpg","0","1","0","",""
"","feedback","","html-keyboard-response","243","439729","0.0-1.0-321.0-0.0","0","0","67366","","null","","","null","35","","","","","","","","","","","","","","","",""
"","time_out","","html-keyboard-response","244","441733","0.0-1.0-323.0-0.0","0","0","67366","","null","","","null","35","","","","","","","","","","","","","","","",""
"","ITI","","html-keyboard-response","245","442736","0.0-1.0-324.0","0","0","67366","","null","","","null","35","","","","","","","","","","","","","","","NaN",""
"","S1","","html-keyboard-response","246","442890","0.0-1.0-326.0","0","0","67366","","null","","","null","36","","","","","","","","","","","","","","","",""
"","ISI","","html-keyboard-response","247","444893","0.0-1.0-327.0","0","0","67366","","null","","","null","36","NaN","","","","","","","","","","","","","","",""
"","S2","","html-keyboard-response","248","445049","0.0-1.0-328.0","0","0","67366","","null","","","null","36","","NaN","","","","","","","","","","","","","",""
"","response","","html-keyboard-response","249","445717","0.0-1.0-329.0-0.0","0","0","67366","","666","","","68","36","","","1","36","training","adjacent","CD","3","4","N.jpg","M.jpg","1","1","1","",""
"","feedback","","html-keyboard-response","250","446720","0.0-1.0-330.0-0.0","0","0","67366","","null","","","null","36","","","","","","","","","","","","","","","",""
"","ITI","","html-keyboard-response","251","447722","0.0-1.0-333.0","0","0","67366","","null","","","null","36","","","","","","","","","","","","","","","NaN",""
"","S1","","html-keyboard-response","252","447876","0.0-1.0-335.0","0","0","67366","","null","","","null","37","","","","","","","","","","","","","","","",""
"","ISI","","html-keyboard-response","253","449878","0.0-1.0-336.0","0","0","67366","","null","","","null","37","NaN","","","","","","","","","","","","","","",""
"","S2","","html-keyboard-response","254","450031","0.0-1.0-337.0","0","0","67366","","null","","","null","37","","NaN","","","","","","","","","","","","","",""
"","response","","html-keyboard-response","255","450629","0.0-1.0-338.0-0.0","0","0","67366","","596","","","68","37","","","1","37","training","adjacent","ED","5","4","L.jpg","M.jpg","1","0","0","",""
"","feedback","","html-keyboard-response","256","451632","0.0-1.0-339.0-0.0","0","0","67366","","null","","","null","37","","","","","","","","","","","","","","","",""
"","time_out","","html-keyboard-response","257","453680","0.0-1.0-341.0-0.0","0","0","67366","","null","","","null","37","","","","","","","","","","","","","","","",""
"","ITI","","html-keyboard-response","258","454684","0.0-1.0-342.0","0","0","67366","","null","","","null","37","","","","","","","","","","","","","","","NaN",""
"","S1","","html-keyboard-response","259","454839","0.0-1.0-344.0","0","0","67366","","null","","","null","38","","","","","","","","","","","","","","","",""
"","ISI","","html-keyboard-response","260","456843","0.0-1.0-345.0","0","0","67366","","null","","","null","38","NaN","","","","","","","","","","","","","","",""
"","S2","","html-keyboard-response","261","457020","0.0-1.0-346.0","0","0","67366","","null","","","null","38","","NaN","","","","","","","","","","","","","",""
"","response","","html-keyboard-response","262","457613","0.0-1.0-347.0-0.0","0","0","67366","","591","","","75","38","","","1","38","training","adjacent","GF","7","6","O.jpg","P.jpg","0","0","1","",""
"","feedback","","html-keyboard-response","263","458639","0.0-1.0-348.0-0.0","0","0","67366","","null","","","null","38","","","","","","","","","","","","","","","",""
"","ITI","","html-keyboard-response","264","459643","0.0-1.0-351.0","0","0","67366","","null","","","null","38","","","","","","","","","","","","","","","NaN",""
"","S1","","html-keyboard-response","265","459795","0.0-1.0-353.0","0","0","67366","","null","","","null","39","","","","","","","","","","","","","","","",""
"","ISI","","html-keyboard-response","266","461798","0.0-1.0-354.0","0","0","67366","","null","","","null","39","NaN","","","","","","","","","","","","","","",""
"","S2","","html-keyboard-response","267","461951","0.0-1.0-355.0","0","0","67366","","null","","","null","39","","NaN","","","","","","","","","","","","","",""
"","response","","html-keyboard-response","268","462757","0.0-1.0-356.0-0.0","0","0","67366","","804","","","68","39","","","1","39","training","adjacent","AB","1","2","Q.jpg","R.jpg","1","1","1","",""
"","feedback","","html-keyboard-response","269","463760","0.0-1.0-357.0-0.0","0","0","67366","","null","","","null","39","","","","","","","","","","","","","","","",""
"","ITI","","html-keyboard-response","270","464766","0.0-1.0-360.0","0","0","67366","","null","","","null","39","","","","","","","","","","","","","","","NaN",""
"","S1","","html-keyboard-response","271","464919","0.0-1.0-362.0","0","0","67366","","null","","","null","40","","","","","","","","","","","","","","","",""
"","ISI","","html-keyboard-response","272","466922","0.0-1.0-363.0","0","0","67366","","null","","","null","40","NaN","","","","","","","","","","","","","","",""
"","S2","","html-keyboard-response","273","467076","0.0-1.0-364.0","0","0","67366","","null","","","null","40","","NaN","","","","","","","","","","","","","",""
"","response","","html-keyboard-response","274","467741","0.0-1.0-365.0-0.0","0","0","67366","","662","","","68","40","","","1","40","training","adjacent","ED","5","4","L.jpg","M.jpg","1","0","0","",""
"","feedback","","html-keyboard-response","275","468745","0.0-1.0-366.0-0.0","0","0","67366","","null","","","null","40","","","","","","","","","","","","","","","",""
"","time_out","","html-keyboard-response","276","470747","0.0-1.0-368.0-0.0","0","0","67366","","null","","","null","40","","","","","","","","","","","","","","","",""
"","ITI","","html-keyboard-response","277","471750","0.0-1.0-369.0","0","0","67366","","null","","","null","40","","","","","","","","","","","","","","","NaN",""
"","S1","","html-keyboard-response","278","471903","0.0-1.0-371.0","0","0","67366","","null","","","null","41","","","","","","","","","","","","","","","",""
"","ISI","","html-keyboard-response","279","473906","0.0-1.0-372.0","0","0","67366","","null","","","null","41","NaN","","","","","","","","","","","","","","",""
"","S2","","html-keyboard-response","280","474059","0.0-1.0-373.0","0","0","67366","","null","","","null","41","","NaN","","","","","","","","","","","","","",""
"","response","","html-keyboard-response","281","474549","0.0-1.0-374.0-0.0","0","0","67366","","487","","","75","41","","","1","41","training","adjacent","BC","2","3","R.jpg","N.jpg","0","1","0","",""
"","feedback","","html-keyboard-response","282","475552","0.0-1.0-375.0-0.0","0","0","67366","","null","","","null","41","","","","","","","","","","","","","","","",""
"","time_out","","html-keyboard-response","283","477554","0.0-1.0-377.0-0.0","0","0","67366","","null","","","null","41","","","","","","","","","","","","","","","",""
"","ITI","","html-keyboard-response","284","478568","0.0-1.0-378.0","0","0","67366","","null","","","null","41","","","","","","","","","","","","","","","NaN",""
"","S1","","html-keyboard-response","285","478721","0.0-1.0-380.0","0","0","67366","","null","","","null","42","","","","","","","","","","","","","","","",""
"","ISI","","html-keyboard-response","286","480724","0.0-1.0-381.0","0","0","67366","","null","","","null","42","NaN","","","","","","","","","","","","","","",""
"","S2","","html-keyboard-response","287","480877","0.0-1.0-382.0","0","0","67366","","null","","","null","42","","NaN","","","","","","","","","","","","","",""
"","response","","html-keyboard-response","288","481397","0.0-1.0-383.0-0.0","0","0","67366","","517","","","75","42","","","1","42","training","adjacent","CD","3","4","N.jpg","M.jpg","0","1","0","",""
"","feedback","","html-keyboard-response","289","482400","0.0-1.0-384.0-0.0","0","0","67366","","null","","","null","42","","","","","","","","","","","","","","","",""
"","time_out","","html-keyboard-response","290","484403","0.0-1.0-386.0-0.0","0","0","67366","","null","","","null","42","","","","","","","","","","","","","","","",""
"","ITI","","html-keyboard-response","291","485406","0.0-1.0-387.0","0","0","67366","","null","","","null","42","","","","","","","","","","","","","","","NaN",""
"","S1","","html-keyboard-response","292","485560","0.0-1.0-389.0","0","0","67366","","null","","","null","43","","","","","","","","","","","","","","","",""
"","ISI","","html-keyboard-response","293","487562","0.0-1.0-390.0","0","0","67366","","null","","","null","43","NaN","","","","","","","","","","","","","","",""
"","S2","","html-keyboard-response","294","487715","0.0-1.0-391.0","0","0","67366","","null","","","null","43","","NaN","","","","","","","","","","","","","",""
"","response","","html-keyboard-response","295","488069","0.0-1.0-392.0-0.0","0","0","67366","","351","","","75","43","","","1","43","training","adjacent","DE","4","5","M.jpg","L.jpg","0","1","0","",""
"","feedback","","html-keyboard-response","296","489072","0.0-1.0-393.0-0.0","0","0","67366","","null","","","null","43","","","","","","","","","","","","","","","",""
"","time_out","","html-keyboard-response","297","491075","0.0-1.0-395.0-0.0","0","0","67366","","null","","","null","43","","","","","","","","","","","","","","","",""
"","ITI","","html-keyboard-response","298","492136","0.0-1.0-396.0","0","0","67366","","null","","","null","43","","","","","","","","","","","","","","","NaN",""
"","S1","","html-keyboard-response","299","492292","0.0-1.0-398.0","0","0","67366","","null","","","null","44","","","","","","","","","","","","","","","",""
"","ISI","","html-keyboard-response","300","494294","0.0-1.0-399.0","0","0","67366","","null","","","null","44","NaN","","","","","","","","","","","","","","",""
"","S2","","html-keyboard-response","301","494447","0.0-1.0-400.0","0","0","67366","","null","","","null","44","","NaN","","","","","","","","","","","","","",""
"","response","","html-keyboard-response","302","494861","0.0-1.0-401.0-0.0","0","0","67366","","412","","","68","44","","","1","44","training","adjacent","DC","4","3","M.jpg","N.jpg","1","0","0","",""
"","feedback","","html-keyboard-response","303","495864","0.0-1.0-402.0-0.0","0","0","67366","","null","","","null","44","","","","","","","","","","","","","","","",""
"","time_out","","html-keyboard-response","304","497867","0.0-1.0-404.0-0.0","0","0","67366","","null","","","null","44","","","","","","","","","","","","","","","",""
"","ITI","","html-keyboard-response","305","498873","0.0-1.0-405.0","0","0","67366","","null","","","null","44","","","","","","","","","","","","","","","NaN",""
"","S1","","html-keyboard-response","306","499028","0.0-1.0-407.0","0","0","67366","","null","","","null","45","","","","","","","","","","","","","","","",""
"","ISI","","html-keyboard-response","307","501030","0.0-1.0-408.0","0","0","67366","","null","","","null","45","NaN","","","","","","","","","","","","","","",""
"","S2","","html-keyboard-response","308","501183","0.0-1.0-409.0","0","0","67366","","null","","","null","45","","NaN","","","","","","","","","","","","","",""
"","response","","html-keyboard-response","309","501661","0.0-1.0-410.0-0.0","0","0","67366","","476","","","75","45","","","1","45","training","adjacent","DC","4","3","M.jpg","N.jpg","0","0","1","",""
"","feedback","","html-keyboard-response","310","502664","0.0-1.0-411.0-0.0","0","0","67366","","null","","","null","45","","","","","","","","","","","","","","","",""
"","ITI","","html-keyboard-response","311","503678","0.0-1.0-414.0","0","0","67366","","null","","","null","45","","","","","","","","","","","","","","","NaN",""
"","S1","","html-keyboard-response","312","503867","0.0-1.0-416.0","0","0","67366","","null","","","null","46","","","","","","","","","","","","","","","",""
"","ISI","","html-keyboard-response","313","505872","0.0-1.0-417.0","0","0","67366","","null","","","null","46","NaN","","","","","","","","","","","","","","",""
"","S2","","html-keyboard-response","314","506026","0.0-1.0-418.0","0","0","67366","","null","","","null","46","","NaN","","","","","","","","","","","","","",""
"","response","","html-keyboard-response","315","506453","0.0-1.0-419.0-0.0","0","0","67366","","425","","","68","46","","","1","46","training","adjacent","CB","3","2","N.jpg","R.jpg","1","0","0","",""
"","feedback","","html-keyboard-response","316","507456","0.0-1.0-420.0-0.0","0","0","67366","","null","","","null","46","","","","","","","","","","","","","","","",""
"","time_out","","html-keyboard-response","317","509460","0.0-1.0-422.0-0.0","0","0","67366","","null","","","null","46","","","","","","","","","","","","","","","",""
"","ITI","","html-keyboard-response","318","510463","0.0-1.0-423.0","0","0","67366","","null","","","null","46","","","","","","","","","","","","","","","NaN",""
"","S1","","html-keyboard-response","319","510615","0.0-1.0-425.0","0","0","67366","","null","","","null","47","","","","","","","","","","","","","","","",""
"","ISI","","html-keyboard-response","320","512618","0.0-1.0-426.0","0","0","67366","","null","","","null","47","NaN","","","","","","","","","","","","","","",""
"","S2","","html-keyboard-response","321","512771","0.0-1.0-427.0","0","0","67366","","null","","","null","47","","NaN","","","","","","","","","","","","","",""
"","response","","html-keyboard-response","322","513358","0.0-1.0-428.0-0.0","0","0","67366","","584","","","75","47","","","1","47","training","adjacent","CB","3","2","N.jpg","R.jpg","0","0","1","",""
"","feedback","","html-keyboard-response","323","514361","0.0-1.0-429.0-0.0","0","0","67366","","null","","","null","47","","","","","","","","","","","","","","","",""
"","ITI","","html-keyboard-response","324","515363","0.0-1.0-432.0","0","0","67366","","null","","","null","47","","","","","","","","","","","","","","","NaN",""
"","block_over","","html-keyboard-response","325","522629","0.0-1.0-433.0-0.0","0","0","67366","","7262","","","32","47","","","","","","","","","","","","","","","",""
"","S1","","html-keyboard-response","326","522781","0.0-1.0-434.0","0","0","67366","","null","","","null","48","","","","","","","","","","","","","","","",""
"","ISI","","html-keyboard-response","327","524786","0.0-1.0-435.0","0","0","67366","","null","","","null","48","NaN","","","","","","","","","","","","","","",""
"","S2","","html-keyboard-response","328","524939","0.0-1.0-436.0","0","0","67366","","null","","","null","48","","NaN","","","","","","","","","","","","","",""
"","response","","html-keyboard-response","329","525445","0.0-1.0-437.0-0.0","0","0","67366","","503","","","75","48","","","2","48","training","adjacent","ED","5","4","L.jpg","M.jpg","0","0","1","",""
"","feedback","","html-keyboard-response","330","526448","0.0-1.0-438.0-0.0","0","0","67366","","null","","","null","48","","","","","","","","","","","","","","","",""
"","ITI","","html-keyboard-response","331","527459","0.0-1.0-441.0","0","0","67366","","null","","","null","48","","","","","","","","","","","","","","","NaN",""
"","S1","","html-keyboard-response","332","527614","0.0-1.0-443.0","0","0","67366","","null","","","null","49","","","","","","","","","","","","","","","",""
"","ISI","","html-keyboard-response","333","529655","0.0-1.0-444.0","0","0","67366","","null","","","null","49","NaN","","","","","","","","","","","","","","",""
"","S2","","html-keyboard-response","334","529861","0.0-1.0-445.0","0","0","67366","","null","","","null","49","","NaN","","","","","","","","","","","","","",""
"","response","","html-keyboard-response","335","530341","0.0-1.0-446.0-0.0","0","0","67366","","478","","","75","49","","","2","49","training","adjacent","DE","4","5","M.jpg","L.jpg","0","1","0","",""
"","feedback","","html-keyboard-response","336","531343","0.0-1.0-447.0-0.0","0","0","67366","","null","","","null","49","","","","","","","","","","","","","","","",""
"","time_out","","html-keyboard-response","337","533347","0.0-1.0-449.0-0.0","0","0","67366","","null","","","null","49","","","","","","","","","","","","","","","",""
"","ITI","","html-keyboard-response","338","534350","0.0-1.0-450.0","0","0","67366","","null","","","null","49","","","","","","","","","","","","","","","NaN",""
"","S1","","html-keyboard-response","339","534503","0.0-1.0-452.0","0","0","67366","","null","","","null","50","","","","","","","","","","","","","","","",""
"","ISI","","html-keyboard-response","340","536518","0.0-1.0-453.0","0","0","67366","","null","","","null","50","NaN","","","","","","","","","","","","","","",""
"","S2","","html-keyboard-response","341","536671","0.0-1.0-454.0","0","0","67366","","null","","","null","50","","NaN","","","","","","","","","","","","","",""
"","response","","html-keyboard-response","342","537141","0.0-1.0-455.0-0.0","0","0","67366","","467","","","68","50","","","2","50","training","adjacent","DC","4","3","M.jpg","N.jpg","1","0","0","",""
"","feedback","","html-keyboard-response","343","538145","0.0-1.0-456.0-0.0","0","0","67366","","null","","","null","50","","","","","","","","","","","","","","","",""
"","time_out","","html-keyboard-response","344","540148","0.0-1.0-458.0-0.0","0","0","67366","","null","","","null","50","","","","","","","","","","","","","","","",""
"","ITI","","html-keyboard-response","345","541153","0.0-1.0-459.0","0","0","67366","","null","","","null","50","","","","","","","","","","","","","","","NaN",""
"","S1","","html-keyboard-response","346","541306","0.0-1.0-461.0","0","0","67366","","null","","","null","51","","","","","","","","","","","","","","","",""
"","ISI","","html-keyboard-response","347","543309","0.0-1.0-462.0","0","0","67366","","null","","","null","51","NaN","","","","","","","","","","","","","","",""
"","S2","","html-keyboard-response","348","543462","0.0-1.0-463.0","0","0","67366","","null","","","null","51","","NaN","","","","","","","","","","","","","",""
"","response","","html-keyboard-response","349","543901","0.0-1.0-464.0-0.0","0","0","67366","","437","","","75","51","","","2","51","training","adjacent","AB","1","2","Q.jpg","R.jpg","0","1","0","",""
"","feedback","","html-keyboard-response","350","544928","0.0-1.0-465.0-0.0","0","0","67366","","null","","","null","51","","","","","","","","","","","","","","","",""
"","time_out","","html-keyboard-response","351","546934","0.0-1.0-467.0-0.0","0","0","67366","","null","","","null","51","","","","","","","","","","","","","","","",""
"","ITI","","html-keyboard-response","352","547946","0.0-1.0-468.0","0","0","67366","","null","","","null","51","","","","","","","","","","","","","","","NaN",""
"","S1","","html-keyboard-response","353","548099","0.0-1.0-470.0","0","0","67366","","null","","","null","52","","","","","","","","","","","","","","","",""
"","ISI","","html-keyboard-response","354","550103","0.0-1.0-471.0","0","0","67366","","null","","","null","52","NaN","","","","","","","","","","","","","","",""
"","S2","","html-keyboard-response","355","550256","0.0-1.0-472.0","0","0","67366","","null","","","null","52","","NaN","","","","","","","","","","","","","",""
"","response","","html-keyboard-response","356","550717","0.0-1.0-473.0-0.0","0","0","67366","","458","","","68","52","","","2","52","training","adjacent","CB","3","2","N.jpg","R.jpg","1","0","0","",""
"","feedback","","html-keyboard-response","357","551720","0.0-1.0-474.0-0.0","0","0","67366","","null","","","null","52","","","","","","","","","","","","","","","",""
"","time_out","","html-keyboard-response","358","553723","0.0-1.0-476.0-0.0","0","0","67366","","null","","","null","52","","","","","","","","","","","","","","","",""
"","ITI","","html-keyboard-response","359","554726","0.0-1.0-477.0","0","0","67366","","null","","","null","52","","","","","","","","","","","","","","","NaN",""
"","S1","","html-keyboard-response","360","554880","0.0-1.0-479.0","0","0","67366","","null","","","null","53","","","","","","","","","","","","","","","",""
"","ISI","","html-keyboard-response","361","556882","0.0-1.0-480.0","0","0","67366","","null","","","null","53","NaN","","","","","","","","","","","","","","",""
"","S2","","html-keyboard-response","362","557036","0.0-1.0-481.0","0","0","67366","","null","","","null","53","","NaN","","","","","","","","","","","","","",""
"","response","","html-keyboard-response","363","557549","0.0-1.0-482.0-0.0","0","0","67366","","511","","","75","53","","","2","53","training","adjacent","BC","2","3","R.jpg","N.jpg","0","1","0","",""
"","feedback","","html-keyboard-response","364","558554","0.0-1.0-483.0-0.0","0","0","67366","","null","","","null","53","","","","","","","","","","","","","","","",""
"","time_out","","html-keyboard-response","365","560558","0.0-1.0-485.0-0.0","0","0","67366","","null","","","null","53","","","","","","","","","","","","","","","",""
"","ITI","","html-keyboard-response","366","561563","0.0-1.0-486.0","0","0","67366","","null","","","null","53","","","","","","","","","","","","","","","NaN",""
"","S1","","html-keyboard-response","367","561716","0.0-1.0-488.0","0","0","67366","","null","","","null","54","","","","","","","","","","","","","","","",""
"","ISI","","html-keyboard-response","368","563718","0.0-1.0-489.0","0","0","67366","","null","","","null","54","NaN","","","","","","","","","","","","","","",""
"","S2","","html-keyboard-response","369","563870","0.0-1.0-490.0","0","0","67366","","null","","","null","54","","NaN","","","","","","","","","","","","","",""
"","response","","html-keyboard-response","370","564596","0.0-1.0-491.0-0.0","0","0","67366","","724","","","75","54","","","2","54","training","adjacent","ED","5","4","L.jpg","M.jpg","0","0","1","",""
"","feedback","","html-keyboard-response","371","565599","0.0-1.0-492.0-0.0","0","0","67366","","null","","","null","54","","","","","","","","","","","","","","","",""
"","ITI","","html-keyboard-response","372","566603","0.0-1.0-495.0","0","0","67366","","null","","","null","54","","","","","","","","","","","","","","","NaN",""
"","S1","","html-keyboard-response","373","566755","0.0-1.0-497.0","0","0","67366","","null","","","null","55","","","","","","","","","","","","","","","",""
"","ISI","","html-keyboard-response","374","568760","0.0-1.0-498.0","0","0","67366","","null","","","null","55","NaN","","","","","","","","","","","","","","",""
"","S2","","html-keyboard-response","375","568913","0.0-1.0-499.0","0","0","67366","","null","","","null","55","","NaN","","","","","","","","","","","","","",""
"","response","","html-keyboard-response","376","569492","0.0-1.0-500.0-0.0","0","0","67366","","578","","","68","55","","","2","55","training","adjacent","FG","6","7","P.jpg","O.jpg","1","1","1","",""
"","feedback","","html-keyboard-response","377","570503","0.0-1.0-501.0-0.0","0","0","67366","","null","","","null","55","","","","","","","","","","","","","","","",""
"","ITI","","html-keyboard-response","378","571509","0.0-1.0-504.0","0","0","67366","","null","","","null","55","","","","","","","","","","","","","","","NaN",""
"","S1","","html-keyboard-response","379","571662","0.0-1.0-506.0","0","0","67366","","null","","","null","56","","","","","","","","","","","","","","","",""
"","ISI","","html-keyboard-response","380","573666","0.0-1.0-507.0","0","0","67366","","null","","","null","56","NaN","","","","","","","","","","","","","","",""
"","S2","","html-keyboard-response","381","573819","0.0-1.0-508.0","0","0","67366","","null","","","null","56","","NaN","","","","","","","","","","","","","",""
"","response","","html-keyboard-response","382","574556","0.0-1.0-509.0-0.0","0","0","67366","","735","","","75","56","","","2","56","training","adjacent","FE","6","5","P.jpg","L.jpg","0","0","1","",""
"","feedback","","html-keyboard-response","383","575561","0.0-1.0-510.0-0.0","0","0","67366","","null","","","null","56","","","","","","","","","","","","","","","",""
"","ITI","","html-keyboard-response","384","576564","0.0-1.0-513.0","0","0","67366","","null","","","null","56","","","","","","","","","","","","","","","NaN",""
"","S1","","html-keyboard-response","385","576718","0.0-1.0-515.0","0","0","67366","","null","","","null","57","","","","","","","","","","","","","","","",""
"","ISI","","html-keyboard-response","386","578720","0.0-1.0-516.0","0","0","67366","","null","","","null","57","NaN","","","","","","","","","","","","","","",""
"","S2","","html-keyboard-response","387","578873","0.0-1.0-517.0","0","0","67366","","null","","","null","57","","NaN","","","","","","","","","","","","","",""
"","response","","html-keyboard-response","388","579549","0.0-1.0-518.0-0.0","0","0","67366","","673","","","75","57","","","2","57","training","adjacent","AB","1","2","Q.jpg","R.jpg","0","1","0","",""
"","feedback","","html-keyboard-response","389","580556","0.0-1.0-519.0-0.0","0","0","67366","","null","","","null","57","","","","","","","","","","","","","","","",""
"","time_out","","html-keyboard-response","390","582559","0.0-1.0-521.0-0.0","0","0","67366","","null","","","null","57","","","","","","","","","","","","","","","",""
"","ITI","","html-keyboard-response","391","583601","0.0-1.0-522.0","0","0","67366","","null","","","null","57","","","","","","","","","","","","","","","NaN",""
"","S1","","html-keyboard-response","392","583759","0.0-1.0-524.0","0","0","67366","","null","","","null","58","","","","","","","","","","","","","","","",""
"","ISI","","html-keyboard-response","393","585762","0.0-1.0-525.0","0","0","67366","","null","","","null","58","NaN","","","","","","","","","","","","","","",""
"","S2","","html-keyboard-response","394","585916","0.0-1.0-526.0","0","0","67366","","null","","","null","58","","NaN","","","","","","","","","","","","","",""
"","response","","html-keyboard-response","395","586324","0.0-1.0-527.0-0.0","0","0","67366","","406","","","75","58","","","2","58","training","adjacent","DC","4","3","M.jpg","N.jpg","0","0","1","",""
"","feedback","","html-keyboard-response","396","587328","0.0-1.0-528.0-0.0","0","0","67366","","null","","","null","58","","","","","","","","","","","","","","","",""
"","ITI","","html-keyboard-response","397","588331","0.0-1.0-531.0","0","0","67366","","null","","","null","58","","","","","","","","","","","","","","","NaN",""
"","S1","","html-keyboard-response","398","588485","0.0-1.0-533.0","0","0","67366","","null","","","null","59","","","","","","","","","","","","","","","",""
"","ISI","","html-keyboard-response","399","590487","0.0-1.0-534.0","0","0","67366","","null","","","null","59","NaN","","","","","","","","","","","","","","",""
"","S2","","html-keyboard-response","400","590640","0.0-1.0-535.0","0","0","67366","","null","","","null","59","","NaN","","","","","","","","","","","","","",""
"","response","","html-keyboard-response","401","591125","0.0-1.0-536.0-0.0","0","0","67366","","482","","","68","59","","","2","59","training","adjacent","ED","5","4","L.jpg","M.jpg","1","0","0","",""
"","feedback","","html-keyboard-response","402","592127","0.0-1.0-537.0-0.0","0","0","67366","","null","","","null","59","","","","","","","","","","","","","","","",""
"","time_out","","html-keyboard-response","403","594131","0.0-1.0-539.0-0.0","0","0","67366","","null","","","null","59","","","","","","","","","","","","","","","",""
"","ITI","","html-keyboard-response","404","595137","0.0-1.0-540.0","0","0","67366","","null","","","null","59","","","","","","","","","","","","","","","NaN",""
"","S1","","html-keyboard-response","405","595290","0.0-1.0-542.0","0","0","67366","","null","","","null","60","","","","","","","","","","","","","","","",""
"","ISI","","html-keyboard-response","406","597293","0.0-1.0-543.0","0","0","67366","","null","","","null","60","NaN","","","","","","","","","","","","","","",""
"","S2","","html-keyboard-response","407","597446","0.0-1.0-544.0","0","0","67366","","null","","","null","60","","NaN","","","","","","","","","","","","","",""
"","response","","html-keyboard-response","408","597836","0.0-1.0-545.0-0.0","0","0","67366","","388","","","75","60","","","2","60","training","adjacent","DE","4","5","M.jpg","L.jpg","0","1","0","",""
"","feedback","","html-keyboard-response","409","598840","0.0-1.0-546.0-0.0","0","0","67366","","null","","","null","60","","","","","","","","","","","","","","","",""
"","time_out","","html-keyboard-response","410","600844","0.0-1.0-548.0-0.0","0","0","67366","","null","","","null","60","","","","","","","","","","","","","","","",""
"","ITI","","html-keyboard-response","411","601848","0.0-1.0-549.0","0","0","67366","","null","","","null","60","","","","","","","","","","","","","","","NaN",""
"","S1","","html-keyboard-response","412","602001","0.0-1.0-551.0","0","0","67366","","null","","","null","61","","","","","","","","","","","","","","","",""
"","ISI","","html-keyboard-response","413","604004","0.0-1.0-552.0","0","0","67366","","null","","","null","61","NaN","","","","","","","","","","","","","","",""
"","S2","","html-keyboard-response","414","604158","0.0-1.0-553.0","0","0","67366","","null","","","null","61","","NaN","","","","","","","","","","","","","",""
"","response","","html-keyboard-response","415","604748","0.0-1.0-554.0-0.0","0","0","67366","","589","","","68","61","","","2","61","training","adjacent","CD","3","4","N.jpg","M.jpg","1","1","1","",""
"","feedback","","html-keyboard-response","416","605752","0.0-1.0-555.0-0.0","0","0","67366","","null","","","null","61","","","","","","","","","","","","","","","",""
"","ITI","","html-keyboard-response","417","606755","0.0-1.0-558.0","0","0","67366","","null","","","null","61","","","","","","","","","","","","","","","NaN",""
"","S1","","html-keyboard-response","418","606908","0.0-1.0-560.0","0","0","67366","","null","","","null","62","","","","","","","","","","","","","","","",""
"","ISI","","html-keyboard-response","419","608911","0.0-1.0-561.0","0","0","67366","","null","","","null","62","NaN","","","","","","","","","","","","","","",""
"","S2","","html-keyboard-response","420","609063","0.0-1.0-562.0","0","0","67366","","null","","","null","62","","NaN","","","","","","","","","","","","","",""
"","response","","html-keyboard-response","421","609468","0.0-1.0-563.0-0.0","0","0","67366","","403","","","75","62","","","2","62","training","adjacent","GF","7","6","O.jpg","P.jpg","0","0","1","",""
"","feedback","","html-keyboard-response","422","610472","0.0-1.0-564.0-0.0","0","0","67366","","null","","","null","62","","","","","","","","","","","","","","","",""
"","ITI","","html-keyboard-response","423","611475","0.0-1.0-567.0","0","0","67366","","null","","","null","62","","","","","","","","","","","","","","","NaN",""
"","S1","","html-keyboard-response","424","611628","0.0-1.0-569.0","0","0","67366","","null","","","null","63","","","","","","","","","","","","","","","",""
"","ISI","","html-keyboard-response","425","613631","0.0-1.0-570.0","0","0","67366","","null","","","null","63","NaN","","","","","","","","","","","","","","",""
"","S2","","html-keyboard-response","426","613783","0.0-1.0-571.0","0","0","67366","","null","","","null","63","","NaN","","","","","","","","","","","","","",""
"","response","","html-keyboard-response","427","614268","0.0-1.0-572.0-0.0","0","0","67366","","483","","","68","63","","","2","63","training","adjacent","GF","7","6","O.jpg","P.jpg","1","0","0","",""
"","feedback","","html-keyboard-response","428","615271","0.0-1.0-573.0-0.0","0","0","67366","","null","","","null","63","","","","","","","","","","","","","","","",""
"","time_out","","html-keyboard-response","429","617274","0.0-1.0-575.0-0.0","0","0","67366","","null","","","null","63","","","","","","","","","","","","","","","",""
"","ITI","","html-keyboard-response","430","618278","0.0-1.0-576.0","0","0","67366","","null","","","null","63","","","","","","","","","","","","","","","NaN",""
"","S1","","html-keyboard-response","431","618430","0.0-1.0-578.0","0","0","67366","","null","","","null","64","","","","","","","","","","","","","","","",""
"","ISI","","html-keyboard-response","432","620433","0.0-1.0-579.0","0","0","67366","","null","","","null","64","NaN","","","","","","","","","","","","","","",""
"","S2","","html-keyboard-response","433","620586","0.0-1.0-580.0","0","0","67366","","null","","","null","64","","NaN","","","","","","","","","","","","","",""
"","response","","html-keyboard-response","434","621169","0.0-1.0-581.0-0.0","0","0","67366","","581","","","75","64","","","2","64","training","adjacent","FG","6","7","P.jpg","O.jpg","0","1","0","",""
"","feedback","","html-keyboard-response","435","622171","0.0-1.0-582.0-0.0","0","0","67366","","null","","","null","64","","","","","","","","","","","","","","","",""
"","time_out","","html-keyboard-response","436","624175","0.0-1.0-584.0-0.0","0","0","67366","","null","","","null","64","","","","","","","","","","","","","","","",""
"","ITI","","html-keyboard-response","437","625178","0.0-1.0-585.0","0","0","67366","","null","","","null","64","","","","","","","","","","","","","","","NaN",""
"","S1","","html-keyboard-response","438","625330","0.0-1.0-587.0","0","0","67366","","null","","","null","65","","","","","","","","","","","","","","","",""
"","ISI","","html-keyboard-response","439","627334","0.0-1.0-588.0","0","0","67366","","null","","","null","65","NaN","","","","","","","","","","","","","","",""
"","S2","","html-keyboard-response","440","627487","0.0-1.0-589.0","0","0","67366","","null","","","null","65","","NaN","","","","","","","","","","","","","",""
"","response","","html-keyboard-response","441","627796","0.0-1.0-590.0-0.0","0","0","67366","","308","","","75","65","","","2","65","training","adjacent","BC","2","3","R.jpg","N.jpg","0","1","0","",""
"","feedback","","html-keyboard-response","442","628799","0.0-1.0-591.0-0.0","0","0","67366","","null","","","null","65","","","","","","","","","","","","","","","",""
"","time_out","","html-keyboard-response","443","630803","0.0-1.0-593.0-0.0","0","0","67366","","null","","","null","65","","","","","","","","","","","","","","","",""
"","ITI","","html-keyboard-response","444","631805","0.0-1.0-594.0","0","0","67366","","null","","","null","65","","","","","","","","","","","","","","","NaN",""
"","S1","","html-keyboard-response","445","631957","0.0-1.0-596.0","0","0","67366","","null","","","null","66","","","","","","","","","","","","","","","",""
"","ISI","","html-keyboard-response","446","633960","0.0-1.0-597.0","0","0","67366","","null","","","null","66","NaN","","","","","","","","","","","","","","",""
"","S2","","html-keyboard-response","447","634113","0.0-1.0-598.0","0","0","67366","","null","","","null","66","","NaN","","","","","","","","","","","","","",""
"","response","","html-keyboard-response","448","634428","0.0-1.0-599.0-0.0","0","0","67366","","313","","","68","66","","","2","66","training","adjacent","DC","4","3","M.jpg","N.jpg","1","0","0","",""
"","feedback","","html-keyboard-response","449","635431","0.0-1.0-600.0-0.0","0","0","67366","","null","","","null","66","","","","","","","","","","","","","","","",""
"","time_out","","html-keyboard-response","450","637434","0.0-1.0-602.0-0.0","0","0","67366","","null","","","null","66","","","","","","","","","","","","","","","",""
"","ITI","","html-keyboard-response","451","638437","0.0-1.0-603.0","0","0","67366","","null","","","null","66","","","","","","","","","","","","","","","NaN",""
"","S1","","html-keyboard-response","452","638590","0.0-1.0-605.0","0","0","67366","","null","","","null","67","","","","","","","","","","","","","","","",""
"","ISI","","html-keyboard-response","453","640594","0.0-1.0-606.0","0","0","67366","","null","","","null","67","NaN","","","","","","","","","","","","","","",""
"","S2","","html-keyboard-response","454","640747","0.0-1.0-607.0","0","0","67366","","null","","","null","67","","NaN","","","","","","","","","","","","","",""
"","response","","html-keyboard-response","455","641268","0.0-1.0-608.0-0.0","0","0","67366","","519","","","68","67","","","2","67","training","adjacent","FE","6","5","P.jpg","L.jpg","1","0","0","",""
"","feedback","","html-keyboard-response","456","642271","0.0-1.0-609.0-0.0","0","0","67366","","null","","","null","67","","","","","","","","","","","","","","","",""
"","time_out","","html-keyboard-response","457","644277","0.0-1.0-611.0-0.0","0","0","67366","","null","","","null","67","","","","","","","","","","","","","","","",""
"","ITI","","html-keyboard-response","458","645279","0.0-1.0-612.0","0","0","67366","","null","","","null","67","","","","","","","","","","","","","","","NaN",""
"","S1","","html-keyboard-response","459","645433","0.0-1.0-614.0","0","0","67366","","null","","","null","68","","","","","","","","","","","","","","","",""
"","ISI","","html-keyboard-response","460","647438","0.0-1.0-615.0","0","0","67366","","null","","","null","68","NaN","","","","","","","","","","","","","","",""
"","S2","","html-keyboard-response","461","647591","0.0-1.0-616.0","0","0","67366","","null","","","null","68","","NaN","","","","","","","","","","","","","",""
"","response","","html-keyboard-response","462","648116","0.0-1.0-617.0-0.0","0","0","67366","","523","","","75","68","","","2","68","training","adjacent","CD","3","4","N.jpg","M.jpg","0","1","0","",""
"","feedback","","html-keyboard-response","463","649121","0.0-1.0-618.0-0.0","0","0","67366","","null","","","null","68","","","","","","","","","","","","","","","",""
"","time_out","","html-keyboard-response","464","651123","0.0-1.0-620.0-0.0","0","0","67366","","null","","","null","68","","","","","","","","","","","","","","","",""
"","ITI","","html-keyboard-response","465","652127","0.0-1.0-621.0","0","0","67366","","null","","","null","68","","","","","","","","","","","","","","","NaN",""
"","S1","","html-keyboard-response","466","652279","0.0-1.0-623.0","0","0","67366","","null","","","null","69","","","","","","","","","","","","","","","",""
"","ISI","","html-keyboard-response","467","654301","0.0-1.0-624.0","0","0","67366","","null","","","null","69","NaN","","","","","","","","","","","","","","",""
"","S2","","html-keyboard-response","468","654454","0.0-1.0-625.0","0","0","67366","","null","","","null","69","","NaN","","","","","","","","","","","","","",""
"","response","","html-keyboard-response","469","655124","0.0-1.0-626.0-0.0","0","0","67366","","668","","","75","69","","","2","69","training","adjacent","DC","4","3","M.jpg","N.jpg","0","0","1","",""
"","feedback","","html-keyboard-response","470","656132","0.0-1.0-627.0-0.0","0","0","67366","","null","","","null","69","","","","","","","","","","","","","","","",""
"","ITI","","html-keyboard-response","471","657137","0.0-1.0-630.0","0","0","67366","","null","","","null","69","","","","","","","","","","","","","","","NaN",""
"","S1","","html-keyboard-response","472","657290","0.0-1.0-632.0","0","0","67366","","null","","","null","70","","","","","","","","","","","","","","","",""
"","ISI","","html-keyboard-response","473","659294","0.0-1.0-633.0","0","0","67366","","null","","","null","70","NaN","","","","","","","","","","","","","","",""
"","S2","","html-keyboard-response","474","659461","0.0-1.0-634.0","0","0","67366","","null","","","null","70","","NaN","","","","","","","","","","","","","",""
"","response","","html-keyboard-response","475","659788","0.0-1.0-635.0-0.0","0","0","67366","","324","","","68","70","","","2","70","training","adjacent","EF","5","6","L.jpg","P.jpg","1","1","1","",""
"","feedback","","html-keyboard-response","476","660791","0.0-1.0-636.0-0.0","0","0","67366","","null","","","null","70","","","","","","","","","","","","","","","",""
"","ITI","","html-keyboard-response","477","661795","0.0-1.0-639.0","0","0","67366","","null","","","null","70","","","","","","","","","","","","","","","NaN",""
"","S1","","html-keyboard-response","478","661948","0.0-1.0-641.0","0","0","67366","","null","","","null","71","","","","","","","","","","","","","","","",""
"","ISI","","html-keyboard-response","479","663951","0.0-1.0-642.0","0","0","67366","","null","","","null","71","NaN","","","","","","","","","","","","","","",""
"","S2","","html-keyboard-response","480","664104","0.0-1.0-643.0","0","0","67366","","null","","","null","71","","NaN","","","","","","","","","","","","","",""
"","response","","html-keyboard-response","481","664724","0.0-1.0-644.0-0.0","0","0","67366","","617","","","75","71","","","2","71","training","adjacent","CD","3","4","N.jpg","M.jpg","0","1","0","",""
"","feedback","","html-keyboard-response","482","665727","0.0-1.0-645.0-0.0","0","0","67366","","null","","","null","71","","","","","","","","","","","","","","","",""
"","time_out","","html-keyboard-response","483","667784","0.0-1.0-647.0-0.0","0","0","67366","","null","","","null","71","","","","","","","","","","","","","","","",""
"","ITI","","html-keyboard-response","484","668788","0.0-1.0-648.0","0","0","67366","","null","","","null","71","","","","","","","","","","","","","","","NaN",""
"","S1","","html-keyboard-response","485","668941","0.0-1.0-650.0","0","0","67366","","null","","","null","72","","","","","","","","","","","","","","","",""
"","ISI","","html-keyboard-response","486","670943","0.0-1.0-651.0","0","0","67366","","null","","","null","72","NaN","","","","","","","","","","","","","","",""
"","S2","","html-keyboard-response","487","671096","0.0-1.0-652.0","0","0","67366","","null","","","null","72","","NaN","","","","","","","","","","","","","",""
"","response","","html-keyboard-response","488","671508","0.0-1.0-653.0-0.0","0","0","67366","","409","","","68","72","","","2","72","training","adjacent","CB","3","2","N.jpg","R.jpg","1","0","0","",""
"","feedback","","html-keyboard-response","489","672511","0.0-1.0-654.0-0.0","0","0","67366","","null","","","null","72","","","","","","","","","","","","","","","",""
"","time_out","","html-keyboard-response","490","674515","0.0-1.0-656.0-0.0","0","0","67366","","null","","","null","72","","","","","","","","","","","","","","","",""
"","ITI","","html-keyboard-response","491","675518","0.0-1.0-657.0","0","0","67366","","null","","","null","72","","","","","","","","","","","","","","","NaN",""
"","S1","","html-keyboard-response","492","675671","0.0-1.0-659.0","0","0","67366","","null","","","null","73","","","","","","","","","","","","","","","",""
"","ISI","","html-keyboard-response","493","677673","0.0-1.0-660.0","0","0","67366","","null","","","null","73","NaN","","","","","","","","","","","","","","",""
"","S2","","html-keyboard-response","494","677826","0.0-1.0-661.0","0","0","67366","","null","","","null","73","","NaN","","","","","","","","","","","","","",""
"","response","","html-keyboard-response","495","678148","0.0-1.0-662.0-0.0","0","0","67366","","320","","","75","73","","","2","73","training","adjacent","DE","4","5","M.jpg","L.jpg","0","1","0","",""
"","feedback","","html-keyboard-response","496","679151","0.0-1.0-663.0-0.0","0","0","67366","","null","","","null","73","","","","","","","","","","","","","","","",""
"","time_out","","html-keyboard-response","497","681178","0.0-1.0-665.0-0.0","0","0","67366","","null","","","null","73","","","","","","","","","","","","","","","",""
"","ITI","","html-keyboard-response","498","682181","0.0-1.0-666.0","0","0","67366","","null","","","null","73","","","","","","","","","","","","","","","NaN",""
"","S1","","html-keyboard-response","499","682334","0.0-1.0-668.0","0","0","67366","","null","","","null","74","","","","","","","","","","","","","","","",""
"","ISI","","html-keyboard-response","500","684338","0.0-1.0-669.0","0","0","67366","","null","","","null","74","NaN","","","","","","","","","","","","","","",""
"","S2","","html-keyboard-response","501","684491","0.0-1.0-670.0","0","0","67366","","null","","","null","74","","NaN","","","","","","","","","","","","","",""
"","response","","html-keyboard-response","502","684948","0.0-1.0-671.0-0.0","0","0","67366","","454","","","68","74","","","2","74","training","adjacent","BA","2","1","R.jpg","Q.jpg","1","0","0","",""
"","feedback","","html-keyboard-response","503","685951","0.0-1.0-672.0-0.0","0","0","67366","","null","","","null","74","","","","","","","","","","","","","","","",""
"","time_out","","html-keyboard-response","504","687954","0.0-1.0-674.0-0.0","0","0","67366","","null","","","null","74","","","","","","","","","","","","","","","",""
"","ITI","","html-keyboard-response","505","688958","0.0-1.0-675.0","0","0","67366","","null","","","null","74","","","","","","","","","","","","","","","NaN",""
"","S1","","html-keyboard-response","506","689111","0.0-1.0-677.0","0","0","67366","","null","","","null","75","","","","","","","","","","","","","","","",""
"","ISI","","html-keyboard-response","507","691114","0.0-1.0-678.0","0","0","67366","","null","","","null","75","NaN","","","","","","","","","","","","","","",""
"","S2","","html-keyboard-response","508","691266","0.0-1.0-679.0","0","0","67366","","null","","","null","75","","NaN","","","","","","","","","","","","","",""
"","response","","html-keyboard-response","509","691603","0.0-1.0-680.0-0.0","0","0","67366","","335","","","75","75","","","2","75","training","adjacent","CB","3","2","N.jpg","R.jpg","0","0","1","",""
"","feedback","","html-keyboard-response","510","692607","0.0-1.0-681.0-0.0","0","0","67366","","null","","","null","75","","","","","","","","","","","","","","","",""
"","ITI","","html-keyboard-response","511","693610","0.0-1.0-684.0","0","0","67366","","null","","","null","75","","","","","","","","","","","","","","","NaN",""
"","S1","","html-keyboard-response","512","693802","0.0-1.0-686.0","0","0","67366","","null","","","null","76","","","","","","","","","","","","","","","",""
"","ISI","","html-keyboard-response","513","695804","0.0-1.0-687.0","0","0","67366","","null","","","null","76","NaN","","","","","","","","","","","","","","",""
"","S2","","html-keyboard-response","514","695957","0.0-1.0-688.0","0","0","67366","","null","","","null","76","","NaN","","","","","","","","","","","","","",""
"","response","","html-keyboard-response","515","696396","0.0-1.0-689.0-0.0","0","0","67366","","436","","","75","76","","","2","76","training","adjacent","ED","5","4","L.jpg","M.jpg","0","0","1","",""
"","feedback","","html-keyboard-response","516","697401","0.0-1.0-690.0-0.0","0","0","67366","","null","","","null","76","","","","","","","","","","","","","","","",""
"","ITI","","html-keyboard-response","517","698404","0.0-1.0-693.0","0","0","67366","","null","","","null","76","","","","","","","","","","","","","","","NaN",""
"","S1","","html-keyboard-response","518","698557","0.0-1.0-695.0","0","0","67366","","null","","","null","77","","","","","","","","","","","","","","","",""
"","ISI","","html-keyboard-response","519","700560","0.0-1.0-696.0","0","0","67366","","null","","","null","77","NaN","","","","","","","","","","","","","","",""
"","S2","","html-keyboard-response","520","700713","0.0-1.0-697.0","0","0","67366","","null","","","null","77","","NaN","","","","","","","","","","","","","",""
"","response","","html-keyboard-response","521","701179","0.0-1.0-698.0-0.0","0","0","67366","","464","","","75","77","","","2","77","training","adjacent","FG","6","7","P.jpg","O.jpg","0","1","0","",""
"","feedback","","html-keyboard-response","522","702183","0.0-1.0-699.0-0.0","0","0","67366","","null","","","null","77","","","","","","","","","","","","","","","",""
"","time_out","","html-keyboard-response","523","704186","0.0-1.0-701.0-0.0","0","0","67366","","null","","","null","77","","","","","","","","","","","","","","","",""
"","ITI","","html-keyboard-response","524","705193","0.0-1.0-702.0","0","0","67366","","null","","","null","77","","","","","","","","","","","","","","","NaN",""
"","S1","","html-keyboard-response","525","705358","0.0-1.0-704.0","0","0","67366","","null","","","null","78","","","","","","","","","","","","","","","",""
"","ISI","","html-keyboard-response","526","707360","0.0-1.0-705.0","0","0","67366","","null","","","null","78","NaN","","","","","","","","","","","","","","",""
"","S2","","html-keyboard-response","527","707513","0.0-1.0-706.0","0","0","67366","","null","","","null","78","","NaN","","","","","","","","","","","","","",""
"","response","","html-keyboard-response","528","707749","0.0-1.0-707.0-0.0","0","0","67366","","233","","","68","78","","","2","78","training","adjacent","GF","7","6","O.jpg","P.jpg","1","0","0","",""
"","feedback","","html-keyboard-response","529","708751","0.0-1.0-708.0-0.0","0","0","67366","","null","","","null","78","","","","","","","","","","","","","","","",""
"","time_out","","html-keyboard-response","530","710755","0.0-1.0-710.0-0.0","0","0","67366","","null","","","null","78","","","","","","","","","","","","","","","",""
"","ITI","","html-keyboard-response","531","711757","0.0-1.0-711.0","0","0","67366","","null","","","null","78","","","","","","","","","","","","","","","NaN",""
"","S1","","html-keyboard-response","532","711911","0.0-1.0-713.0","0","0","67366","","null","","","null","79","","","","","","","","","","","","","","","",""
"","ISI","","html-keyboard-response","533","713914","0.0-1.0-714.0","0","0","67366","","null","","","null","79","NaN","","","","","","","","","","","","","","",""
"","S2","","html-keyboard-response","534","714066","0.0-1.0-715.0","0","0","67366","","null","","","null","79","","NaN","","","","","","","","","","","","","",""
"","response","","html-keyboard-response","535","714219","0.0-1.0-716.0-0.0","0","0","67366","","151","","","75","79","","","2","79","training","adjacent","EF","5","6","L.jpg","P.jpg","0","1","0","",""
"","feedback","","html-keyboard-response","536","715225","0.0-1.0-717.0-0.0","0","0","67366","","null","","","null","79","","","","","","","","","","","","","","","",""
"","time_out","","html-keyboard-response","537","717228","0.0-1.0-719.0-0.0","0","0","67366","","null","","","null","79","","","","","","","","","","","","","","","",""
"","ITI","","html-keyboard-response","538","718231","0.0-1.0-720.0","0","0","67366","","null","","","null","79","","","","","","","","","","","","","","","NaN",""
"","S1","","html-keyboard-response","539","718384","0.0-1.0-722.0","0","0","67366","","null","","","null","80","","","","","","","","","","","","","","","",""
"","ISI","","html-keyboard-response","540","720397","0.0-1.0-723.0","0","0","67366","","null","","","null","80","NaN","","","","","","","","","","","","","","",""
"","S2","","html-keyboard-response","541","720550","0.0-1.0-724.0","0","0","67366","","null","","","null","80","","NaN","","","","","","","","","","","","","",""
"","response","","html-keyboard-response","542","721084","0.0-1.0-725.0-0.0","0","0","67366","","531","","","75","80","","","2","80","training","adjacent","BA","2","1","R.jpg","Q.jpg","0","0","1","",""
"","feedback","","html-keyboard-response","543","722126","0.0-1.0-726.0-0.0","0","0","67366","","null","","","null","80","","","","","","","","","","","","","","","",""
"","ITI","","html-keyboard-response","544","723129","0.0-1.0-729.0","0","0","67366","","null","","","null","80","","","","","","","","","","","","","","","NaN",""
"","S1","","html-keyboard-response","545","723283","0.0-1.0-731.0","0","0","67366","","null","","","null","81","","","","","","","","","","","","","","","",""
"","ISI","","html-keyboard-response","546","725286","0.0-1.0-732.0","0","0","67366","","null","","","null","81","NaN","","","","","","","","","","","","","","",""
"","S2","","html-keyboard-response","547","725439","0.0-1.0-733.0","0","0","67366","","null","","","null","81","","NaN","","","","","","","","","","","","","",""
"","response","","html-keyboard-response","548","725931","0.0-1.0-734.0-0.0","0","0","67366","","490","","","75","81","","","2","81","training","adjacent","BA","2","1","R.jpg","Q.jpg","0","0","1","",""
"","feedback","","html-keyboard-response","549","726934","0.0-1.0-735.0-0.0","0","0","67366","","null","","","null","81","","","","","","","","","","","","","","","",""
"","ITI","","html-keyboard-response","550","727937","0.0-1.0-738.0","0","0","67366","","null","","","null","81","","","","","","","","","","","","","","","NaN",""
"","S1","","html-keyboard-response","551","728090","0.0-1.0-740.0","0","0","67366","","null","","","null","82","","","","","","","","","","","","","","","",""
"","ISI","","html-keyboard-response","552","730092","0.0-1.0-741.0","0","0","67366","","null","","","null","82","NaN","","","","","","","","","","","","","","",""
"","S2","","html-keyboard-response","553","730246","0.0-1.0-742.0","0","0","67366","","null","","","null","82","","NaN","","","","","","","","","","","","","",""
"","response","","html-keyboard-response","554","730595","0.0-1.0-743.0-0.0","0","0","67366","","348","","","68","82","","","2","82","training","adjacent","AB","1","2","Q.jpg","R.jpg","1","1","1","",""
"","feedback","","html-keyboard-response","555","731599","0.0-1.0-744.0-0.0","0","0","67366","","null","","","null","82","","","","","","","","","","","","","","","",""
"","ITI","","html-keyboard-response","556","732605","0.0-1.0-747.0","0","0","67366","","null","","","null","82","","","","","","","","","","","","","","","NaN",""
"","S1","","html-keyboard-response","557","732758","0.0-1.0-749.0","0","0","67366","","null","","","null","83","","","","","","","","","","","","","","","",""
"","ISI","","html-keyboard-response","558","734760","0.0-1.0-750.0","0","0","67366","","null","","","null","83","NaN","","","","","","","","","","","","","","",""
"","S2","","html-keyboard-response","559","734915","0.0-1.0-751.0","0","0","67366","","null","","","null","83","","NaN","","","","","","","","","","","","","",""
"","response","","html-keyboard-response","560","735491","0.0-1.0-752.0-0.0","0","0","67366","","574","","","75","83","","","2","83","training","adjacent","FE","6","5","P.jpg","L.jpg","0","0","1","",""
"","feedback","","html-keyboard-response","561","736495","0.0-1.0-753.0-0.0","0","0","67366","","null","","","null","83","","","","","","","","","","","","","","","",""
"","ITI","","html-keyboard-response","562","737498","0.0-1.0-756.0","0","0","67366","","null","","","null","83","","","","","","","","","","","","","","","NaN",""
"","S1","","html-keyboard-response","563","737657","0.0-1.0-758.0","0","0","67366","","null","","","null","84","","","","","","","","","","","","","","","",""
"","ISI","","html-keyboard-response","564","739660","0.0-1.0-759.0","0","0","67366","","null","","","null","84","NaN","","","","","","","","","","","","","","",""
"","S2","","html-keyboard-response","565","739813","0.0-1.0-760.0","0","0","67366","","null","","","null","84","","NaN","","","","","","","","","","","","","",""
"","response","","html-keyboard-response","566","740091","0.0-1.0-761.0-0.0","0","0","67366","","277","","","68","84","","","2","84","training","adjacent","AB","1","2","Q.jpg","R.jpg","1","1","1","",""
"","feedback","","html-keyboard-response","567","741095","0.0-1.0-762.0-0.0","0","0","67366","","null","","","null","84","","","","","","","","","","","","","","","",""
"","ITI","","html-keyboard-response","568","742098","0.0-1.0-765.0","0","0","67366","","null","","","null","84","","","","","","","","","","","","","","","NaN",""
"","S1","","html-keyboard-response","569","742251","0.0-1.0-767.0","0","0","67366","","null","","","null","85","","","","","","","","","","","","","","","",""
"","ISI","","html-keyboard-response","570","744298","0.0-1.0-768.0","0","0","67366","","null","","","null","85","NaN","","","","","","","","","","","","","","",""
"","S2","","html-keyboard-response","571","744510","0.0-1.0-769.0","0","0","67366","","null","","","null","85","","NaN","","","","","","","","","","","","","",""
"","response","","html-keyboard-response","572","745099","0.0-1.0-770.0-0.0","0","0","67366","","586","","","75","85","","","2","85","training","adjacent","EF","5","6","L.jpg","P.jpg","0","1","0","",""
"","feedback","","html-keyboard-response","573","746159","0.0-1.0-771.0-0.0","0","0","67366","","null","","","null","85","","","","","","","","","","","","","","","",""
"","time_out","","html-keyboard-response","574","748162","0.0-1.0-773.0-0.0","0","0","67366","","null","","","null","85","","","","","","","","","","","","","","","",""
"","ITI","","html-keyboard-response","575","749165","0.0-1.0-774.0","0","0","67366","","null","","","null","85","","","","","","","","","","","","","","","NaN",""
"","S1","","html-keyboard-response","576","749320","0.0-1.0-776.0","0","0","67366","","null","","","null","86","","","","","","","","","","","","","","","",""
"","ISI","","html-keyboard-response","577","751322","0.0-1.0-777.0","0","0","67366","","null","","","null","86","NaN","","","","","","","","","","","","","","",""
"","S2","","html-keyboard-response","578","751476","0.0-1.0-778.0","0","0","67366","","null","","","null","86","","NaN","","","","","","","","","","","","","",""
"","response","","html-keyboard-response","579","751995","0.0-1.0-779.0-0.0","0","0","67366","","517","","","68","86","","","2","86","training","adjacent","CD","3","4","N.jpg","M.jpg","1","1","1","",""
"","feedback","","html-keyboard-response","580","752998","0.0-1.0-780.0-0.0","0","0","67366","","null","","","null","86","","","","","","","","","","","","","","","",""
