"success","ttype","start_time","trial_type","trial_index","time_elapsed","internal_node_id","warning","missed_checkup","PID","view_history","rt","responses","repeat_instructions","key_press","index","keypress_isi","keypress_S2","block","trial_num","phase","group_type","pair_type","S1_stim","S2_stim","S1_img","S2_img","S1_chosen","S1_higher","accuracy","keypress_iti","total_bonus_tally"
"true","full_screen","d03082023hr1432","fullscreen","0","8604","0.0-0.0","0","0","91010","","","","","","","","","","","","","","","","","","","","","",""
"","instructions","","instructions","1","33520","0.0-1.0-0.0-0.0","0","0","91010","[{""page_index"":0,""viewing_time"":2627},{""page_index"":1,""viewing_time"":10879},{""page_index"":2,""viewing_time"":3132},{""page_index"":1,""viewing_time"":1894},{""page_index"":2,""viewing_time"":4450},{""page_index"":3,""viewing_time"":1932}]","24914","","","","","","","","","","","","","","","","","","","",""
"","comprehension_check","","survey-multi-choice","2","49159","0.0-1.0-0.0-1.0","0","0","91010","","15636","{""Q0"":""True"",""Q1"":""D"",""Q2"":""Once the second image appears and while the screen 'MAKE A CHOICE' is shown"",""Q3"":""Green mark"",""Q4"":""either D or K""}","0","","","","","","","","","","","","","","","","","",""
"","start_exp","","html-keyboard-response","3","51066","0.0-1.0-1.0","0","0","91010","","1905","","","32","","","","","","","","","","","","","","","","",""
"","S1","","html-keyboard-response","4","51319","0.0-1.0-2.0","0","0","91010","","null","","","null","0","","","","","","","","","","","","","","","",""
"","ISI","","html-keyboard-response","5","51471","0.0-1.0-3.0","0","0","91010","","null","","","null","0","NaN","","","","","","","","","","","","","","",""
"","S2","","html-keyboard-response","6","51724","0.0-1.0-4.0","0","0","91010","","null","","","null","0","","NaN","","","","","","","","","","","","","",""
"","response","","html-keyboard-response","7","51818","0.0-1.0-5.0-0.0","0","0","91010","","93","","","75","0","","","1","0","training","adjacent","AB","1","2","L.jpg","N.jpg","0","1","0","",""
"","feedback","","html-keyboard-response","8","52821","0.0-1.0-6.0-0.0","0","0","91010","","null","","","null","0","","","","","","","","","","","","","","","",""
"","time_out","","html-keyboard-response","9","54823","0.0-1.0-8.0-0.0","0","0","91010","","null","","","null","0","","","","","","","","","","","","","","","",""
"","ITI","","html-keyboard-response","10","55825","0.0-1.0-9.0","0","0","91010","","250","","","75","0","","","","","","","","","","","","","","","k",""
"","S1","","html-keyboard-response","11","56078","0.0-1.0-11.0","0","0","91010","","null","","","null","1","","","","","","","","","","","","","","","",""
"","ISI","","html-keyboard-response","12","56229","0.0-1.0-12.0","0","0","91010","","null","","","null","1","NaN","","","","","","","","","","","","","","",""
"","S2","","html-keyboard-response","13","56481","0.0-1.0-13.0","0","0","91010","","null","","","null","1","","NaN","","","","","","","","","","","","","",""
"","response","","html-keyboard-response","14","56589","0.0-1.0-14.0-0.0","0","0","91010","","107","","","68","1","","","1","1","training","adjacent","CD","3","4","P.jpg","O.jpg","1","1","1","",""
"","feedback","","html-keyboard-response","15","57591","0.0-1.0-15.0-0.0","0","0","91010","","null","","","null","1","","","","","","","","","","","","","","","",""
"","ITI","","html-keyboard-response","16","58593","0.0-1.0-18.0","0","0","91010","","null","","","null","1","","","","","","","","","","","","","","","NaN",""
"","S1","","html-keyboard-response","17","58845","0.0-1.0-20.0","0","0","91010","","null","","","null","2","","","","","","","","","","","","","","","",""
"","ISI","","html-keyboard-response","18","58997","0.0-1.0-21.0","0","0","91010","","null","","","null","2","NaN","","","","","","","","","","","","","","",""
"","S2","","html-keyboard-response","19","59250","0.0-1.0-22.0","0","0","91010","","null","","","null","2","","NaN","","","","","","","","","","","","","",""
"","response","","html-keyboard-response","20","59490","0.0-1.0-23.0-0.0","0","0","91010","","240","","","75","2","","","1","2","training","adjacent","CD","3","4","P.jpg","O.jpg","0","1","0","",""
"","feedback","","html-keyboard-response","21","60492","0.0-1.0-24.0-0.0","0","0","91010","","null","","","null","2","","","","","","","","","","","","","","","",""
"","time_out","","html-keyboard-response","22","62495","0.0-1.0-26.0-0.0","0","0","91010","","null","","","null","2","","","","","","","","","","","","","","","",""
"","ITI","","html-keyboard-response","23","63497","0.0-1.0-27.0","0","0","91010","","18","","","32","2","","","","","","","","","","","","","","","space",""
"","S1","","html-keyboard-response","24","63749","0.0-1.0-29.0","0","0","91010","","null","","","null","3","","","","","","","","","","","","","","","",""
"","ISI","","html-keyboard-response","25","63900","0.0-1.0-30.0","0","0","91010","","null","","","null","3","NaN","","","","","","","","","","","","","","",""
"","S2","","html-keyboard-response","26","64153","0.0-1.0-31.0","0","0","91010","","null","","","null","3","","NaN","","","","","","","","","","","","","",""
"","response","","html-keyboard-response","27","64473","0.0-1.0-32.0-0.0","0","0","91010","","320","","","68","3","","","1","3","training","adjacent","DE","4","5","O.jpg","R.jpg","1","1","1","",""
"","feedback","","html-keyboard-response","28","65475","0.0-1.0-33.0-0.0","0","0","91010","","null","","","null","3","","","","","","","","","","","","","","","",""
"","ITI","","html-keyboard-response","29","66478","0.0-1.0-36.0","0","0","91010","","null","","","null","3","","","","","","","","","","","","","","","NaN",""
"","S1","","html-keyboard-response","30","66731","0.0-1.0-38.0","0","0","91010","","null","","","null","4","","","","","","","","","","","","","","","",""
"","ISI","","html-keyboard-response","31","66883","0.0-1.0-39.0","0","0","91010","","null","","","null","4","NaN","","","","","","","","","","","","","","",""
"","S2","","html-keyboard-response","32","67135","0.0-1.0-40.0","0","0","91010","","null","","","null","4","","NaN","","","","","","","","","","","","","",""
"","response","","html-keyboard-response","33","67388","0.0-1.0-41.0-0.0","0","0","91010","","252","","","68","4","","","1","4","training","adjacent","FE","6","5","Q.jpg","R.jpg","1","0","0","",""
"","feedback","","html-keyboard-response","34","68390","0.0-1.0-42.0-0.0","0","0","91010","","null","","","null","4","","","","","","","","","","","","","","","",""
"","time_out","","html-keyboard-response","35","70391","0.0-1.0-44.0-0.0","0","0","91010","","null","","","null","4","","","","","","","","","","","","","","","",""
"","ITI","","html-keyboard-response","36","71393","0.0-1.0-45.0","0","0","91010","","null","","","null","4","","","","","","","","","","","","","","","NaN",""
"","S1","","html-keyboard-response","37","71646","0.0-1.0-47.0","0","0","91010","","null","","","null","5","","","","","","","","","","","","","","","",""
"","ISI","","html-keyboard-response","38","71798","0.0-1.0-48.0","0","0","91010","","null","","","null","5","NaN","","","","","","","","","","","","","","",""
"","S2","","html-keyboard-response","39","72033","0.0-1.0-49.0","0","0","91010","","235","","","75","5","","k","1","5","training","adjacent","BC","2","3","N.jpg","P.jpg","0","1","0","",""
"","feedback","","html-keyboard-response","40","73035","0.0-1.0-51.0-0.0","0","0","91010","","null","","","null","5","","","","","","","","","","","","","","","",""
"","time_out","","html-keyboard-response","41","75037","0.0-1.0-53.0-0.0","0","0","91010","","null","","","null","5","","","","","","","","","","","","","","","",""
"","ITI","","html-keyboard-response","42","76039","0.0-1.0-54.0","0","0","91010","","556","","","32","5","","","","","","","","","","","","","","","space",""
"","S1","","html-keyboard-response","43","76291","0.0-1.0-56.0","0","0","91010","","null","","","null","6","","","","","","","","","","","","","","","",""
"","ISI","","html-keyboard-response","44","76444","0.0-1.0-57.0","0","0","91010","","null","","","null","6","NaN","","","","","","","","","","","","","","",""
"","S2","","html-keyboard-response","45","76696","0.0-1.0-58.0","0","0","91010","","null","","","null","6","","NaN","","","","","","","","","","","","","",""
"","response","","html-keyboard-response","46","76746","0.0-1.0-59.0-0.0","0","0","91010","","49","","","68","6","","","1","6","training","adjacent","CB","3","2","P.jpg","N.jpg","1","0","0","",""
"","feedback","","html-keyboard-response","47","77749","0.0-1.0-60.0-0.0","0","0","91010","","null","","","null","6","","","","","","","","","","","","","","","",""
"","time_out","","html-keyboard-response","48","79751","0.0-1.0-62.0-0.0","0","0","91010","","null","","","null","6","","","","","","","","","","","","","","","",""
"","ITI","","html-keyboard-response","49","80754","0.0-1.0-63.0","0","0","91010","","null","","","null","6","","","","","","","","","","","","","","","NaN",""
"","S1","","html-keyboard-response","50","81006","0.0-1.0-65.0","0","0","91010","","null","","","null","7","","","","","","","","","","","","","","","",""
"","ISI","","html-keyboard-response","51","81157","0.0-1.0-66.0","0","0","91010","","null","","","null","7","NaN","","","","","","","","","","","","","","",""
"","S2","","html-keyboard-response","52","81410","0.0-1.0-67.0","0","0","91010","","null","","","null","7","","NaN","","","","","","","","","","","","","",""
"","response","","html-keyboard-response","53","81572","0.0-1.0-68.0-0.0","0","0","91010","","162","","","68","7","","","1","7","training","adjacent","EF","5","6","R.jpg","Q.jpg","1","1","1","",""
"","feedback","","html-keyboard-response","54","82575","0.0-1.0-69.0-0.0","0","0","91010","","null","","","null","7","","","","","","","","","","","","","","","",""
"","ITI","","html-keyboard-response","55","83577","0.0-1.0-72.0","0","0","91010","","null","","","null","7","","","","","","","","","","","","","","","NaN",""
"","S1","","html-keyboard-response","56","83830","0.0-1.0-74.0","0","0","91010","","null","","","null","8","","","","","","","","","","","","","","","",""
"","ISI","","html-keyboard-response","57","83982","0.0-1.0-75.0","0","0","91010","","null","","","null","8","NaN","","","","","","","","","","","","","","",""
"","S2","","html-keyboard-response","58","84235","0.0-1.0-76.0","0","0","91010","","null","","","null","8","","NaN","","","","","","","","","","","","","",""
"","response","","html-keyboard-response","59","84298","0.0-1.0-77.0-0.0","0","0","91010","","62","","","68","8","","","1","8","training","adjacent","BA","2","1","N.jpg","L.jpg","1","0","0","",""
"","feedback","","html-keyboard-response","60","85299","0.0-1.0-78.0-0.0","0","0","91010","","null","","","null","8","","","","","","","","","","","","","","","",""
"","time_out","","html-keyboard-response","61","87302","0.0-1.0-80.0-0.0","0","0","91010","","null","","","null","8","","","","","","","","","","","","","","","",""
"","ITI","","html-keyboard-response","62","88304","0.0-1.0-81.0","0","0","91010","","null","","","null","8","","","","","","","","","","","","","","","NaN",""
"","S1","","html-keyboard-response","63","88556","0.0-1.0-83.0","0","0","91010","","null","","","null","9","","","","","","","","","","","","","","","",""
"","ISI","","html-keyboard-response","64","88709","0.0-1.0-84.0","0","0","91010","","null","","","null","9","NaN","","","","","","","","","","","","","","",""
"","S2","","html-keyboard-response","65","88962","0.0-1.0-85.0","0","0","91010","","null","","","null","9","","NaN","","","","","","","","","","","","","",""
"","response","","html-keyboard-response","66","89098","0.0-1.0-86.0-0.0","0","0","91010","","135","","","75","9","","","1","9","training","adjacent","DC","4","3","O.jpg","P.jpg","0","0","1","",""
"","feedback","","html-keyboard-response","67","90101","0.0-1.0-87.0-0.0","0","0","91010","","null","","","null","9","","","","","","","","","","","","","","","",""
"","ITI","","html-keyboard-response","68","91103","0.0-1.0-90.0","0","0","91010","","null","","","null","9","","","","","","","","","","","","","","","NaN",""
"","S1","","html-keyboard-response","69","91355","0.0-1.0-92.0","0","0","91010","","null","","","null","10","","","","","","","","","","","","","","","",""
"","ISI","","html-keyboard-response","70","91508","0.0-1.0-93.0","0","0","91010","","null","","","null","10","NaN","","","","","","","","","","","","","","",""
"","S2","","html-keyboard-response","71","91760","0.0-1.0-94.0","0","0","91010","","null","","","null","10","","NaN","","","","","","","","","","","","","",""
"","response","","html-keyboard-response","72","91917","0.0-1.0-95.0-0.0","0","0","91010","","156","","","68","10","","","1","10","training","adjacent","ED","5","4","R.jpg","O.jpg","1","0","0","",""
"","feedback","","html-keyboard-response","73","92920","0.0-1.0-96.0-0.0","0","0","91010","","null","","","null","10","","","","","","","","","","","","","","","",""
"","time_out","","html-keyboard-response","74","94921","0.0-1.0-98.0-0.0","0","0","91010","","null","","","null","10","","","","","","","","","","","","","","","",""
"","ITI","","html-keyboard-response","75","95923","0.0-1.0-99.0","0","0","91010","","null","","","null","10","","","","","","","","","","","","","","","NaN",""
"","S1","","html-keyboard-response","76","96175","0.0-1.0-101.0","0","0","91010","","null","","","null","11","","","","","","","","","","","","","","","",""
"","ISI","","html-keyboard-response","77","96327","0.0-1.0-102.0","0","0","91010","","null","","","null","11","NaN","","","","","","","","","","","","","","",""
"","S2","","html-keyboard-response","78","96580","0.0-1.0-103.0","0","0","91010","","null","","","null","11","","NaN","","","","","","","","","","","","","",""
"","response","","html-keyboard-response","79","96754","0.0-1.0-104.0-0.0","0","0","91010","","173","","","68","11","","","1","11","training","adjacent","CD","3","4","P.jpg","O.jpg","1","1","1","",""
"","feedback","","html-keyboard-response","80","97757","0.0-1.0-105.0-0.0","0","0","91010","","null","","","null","11","","","","","","","","","","","","","","","",""
"","ITI","","html-keyboard-response","81","98759","0.0-1.0-108.0","0","0","91010","","null","","","null","11","","","","","","","","","","","","","","","NaN",""
"","S1","","html-keyboard-response","82","99012","0.0-1.0-110.0","0","0","91010","","null","","","null","12","","","","","","","","","","","","","","","",""
"","ISI","","html-keyboard-response","83","99163","0.0-1.0-111.0","0","0","91010","","null","","","null","12","NaN","","","","","","","","","","","","","","",""
"","S2","","html-keyboard-response","84","99416","0.0-1.0-112.0","0","0","91010","","null","","","null","12","","NaN","","","","","","","","","","","","","",""
"","response","","html-keyboard-response","85","99475","0.0-1.0-113.0-0.0","0","0","91010","","58","","","75","12","","","1","12","training","adjacent","FE","6","5","Q.jpg","R.jpg","0","0","1","",""
"","feedback","","html-keyboard-response","86","100477","0.0-1.0-114.0-0.0","0","0","91010","","null","","","null","12","","","","","","","","","","","","","","","",""
"","ITI","","html-keyboard-response","87","101479","0.0-1.0-117.0","0","0","91010","","null","","","null","12","","","","","","","","","","","","","","","NaN",""
"","S1","","html-keyboard-response","88","101732","0.0-1.0-119.0","0","0","91010","","null","","","null","13","","","","","","","","","","","","","","","",""
"","ISI","","html-keyboard-response","89","101894","0.0-1.0-120.0","0","0","91010","","null","","","null","13","NaN","","","","","","","","","","","","","","",""
"","S2","","html-keyboard-response","90","102146","0.0-1.0-121.0","0","0","91010","","null","","","null","13","","NaN","","","","","","","","","","","","","",""
"","response","","html-keyboard-response","91","102381","0.0-1.0-122.0-0.0","0","0","91010","","234","","","68","13","","","1","13","training","adjacent","GF","7","6","M.jpg","Q.jpg","1","0","0","",""
"","feedback","","html-keyboard-response","92","103383","0.0-1.0-123.0-0.0","0","0","91010","","null","","","null","13","","","","","","","","","","","","","","","",""
"","time_out","","html-keyboard-response","93","105385","0.0-1.0-125.0-0.0","0","0","91010","","null","","","null","13","","","","","","","","","","","","","","","",""
"","ITI","","html-keyboard-response","94","106386","0.0-1.0-126.0","0","0","91010","","null","","","null","13","","","","","","","","","","","","","","","NaN",""
"","S1","","html-keyboard-response","95","106638","0.0-1.0-128.0","0","0","91010","","null","","","null","14","","","","","","","","","","","","","","","",""
"","ISI","","html-keyboard-response","96","106789","0.0-1.0-129.0","0","0","91010","","null","","","null","14","NaN","","","","","","","","","","","","","","",""
"","S2","","html-keyboard-response","97","107042","0.0-1.0-130.0","0","0","91010","","null","","","null","14","","NaN","","","","","","","","","","","","","",""
"","response","","html-keyboard-response","98","107107","0.0-1.0-131.0-0.0","0","0","91010","","65","","","75","14","","","1","14","training","adjacent","FG","6","7","Q.jpg","M.jpg","0","1","0","",""
"","feedback","","html-keyboard-response","99","108110","0.0-1.0-132.0-0.0","0","0","91010","","null","","","null","14","","","","","","","","","","","","","","","",""
"","time_out","","html-keyboard-response","100","110113","0.0-1.0-134.0-0.0","0","0","91010","","null","","","null","14","","","","","","","","","","","","","","","",""
"","ITI","","html-keyboard-response","101","111116","0.0-1.0-135.0","0","0","91010","","null","","","null","14","","","","","","","","","","","","","","","NaN",""
"","S1","","html-keyboard-response","102","111368","0.0-1.0-137.0","0","0","91010","","null","","","null","15","","","","","","","","","","","","","","","",""
"","ISI","","html-keyboard-response","103","111521","0.0-1.0-138.0","0","0","91010","","null","","","null","15","NaN","","","","","","","","","","","","","","",""
"","S2","","html-keyboard-response","104","111774","0.0-1.0-139.0","0","0","91010","","null","","","null","15","","NaN","","","","","","","","","","","","","",""
"","response","","html-keyboard-response","105","111882","0.0-1.0-140.0-0.0","0","0","91010","","108","","","68","15","","","1","15","training","adjacent","BC","2","3","N.jpg","P.jpg","1","1","1","",""
"","feedback","","html-keyboard-response","106","112884","0.0-1.0-141.0-0.0","0","0","91010","","null","","","null","15","","","","","","","","","","","","","","","",""
"","ITI","","html-keyboard-response","107","113886","0.0-1.0-144.0","0","0","91010","","null","","","null","15","","","","","","","","","","","","","","","NaN",""
"","S1","","html-keyboard-response","108","114139","0.0-1.0-146.0","0","0","91010","","null","","","null","16","","","","","","","","","","","","","","","",""
"","ISI","","html-keyboard-response","109","114292","0.0-1.0-147.0","0","0","91010","","null","","","null","16","NaN","","","","","","","","","","","","","","",""
"","S2","","html-keyboard-response","110","114545","0.0-1.0-148.0","0","0","91010","","null","","","null","16","","NaN","","","","","","","","","","","","","",""
"","response","","html-keyboard-response","111","114710","0.0-1.0-149.0-0.0","0","0","91010","","164","","","68","16","","","1","16","training","adjacent","CB","3","2","P.jpg","N.jpg","1","0","0","",""
"","feedback","","html-keyboard-response","112","115713","0.0-1.0-150.0-0.0","0","0","91010","","null","","","null","16","","","","","","","","","","","","","","","",""
"","time_out","","html-keyboard-response","113","117715","0.0-1.0-152.0-0.0","0","0","91010","","null","","","null","16","","","","","","","","","","","","","","","",""
"","ITI","","html-keyboard-response","114","118716","0.0-1.0-153.0","0","0","91010","","null","","","null","16","","","","","","","","","","","","","","","NaN",""
"","S1","","html-keyboard-response","115","118968","0.0-1.0-155.0","0","0","91010","","null","","","null","17","","","","","","","","","","","","","","","",""
"","ISI","","html-keyboard-response","116","119121","0.0-1.0-156.0","0","0","91010","","null","","","null","17","NaN","","","","","","","","","","","","","","",""
"","S2","","html-keyboard-response","117","119373","0.0-1.0-157.0","0","0","91010","","null","","","null","17","","NaN","","","","","","","","","","","","","",""
"","response","","html-keyboard-response","118","119579","0.0-1.0-158.0-0.0","0","0","91010","","205","","","68","17","","","1","17","training","adjacent","FE","6","5","Q.jpg","R.jpg","1","0","0","",""
"","feedback","","html-keyboard-response","119","120580","0.0-1.0-159.0-0.0","0","0","91010","","null","","","null","17","","","","","","","","","","","","","","","",""
"","time_out","","html-keyboard-response","120","122581","0.0-1.0-161.0-0.0","0","0","91010","","null","","","null","17","","","","","","","","","","","","","","","",""
"","ITI","","html-keyboard-response","121","123583","0.0-1.0-162.0","0","0","91010","","null","","","null","17","","","","","","","","","","","","","","","NaN",""
"","S1","","html-keyboard-response","122","123835","0.0-1.0-164.0","0","0","91010","","null","","","null","18","","","","","","","","","","","","","","","",""
"","ISI","","html-keyboard-response","123","123987","0.0-1.0-165.0","0","0","91010","","null","","","null","18","NaN","","","","","","","","","","","","","","",""
"","S2","","html-keyboard-response","124","124239","0.0-1.0-166.0","0","0","91010","","null","","","null","18","","NaN","","","","","","","","","","","","","",""
"","response","","html-keyboard-response","125","124315","0.0-1.0-167.0-0.0","0","0","91010","","75","","","75","18","","","1","18","training","adjacent","FG","6","7","Q.jpg","M.jpg","0","1","0","",""
"","feedback","","html-keyboard-response","126","125317","0.0-1.0-168.0-0.0","0","0","91010","","null","","","null","18","","","","","","","","","","","","","","","",""
"","time_out","","html-keyboard-response","127","127320","0.0-1.0-170.0-0.0","0","0","91010","","null","","","null","18","","","","","","","","","","","","","","","",""
"","ITI","","html-keyboard-response","128","128322","0.0-1.0-171.0","0","0","91010","","null","","","null","18","","","","","","","","","","","","","","","NaN",""
"","S1","","html-keyboard-response","129","128575","0.0-1.0-173.0","0","0","91010","","null","","","null","19","","","","","","","","","","","","","","","",""
"","ISI","","html-keyboard-response","130","128727","0.0-1.0-174.0","0","0","91010","","null","","","null","19","NaN","","","","","","","","","","","","","","",""
"","S2","","html-keyboard-response","131","128974","0.0-1.0-175.0","0","0","91010","","246","","","68","19","","d","1","19","training","adjacent","GF","7","6","M.jpg","Q.jpg","1","0","0","",""
"","feedback","","html-keyboard-response","132","129977","0.0-1.0-177.0-0.0","0","0","91010","","null","","","null","19","","","","","","","","","","","","","","","",""
"","time_out","","html-keyboard-response","133","131978","0.0-1.0-179.0-0.0","0","0","91010","","null","","","null","19","","","","","","","","","","","","","","","",""
"","ITI","","html-keyboard-response","134","132981","0.0-1.0-180.0","0","0","91010","","null","","","null","19","","","","","","","","","","","","","","","NaN",""
"","S1","","html-keyboard-response","135","133233","0.0-1.0-182.0","0","0","91010","","null","","","null","20","","","","","","","","","","","","","","","",""
"","ISI","","html-keyboard-response","136","133387","0.0-1.0-183.0","0","0","91010","","null","","","null","20","NaN","","","","","","","","","","","","","","",""
"","S2","","html-keyboard-response","137","133640","0.0-1.0-184.0","0","0","91010","","null","","","null","20","","NaN","","","","","","","","","","","","","",""
"","response","","html-keyboard-response","138","133827","0.0-1.0-185.0-0.0","0","0","91010","","186","","","68","20","","","1","20","training","adjacent","GF","7","6","M.jpg","Q.jpg","1","0","0","",""
"","feedback","","html-keyboard-response","139","134830","0.0-1.0-186.0-0.0","0","0","91010","","null","","","null","20","","","","","","","","","","","","","","","",""
"","time_out","","html-keyboard-response","140","136832","0.0-1.0-188.0-0.0","0","0","91010","","null","","","null","20","","","","","","","","","","","","","","","",""
"","ITI","","html-keyboard-response","141","137833","0.0-1.0-189.0","0","0","91010","","null","","","null","20","","","","","","","","","","","","","","","NaN",""
"","S1","","html-keyboard-response","142","138086","0.0-1.0-191.0","0","0","91010","","null","","","null","21","","","","","","","","","","","","","","","",""
"","ISI","","html-keyboard-response","143","138238","0.0-1.0-192.0","0","0","91010","","null","","","null","21","NaN","","","","","","","","","","","","","","",""
"","S2","","html-keyboard-response","144","138489","0.0-1.0-193.0","0","0","91010","","null","","","null","21","","NaN","","","","","","","","","","","","","",""
"","response","","html-keyboard-response","145","138539","0.0-1.0-194.0-0.0","0","0","91010","","49","","","75","21","","","1","21","training","adjacent","ED","5","4","R.jpg","O.jpg","0","0","1","",""
"","feedback","","html-keyboard-response","146","139542","0.0-1.0-195.0-0.0","0","0","91010","","null","","","null","21","","","","","","","","","","","","","","","",""
"","ITI","","html-keyboard-response","147","140545","0.0-1.0-198.0","0","0","91010","","null","","","null","21","","","","","","","","","","","","","","","NaN",""
"","S1","","html-keyboard-response","148","140797","0.0-1.0-200.0","0","0","91010","","null","","","null","22","","","","","","","","","","","","","","","",""
"","ISI","","html-keyboard-response","149","140949","0.0-1.0-201.0","0","0","91010","","null","","","null","22","NaN","","","","","","","","","","","","","","",""
"","S2","","html-keyboard-response","150","141202","0.0-1.0-202.0","0","0","91010","","null","","","null","22","","NaN","","","","","","","","","","","","","",""
"","response","","html-keyboard-response","151","141414","0.0-1.0-203.0-0.0","0","0","91010","","211","","","75","22","","","1","22","training","adjacent","ED","5","4","R.jpg","O.jpg","0","0","1","",""
"","feedback","","html-keyboard-response","152","142417","0.0-1.0-204.0-0.0","0","0","91010","","null","","","null","22","","","","","","","","","","","","","","","",""
"","ITI","","html-keyboard-response","153","143419","0.0-1.0-207.0","0","0","91010","","null","","","null","22","","","","","","","","","","","","","","","NaN",""
"","S1","","html-keyboard-response","154","143670","0.0-1.0-209.0","0","0","91010","","null","","","null","23","","","","","","","","","","","","","","","",""
"","ISI","","html-keyboard-response","155","143822","0.0-1.0-210.0","0","0","91010","","null","","","null","23","NaN","","","","","","","","","","","","","","",""
"","S2","","html-keyboard-response","156","144074","0.0-1.0-211.0","0","0","91010","","null","","","null","23","","NaN","","","","","","","","","","","","","",""
"","response","","html-keyboard-response","157","144299","0.0-1.0-212.0-0.0","0","0","91010","","224","","","68","23","","","1","23","training","adjacent","CB","3","2","P.jpg","N.jpg","1","0","0","",""
"","feedback","","html-keyboard-response","158","145301","0.0-1.0-213.0-0.0","0","0","91010","","null","","","null","23","","","","","","","","","","","","","","","",""
"","time_out","","html-keyboard-response","159","147303","0.0-1.0-215.0-0.0","0","0","91010","","null","","","null","23","","","","","","","","","","","","","","","",""
"","ITI","","html-keyboard-response","160","148305","0.0-1.0-216.0","0","0","91010","","null","","","null","23","","","","","","","","","","","","","","","NaN",""
"","S1","","html-keyboard-response","161","148558","0.0-1.0-218.0","0","0","91010","","null","","","null","24","","","","","","","","","","","","","","","",""
"","ISI","","html-keyboard-response","162","148710","0.0-1.0-219.0","0","0","91010","","null","","","null","24","NaN","","","","","","","","","","","","","","",""
"","S2","","html-keyboard-response","163","148963","0.0-1.0-220.0","0","0","91010","","null","","","null","24","","NaN","","","","","","","","","","","","","",""
"","response","","html-keyboard-response","164","149259","0.0-1.0-221.0-0.0","0","0","91010","","296","","","75","24","","","1","24","training","adjacent","EF","5","6","R.jpg","Q.jpg","0","1","0","",""
"","feedback","","html-keyboard-response","165","150261","0.0-1.0-222.0-0.0","0","0","91010","","null","","","null","24","","","","","","","","","","","","","","","",""
"","time_out","","html-keyboard-response","166","152263","0.0-1.0-224.0-0.0","0","0","91010","","null","","","null","24","","","","","","","","","","","","","","","",""
"","ITI","","html-keyboard-response","167","153264","0.0-1.0-225.0","0","0","91010","","null","","","null","24","","","","","","","","","","","","","","","NaN",""
"","S1","","html-keyboard-response","168","153517","0.0-1.0-227.0","0","0","91010","","null","","","null","25","","","","","","","","","","","","","","","",""
"","ISI","","html-keyboard-response","169","153670","0.0-1.0-228.0","0","0","91010","","null","","","null","25","NaN","","","","","","","","","","","","","","",""
"","S2","","html-keyboard-response","170","153921","0.0-1.0-229.0","0","0","91010","","null","","","null","25","","NaN","","","","","","","","","","","","","",""
"","response","","html-keyboard-response","171","154134","0.0-1.0-230.0-0.0","0","0","91010","","213","","","75","25","","","1","25","training","adjacent","BA","2","1","N.jpg","L.jpg","0","0","1","",""
"","feedback","","html-keyboard-response","172","155136","0.0-1.0-231.0-0.0","0","0","91010","","null","","","null","25","","","","","","","","","","","","","","","",""
"","ITI","","html-keyboard-response","173","156137","0.0-1.0-234.0","0","0","91010","","null","","","null","25","","","","","","","","","","","","","","","NaN",""
"","S1","","html-keyboard-response","174","156389","0.0-1.0-236.0","0","0","91010","","null","","","null","26","","","","","","","","","","","","","","","",""
"","ISI","","html-keyboard-response","175","156542","0.0-1.0-237.0","0","0","91010","","null","","","null","26","NaN","","","","","","","","","","","","","","",""
"","S2","","html-keyboard-response","176","156794","0.0-1.0-238.0","0","0","91010","","null","","","null","26","","NaN","","","","","","","","","","","","","",""
"","response","","html-keyboard-response","177","156915","0.0-1.0-239.0-0.0","0","0","91010","","121","","","68","26","","","1","26","training","adjacent","AB","1","2","L.jpg","N.jpg","1","1","1","",""
"","feedback","","html-keyboard-response","178","157918","0.0-1.0-240.0-0.0","0","0","91010","","null","","","null","26","","","","","","","","","","","","","","","",""
"","ITI","","html-keyboard-response","179","158920","0.0-1.0-243.0","0","0","91010","","null","","","null","26","","","","","","","","","","","","","","","NaN",""
"","S1","","html-keyboard-response","180","159172","0.0-1.0-245.0","0","0","91010","","null","","","null","27","","","","","","","","","","","","","","","",""
"","ISI","","html-keyboard-response","181","159324","0.0-1.0-246.0","0","0","91010","","null","","","null","27","NaN","","","","","","","","","","","","","","",""
"","S2","","html-keyboard-response","182","159577","0.0-1.0-247.0","0","0","91010","","null","","","null","27","","NaN","","","","","","","","","","","","","",""
"","response","","html-keyboard-response","183","159708","0.0-1.0-248.0-0.0","0","0","91010","","130","","","68","27","","","1","27","training","adjacent","BA","2","1","N.jpg","L.jpg","1","0","0","",""
"","feedback","","html-keyboard-response","184","160710","0.0-1.0-249.0-0.0","0","0","91010","","null","","","null","27","","","","","","","","","","","","","","","",""
"","time_out","","html-keyboard-response","185","162712","0.0-1.0-251.0-0.0","0","0","91010","","null","","","null","27","","","","","","","","","","","","","","","",""
"","ITI","","html-keyboard-response","186","163714","0.0-1.0-252.0","0","0","91010","","null","","","null","27","","","","","","","","","","","","","","","NaN",""
"","S1","","html-keyboard-response","187","163966","0.0-1.0-254.0","0","0","91010","","null","","","null","28","","","","","","","","","","","","","","","",""
"","ISI","","html-keyboard-response","188","164118","0.0-1.0-255.0","0","0","91010","","null","","","null","28","NaN","","","","","","","","","","","","","","",""
"","S2","","html-keyboard-response","189","164370","0.0-1.0-256.0","0","0","91010","","null","","","null","28","","NaN","","","","","","","","","","","","","",""
"","response","","html-keyboard-response","190","164478","0.0-1.0-257.0-0.0","0","0","91010","","108","","","68","28","","","1","28","training","adjacent","BC","2","3","N.jpg","P.jpg","1","1","1","",""
"","feedback","","html-keyboard-response","191","165481","0.0-1.0-258.0-0.0","0","0","91010","","null","","","null","28","","","","","","","","","","","","","","","",""
"","ITI","","html-keyboard-response","192","166483","0.0-1.0-261.0","0","0","91010","","null","","","null","28","","","","","","","","","","","","","","","NaN",""
"","S1","","html-keyboard-response","193","166736","0.0-1.0-263.0","0","0","91010","","null","","","null","29","","","","","","","","","","","","","","","",""
"","ISI","","html-keyboard-response","194","166887","0.0-1.0-264.0","0","0","91010","","null","","","null","29","NaN","","","","","","","","","","","","","","",""
"","S2","","html-keyboard-response","195","167139","0.0-1.0-265.0","0","0","91010","","null","","","null","29","","NaN","","","","","","","","","","","","","",""
"","response","","html-keyboard-response","196","167572","0.0-1.0-266.0-0.0","0","0","91010","","432","","","75","29","","","1","29","training","adjacent","GF","7","6","M.jpg","Q.jpg","0","0","1","",""
"","feedback","","html-keyboard-response","197","168574","0.0-1.0-267.0-0.0","0","0","91010","","null","","","null","29","","","","","","","","","","","","","","","",""
"","ITI","","html-keyboard-response","198","169576","0.0-1.0-270.0","0","0","91010","","null","","","null","29","","","","","","","","","","","","","","","NaN",""
"","S1","","html-keyboard-response","199","169829","0.0-1.0-272.0","0","0","91010","","null","","","null","30","","","","","","","","","","","","","","","",""
"","ISI","","html-keyboard-response","200","169980","0.0-1.0-273.0","0","0","91010","","null","","","null","30","NaN","","","","","","","","","","","","","","",""
"","S2","","html-keyboard-response","201","170233","0.0-1.0-274.0","0","0","91010","","null","","","null","30","","NaN","","","","","","","","","","","","","",""
"","response","","html-keyboard-response","202","170412","0.0-1.0-275.0-0.0","0","0","91010","","178","","","68","30","","","1","30","training","adjacent","EF","5","6","R.jpg","Q.jpg","1","1","1","",""
"","feedback","","html-keyboard-response","203","171414","0.0-1.0-276.0-0.0","0","0","91010","","null","","","null","30","","","","","","","","","","","","","","","",""
"","ITI","","html-keyboard-response","204","172416","0.0-1.0-279.0","0","0","91010","","null","","","null","30","","","","","","","","","","","","","","","NaN",""
"","S1","","html-keyboard-response","205","172668","0.0-1.0-281.0","0","0","91010","","null","","","null","31","","","","","","","","","","","","","","","",""
"","ISI","","html-keyboard-response","206","172821","0.0-1.0-282.0","0","0","91010","","null","","","null","31","NaN","","","","","","","","","","","","","","",""
"","S2","","html-keyboard-response","207","173073","0.0-1.0-283.0","0","0","91010","","null","","","null","31","","NaN","","","","","","","","","","","","","",""
"","response","","html-keyboard-response","208","173332","0.0-1.0-284.0-0.0","0","0","91010","","258","","","75","31","","","1","31","training","adjacent","FG","6","7","Q.jpg","M.jpg","0","1","0","",""
"","feedback","","html-keyboard-response","209","174334","0.0-1.0-285.0-0.0","0","0","91010","","null","","","null","31","","","","","","","","","","","","","","","",""
"","time_out","","html-keyboard-response","210","176336","0.0-1.0-287.0-0.0","0","0","91010","","null","","","null","31","","","","","","","","","","","","","","","",""
"","ITI","","html-keyboard-response","211","177338","0.0-1.0-288.0","0","0","91010","","null","","","null","31","","","","","","","","","","","","","","","NaN",""
"","S1","","html-keyboard-response","212","177590","0.0-1.0-290.0","0","0","91010","","null","","","null","32","","","","","","","","","","","","","","","",""
"","ISI","","html-keyboard-response","213","177741","0.0-1.0-291.0","0","0","91010","","null","","","null","32","NaN","","","","","","","","","","","","","","",""
"","S2","","html-keyboard-response","214","177993","0.0-1.0-292.0","0","0","91010","","null","","","null","32","","NaN","","","","","","","","","","","","","",""
"","response","","html-keyboard-response","215","178039","0.0-1.0-293.0-0.0","0","0","91010","","45","","","68","32","","","1","32","training","adjacent","AB","1","2","L.jpg","N.jpg","1","1","1","",""
"","feedback","","html-keyboard-response","216","179041","0.0-1.0-294.0-0.0","0","0","91010","","null","","","null","32","","","","","","","","","","","","","","","",""
"","ITI","","html-keyboard-response","217","180042","0.0-1.0-297.0","0","0","91010","","null","","","null","32","","","","","","","","","","","","","","","NaN",""
"","S1","","html-keyboard-response","218","180295","0.0-1.0-299.0","0","0","91010","","null","","","null","33","","","","","","","","","","","","","","","",""
"","ISI","","html-keyboard-response","219","180447","0.0-1.0-300.0","0","0","91010","","null","","","null","33","NaN","","","","","","","","","","","","","","",""
"","S2","","html-keyboard-response","220","180699","0.0-1.0-301.0","0","0","91010","","null","","","null","33","","NaN","","","","","","","","","","","","","",""
"","response","","html-keyboard-response","221","180884","0.0-1.0-302.0-0.0","0","0","91010","","183","","","75","33","","","1","33","training","adjacent","BA","2","1","N.jpg","L.jpg","0","0","1","",""
"","feedback","","html-keyboard-response","222","181885","0.0-1.0-303.0-0.0","0","0","91010","","null","","","null","33","","","","","","","","","","","","","","","",""
"","ITI","","html-keyboard-response","223","182886","0.0-1.0-306.0","0","0","91010","","null","","","null","33","","","","","","","","","","","","","","","NaN",""
"","S1","","html-keyboard-response","224","183138","0.0-1.0-308.0","0","0","91010","","null","","","null","34","","","","","","","","","","","","","","","",""
"","ISI","","html-keyboard-response","225","183290","0.0-1.0-309.0","0","0","91010","","null","","","null","34","NaN","","","","","","","","","","","","","","",""
"","S2","","html-keyboard-response","226","183543","0.0-1.0-310.0","0","0","91010","","null","","","null","34","","NaN","","","","","","","","","","","","","",""
"","response","","html-keyboard-response","227","183612","0.0-1.0-311.0-0.0","0","0","91010","","67","","","75","34","","","1","34","training","adjacent","AB","1","2","L.jpg","N.jpg","0","1","0","",""
"","feedback","","html-keyboard-response","228","184614","0.0-1.0-312.0-0.0","0","0","91010","","null","","","null","34","","","","","","","","","","","","","","","",""
"","time_out","","html-keyboard-response","229","186616","0.0-1.0-314.0-0.0","0","0","91010","","null","","","null","34","","","","","","","","","","","","","","","",""
"","ITI","","html-keyboard-response","230","187617","0.0-1.0-315.0","0","0","91010","","null","","","null","34","","","","","","","","","","","","","","","NaN",""
"","S1","","html-keyboard-response","231","187870","0.0-1.0-317.0","0","0","91010","","null","","","null","35","","","","","","","","","","","","","","","",""
"","ISI","","html-keyboard-response","232","188021","0.0-1.0-318.0","0","0","91010","","null","","","null","35","NaN","","","","","","","","","","","","","","",""
"","S2","","html-keyboard-response","233","188273","0.0-1.0-319.0","0","0","91010","","null","","","null","35","","NaN","","","","","","","","","","","","","",""
"","response","","html-keyboard-response","234","188519","0.0-1.0-320.0-0.0","0","0","91010","","244","","","75","35","","","1","35","training","adjacent","DE","4","5","O.jpg","R.jpg","0","1","0","",""
"","feedback","","html-keyboard-response","235","189522","0.0-1.0-321.0-0.0","0","0","91010","","null","","","null","35","","","","","","","","","","","","","","","",""
"","time_out","","html-keyboard-response","236","191523","0.0-1.0-323.0-0.0","0","0","91010","","null","","","null","35","","","","","","","","","","","","","","","",""
"","ITI","","html-keyboard-response","237","192527","0.0-1.0-324.0","0","0","91010","","null","","","null","35","","","","","","","","","","","","","","","NaN",""
"","S1","","html-keyboard-response","238","192779","0.0-1.0-326.0","0","0","91010","","null","","","null","36","","","","","","","","","","","","","","","",""
"","ISI","","html-keyboard-response","239","192931","0.0-1.0-327.0","0","0","91010","","null","","","null","36","NaN","","","","","","","","","","","","","","",""
"","S2","","html-keyboard-response","240","193183","0.0-1.0-328.0","0","0","91010","","null","","","null","36","","NaN","","","","","","","","","","","","","",""
"","response","","html-keyboard-response","241","193548","0.0-1.0-329.0-0.0","0","0","91010","","363","","","75","36","","","1","36","training","adjacent","EF","5","6","R.jpg","Q.jpg","0","1","0","",""
"","feedback","","html-keyboard-response","242","194549","0.0-1.0-330.0-0.0","0","0","91010","","null","","","null","36","","","","","","","","","","","","","","","",""
"","time_out","","html-keyboard-response","243","196552","0.0-1.0-332.0-0.0","0","0","91010","","null","","","null","36","","","","","","","","","","","","","","","",""
"","ITI","","html-keyboard-response","244","197554","0.0-1.0-333.0","0","0","91010","","null","","","null","36","","","","","","","","","","","","","","","NaN",""
"","S1","","html-keyboard-response","245","197806","0.0-1.0-335.0","0","0","91010","","null","","","null","37","","","","","","","","","","","","","","","",""
"","ISI","","html-keyboard-response","246","197958","0.0-1.0-336.0","0","0","91010","","null","","","null","37","NaN","","","","","","","","","","","","","","",""
"","S2","","html-keyboard-response","247","198212","0.0-1.0-337.0","0","0","91010","","null","","","null","37","","NaN","","","","","","","","","","","","","",""
"","response","","html-keyboard-response","248","198308","0.0-1.0-338.0-0.0","0","0","91010","","95","","","68","37","","","1","37","training","adjacent","ED","5","4","R.jpg","O.jpg","1","0","0","",""
"","feedback","","html-keyboard-response","249","199310","0.0-1.0-339.0-0.0","0","0","91010","","null","","","null","37","","","","","","","","","","","","","","","",""
"","time_out","","html-keyboard-response","250","201312","0.0-1.0-341.0-0.0","0","0","91010","","null","","","null","37","","","","","","","","","","","","","","","",""
"","ITI","","html-keyboard-response","251","202315","0.0-1.0-342.0","0","0","91010","","null","","","null","37","","","","","","","","","","","","","","","NaN",""
"","S1","","html-keyboard-response","252","202566","0.0-1.0-344.0","0","0","91010","","null","","","null","38","","","","","","","","","","","","","","","",""
"","ISI","","html-keyboard-response","253","202718","0.0-1.0-345.0","0","0","91010","","null","","","null","38","NaN","","","","","","","","","","","","","","",""
"","S2","","html-keyboard-response","254","202970","0.0-1.0-346.0","0","0","91010","","null","","","null","38","","NaN","","","","","","","","","","","","","",""
"","response","","html-keyboard-response","255","203207","0.0-1.0-347.0-0.0","0","0","91010","","235","","","68","38","","","1","38","training","adjacent","DC","4","3","O.jpg","P.jpg","1","0","0","",""
"","feedback","","html-keyboard-response","256","204208","0.0-1.0-348.0-0.0","0","0","91010","","null","","","null","38","","","","","","","","","","","","","","","",""
"","time_out","","html-keyboard-response","257","206211","0.0-1.0-350.0-0.0","0","0","91010","","null","","","null","38","","","","","","","","","","","","","","","",""
"","ITI","","html-keyboard-response","258","207214","0.0-1.0-351.0","0","0","91010","","null","","","null","38","","","","","","","","","","","","","","","NaN",""
"","S1","","html-keyboard-response","259","207467","0.0-1.0-353.0","0","0","91010","","null","","","null","39","","","","","","","","","","","","","","","",""
"","ISI","","html-keyboard-response","260","207621","0.0-1.0-354.0","0","0","91010","","null","","","null","39","NaN","","","","","","","","","","","","","","",""
"","S2","","html-keyboard-response","261","207872","0.0-1.0-355.0","0","0","91010","","null","","","null","39","","NaN","","","","","","","","","","","","","",""
"","response","","html-keyboard-response","262","208157","0.0-1.0-356.0-0.0","0","0","91010","","283","","","75","39","","","1","39","training","adjacent","BC","2","3","N.jpg","P.jpg","0","1","0","",""
"","feedback","","html-keyboard-response","263","209160","0.0-1.0-357.0-0.0","0","0","91010","","null","","","null","39","","","","","","","","","","","","","","","",""
"","time_out","","html-keyboard-response","264","211162","0.0-1.0-359.0-0.0","0","0","91010","","null","","","null","39","","","","","","","","","","","","","","","",""
"","ITI","","html-keyboard-response","265","212164","0.0-1.0-360.0","0","0","91010","","null","","","null","39","","","","","","","","","","","","","","","NaN",""
"","S1","","html-keyboard-response","266","212415","0.0-1.0-362.0","0","0","91010","","null","","","null","40","","","","","","","","","","","","","","","",""
"","ISI","","html-keyboard-response","267","212567","0.0-1.0-363.0","0","0","91010","","null","","","null","40","NaN","","","","","","","","","","","","","","",""
"","S2","","html-keyboard-response","268","212819","0.0-1.0-364.0","0","0","91010","","null","","","null","40","","NaN","","","","","","","","","","","","","",""
"","response","","html-keyboard-response","269","213471","0.0-1.0-365.0-0.0","0","0","91010","","651","","","68","40","","","1","40","training","adjacent","DE","4","5","O.jpg","R.jpg","1","1","1","",""
"","feedback","","html-keyboard-response","270","214474","0.0-1.0-366.0-0.0","0","0","91010","","null","","","null","40","","","","","","","","","","","","","","","",""
"","ITI","","html-keyboard-response","271","215478","0.0-1.0-369.0","0","0","91010","","null","","","null","40","","","","","","","","","","","","","","","NaN",""
"","S1","","html-keyboard-response","272","215730","0.0-1.0-371.0","0","0","91010","","null","","","null","41","","","","","","","","","","","","","","","",""
"","ISI","","html-keyboard-response","273","215882","0.0-1.0-372.0","0","0","91010","","null","","","null","41","NaN","","","","","","","","","","","","","","",""
"","S2","","html-keyboard-response","274","216134","0.0-1.0-373.0","0","0","91010","","null","","","null","41","","NaN","","","","","","","","","","","","","",""
"","response","","html-keyboard-response","275","216357","0.0-1.0-374.0-0.0","0","0","91010","","222","","","75","41","","","1","41","training","adjacent","CD","3","4","P.jpg","O.jpg","0","1","0","",""
"","feedback","","html-keyboard-response","276","217360","0.0-1.0-375.0-0.0","0","0","91010","","null","","","null","41","","","","","","","","","","","","","","","",""
"","time_out","","html-keyboard-response","277","219361","0.0-1.0-377.0-0.0","0","0","91010","","null","","","null","41","","","","","","","","","","","","","","","",""
"","ITI","","html-keyboard-response","278","220363","0.0-1.0-378.0","0","0","91010","","null","","","null","41","","","","","","","","","","","","","","","NaN",""
"","S1","","html-keyboard-response","279","220617","0.0-1.0-380.0","0","0","91010","","null","","","null","42","","","","","","","","","","","","","","","",""
"","ISI","","html-keyboard-response","280","220768","0.0-1.0-381.0","0","0","91010","","null","","","null","42","NaN","","","","","","","","","","","","","","",""
"","S2","","html-keyboard-response","281","221021","0.0-1.0-382.0","0","0","91010","","null","","","null","42","","NaN","","","","","","","","","","","","","",""
"","response","","html-keyboard-response","282","221077","0.0-1.0-383.0-0.0","0","0","91010","","54","","","68","42","","","1","42","training","adjacent","DC","4","3","O.jpg","P.jpg","1","0","0","",""
"","feedback","","html-keyboard-response","283","222078","0.0-1.0-384.0-0.0","0","0","91010","","null","","","null","42","","","","","","","","","","","","","","","",""
"","time_out","","html-keyboard-response","284","224081","0.0-1.0-386.0-0.0","0","0","91010","","null","","","null","42","","","","","","","","","","","","","","","",""
"","ITI","","html-keyboard-response","285","225083","0.0-1.0-387.0","0","0","91010","","null","","","null","42","","","","","","","","","","","","","","","NaN",""
"","S1","","html-keyboard-response","286","225336","0.0-1.0-389.0","0","0","91010","","null","","","null","43","","","","","","","","","","","","","","","",""
"","ISI","","html-keyboard-response","287","225489","0.0-1.0-390.0","0","0","91010","","null","","","null","43","NaN","","","","","","","","","","","","","","",""
"","S2","","html-keyboard-response","288","225742","0.0-1.0-391.0","0","0","91010","","null","","","null","43","","NaN","","","","","","","","","","","","","",""
"","response","","html-keyboard-response","289","226072","0.0-1.0-392.0-0.0","0","0","91010","","328","","","75","43","","","1","43","training","adjacent","FE","6","5","Q.jpg","R.jpg","0","0","1","",""
"","feedback","","html-keyboard-response","290","227074","0.0-1.0-393.0-0.0","0","0","91010","","null","","","null","43","","","","","","","","","","","","","","","",""
"","ITI","","html-keyboard-response","291","228078","0.0-1.0-396.0","0","0","91010","","null","","","null","43","","","","","","","","","","","","","","","NaN",""
"","S1","","html-keyboard-response","292","228330","0.0-1.0-398.0","0","0","91010","","null","","","null","44","","","","","","","","","","","","","","","",""
"","ISI","","html-keyboard-response","293","228482","0.0-1.0-399.0","0","0","91010","","null","","","null","44","NaN","","","","","","","","","","","","","","",""
"","S2","","html-keyboard-response","294","228734","0.0-1.0-400.0","0","0","91010","","null","","","null","44","","NaN","","","","","","","","","","","","","",""
"","response","","html-keyboard-response","295","228917","0.0-1.0-401.0-0.0","0","0","91010","","181","","","68","44","","","1","44","training","adjacent","DE","4","5","O.jpg","R.jpg","1","1","1","",""
"","feedback","","html-keyboard-response","296","229919","0.0-1.0-402.0-0.0","0","0","91010","","null","","","null","44","","","","","","","","","","","","","","","",""
"","ITI","","html-keyboard-response","297","230921","0.0-1.0-405.0","0","0","91010","","null","","","null","44","","","","","","","","","","","","","","","NaN",""
"","S1","","html-keyboard-response","298","231173","0.0-1.0-407.0","0","0","91010","","null","","","null","45","","","","","","","","","","","","","","","",""
"","ISI","","html-keyboard-response","299","231326","0.0-1.0-408.0","0","0","91010","","null","","","null","45","NaN","","","","","","","","","","","","","","",""
"","S2","","html-keyboard-response","300","231578","0.0-1.0-409.0","0","0","91010","","null","","","null","45","","NaN","","","","","","","","","","","","","",""
"","response","","html-keyboard-response","301","231821","0.0-1.0-410.0-0.0","0","0","91010","","241","","","68","45","","","1","45","training","adjacent","DC","4","3","O.jpg","P.jpg","1","0","0","",""
"","feedback","","html-keyboard-response","302","232823","0.0-1.0-411.0-0.0","0","0","91010","","null","","","null","45","","","","","","","","","","","","","","","",""
"","time_out","","html-keyboard-response","303","234825","0.0-1.0-413.0-0.0","0","0","91010","","null","","","null","45","","","","","","","","","","","","","","","",""
"","ITI","","html-keyboard-response","304","235827","0.0-1.0-414.0","0","0","91010","","null","","","null","45","","","","","","","","","","","","","","","NaN",""
"","S1","","html-keyboard-response","305","236080","0.0-1.0-416.0","0","0","91010","","null","","","null","46","","","","","","","","","","","","","","","",""
"","ISI","","html-keyboard-response","306","236232","0.0-1.0-417.0","0","0","91010","","null","","","null","46","NaN","","","","","","","","","","","","","","",""
"","S2","","html-keyboard-response","307","236483","0.0-1.0-418.0","0","0","91010","","null","","","null","46","","NaN","","","","","","","","","","","","","",""
"","response","","html-keyboard-response","308","236672","0.0-1.0-419.0-0.0","0","0","91010","","187","","","75","46","","","1","46","training","adjacent","CB","3","2","P.jpg","N.jpg","0","0","1","",""
"","feedback","","html-keyboard-response","309","237673","0.0-1.0-420.0-0.0","0","0","91010","","null","","","null","46","","","","","","","","","","","","","","","",""
"","ITI","","html-keyboard-response","310","238676","0.0-1.0-423.0","0","0","91010","","null","","","null","46","","","","","","","","","","","","","","","NaN",""
"","S1","","html-keyboard-response","311","238928","0.0-1.0-425.0","0","0","91010","","null","","","null","47","","","","","","","","","","","","","","","",""
"","ISI","","html-keyboard-response","312","239081","0.0-1.0-426.0","0","0","91010","","null","","","null","47","NaN","","","","","","","","","","","","","","",""
"","S2","","html-keyboard-response","313","239332","0.0-1.0-427.0","0","0","91010","","null","","","null","47","","NaN","","","","","","","","","","","","","",""
"","response","","html-keyboard-response","314","239373","0.0-1.0-428.0-0.0","0","0","91010","","39","","","75","47","","","1","47","training","adjacent","FG","6","7","Q.jpg","M.jpg","0","1","0","",""
"","feedback","","html-keyboard-response","315","240375","0.0-1.0-429.0-0.0","0","0","91010","","null","","","null","47","","","","","","","","","","","","","","","",""
"","time_out","","html-keyboard-response","316","242377","0.0-1.0-431.0-0.0","0","0","91010","","null","","","null","47","","","","","","","","","","","","","","","",""
"","ITI","","html-keyboard-response","317","243378","0.0-1.0-432.0","0","0","91010","","null","","","null","47","","","","","","","","","","","","","","","NaN",""
"","block_over","","html-keyboard-response","318","283169","0.0-1.0-433.0-0.0","0","0","91010","","39789","","","32","47","","","","","","","","","","","","","","","",""
"","S1","","html-keyboard-response","319","283421","0.0-1.0-434.0","0","0","91010","","null","","","null","48","","","","","","","","","","","","","","","",""
"","ISI","","html-keyboard-response","320","283573","0.0-1.0-435.0","0","0","91010","","null","","","null","48","NaN","","","","","","","","","","","","","","",""
"","S2","","html-keyboard-response","321","283826","0.0-1.0-436.0","0","0","91010","","null","","","null","48","","NaN","","","","","","","","","","","","","",""
"","response","","html-keyboard-response","322","283926","0.0-1.0-437.0-0.0","0","0","91010","","99","","","68","48","","","2","48","training","adjacent","BC","2","3","N.jpg","P.jpg","1","1","1","",""
"","feedback","","html-keyboard-response","323","284928","0.0-1.0-438.0-0.0","0","0","91010","","null","","","null","48","","","","","","","","","","","","","","","",""
"","ITI","","html-keyboard-response","324","285930","0.0-1.0-441.0","0","0","91010","","null","","","null","48","","","","","","","","","","","","","","","NaN",""
"","S1","","html-keyboard-response","325","286182","0.0-1.0-443.0","0","0","91010","","null","","","null","49","","","","","","","","","","","","","","","",""
"","ISI","","html-keyboard-response","326","286345","0.0-1.0-444.0","0","0","91010","","null","","","null","49","NaN","","","","","","","","","","","","","","",""
"","S2","","html-keyboard-response","327","286598","0.0-1.0-445.0","0","0","91010","","null","","","null","49","","NaN","","","","","","","","","","","","","",""
"","response","","html-keyboard-response","328","286846","0.0-1.0-446.0-0.0","0","0","91010","","247","","","68","49","","","2","49","training","adjacent","FG","6","7","Q.jpg","M.jpg","1","1","1","",""
"","feedback","","html-keyboard-response","329","287848","0.0-1.0-447.0-0.0","0","0","91010","","null","","","null","49","","","","","","","","","","","","","","","",""
"","ITI","","html-keyboard-response","330","288850","0.0-1.0-450.0","0","0","91010","","null","","","null","49","","","","","","","","","","","","","","","NaN",""
"","S1","","html-keyboard-response","331","289102","0.0-1.0-452.0","0","0","91010","","null","","","null","50","","","","","","","","","","","","","","","",""
"","ISI","","html-keyboard-response","332","289267","0.0-1.0-453.0","0","0","91010","","null","","","null","50","NaN","","","","","","","","","","","","","","",""
"","S2","","html-keyboard-response","333","289519","0.0-1.0-454.0","0","0","91010","","null","","","null","50","","NaN","","","","","","","","","","","","","",""
"","response","","html-keyboard-response","334","289798","0.0-1.0-455.0-0.0","0","0","91010","","278","","","75","50","","","2","50","training","adjacent","BA","2","1","N.jpg","L.jpg","0","0","1","",""
"","feedback","","html-keyboard-response","335","290799","0.0-1.0-456.0-0.0","0","0","91010","","null","","","null","50","","","","","","","","","","","","","","","",""
"","ITI","","html-keyboard-response","336","291801","0.0-1.0-459.0","0","0","91010","","null","","","null","50","","","","","","","","","","","","","","","NaN",""
"","S1","","html-keyboard-response","337","292054","0.0-1.0-461.0","0","0","91010","","null","","","null","51","","","","","","","","","","","","","","","",""
"","ISI","","html-keyboard-response","338","292211","0.0-1.0-462.0","0","0","91010","","null","","","null","51","NaN","","","","","","","","","","","","","","",""
"","S2","","html-keyboard-response","339","292463","0.0-1.0-463.0","0","0","91010","","null","","","null","51","","NaN","","","","","","","","","","","","","",""
"","response","","html-keyboard-response","340","292630","0.0-1.0-464.0-0.0","0","0","91010","","166","","","75","51","","","2","51","training","adjacent","BA","2","1","N.jpg","L.jpg","0","0","1","",""
"","feedback","","html-keyboard-response","341","293633","0.0-1.0-465.0-0.0","0","0","91010","","null","","","null","51","","","","","","","","","","","","","","","",""
"","ITI","","html-keyboard-response","342","294635","0.0-1.0-468.0","0","0","91010","","null","","","null","51","","","","","","","","","","","","","","","NaN",""
"","S1","","html-keyboard-response","343","294887","0.0-1.0-470.0","0","0","91010","","null","","","null","52","","","","","","","","","","","","","","","",""
"","ISI","","html-keyboard-response","344","295039","0.0-1.0-471.0","0","0","91010","","null","","","null","52","NaN","","","","","","","","","","","","","","",""
"","S2","","html-keyboard-response","345","295291","0.0-1.0-472.0","0","0","91010","","null","","","null","52","","NaN","","","","","","","","","","","","","",""
"","response","","html-keyboard-response","346","295881","0.0-1.0-473.0-0.0","0","0","91010","","589","","","75","52","","","2","52","training","adjacent","CD","3","4","P.jpg","O.jpg","0","1","0","",""
"","feedback","","html-keyboard-response","347","296883","0.0-1.0-474.0-0.0","0","0","91010","","null","","","null","52","","","","","","","","","","","","","","","",""
"","time_out","","html-keyboard-response","348","298886","0.0-1.0-476.0-0.0","0","0","91010","","null","","","null","52","","","","","","","","","","","","","","","",""
"","ITI","","html-keyboard-response","349","299888","0.0-1.0-477.0","0","0","91010","","null","","","null","52","","","","","","","","","","","","","","","NaN",""
"","S1","","html-keyboard-response","350","300140","0.0-1.0-479.0","0","0","91010","","null","","","null","53","","","","","","","","","","","","","","","",""
"","ISI","","html-keyboard-response","351","300291","0.0-1.0-480.0","0","0","91010","","null","","","null","53","NaN","","","","","","","","","","","","","","",""
"","S2","","html-keyboard-response","352","300543","0.0-1.0-481.0","0","0","91010","","null","","","null","53","","NaN","","","","","","","","","","","","","",""
"","response","","html-keyboard-response","353","300734","0.0-1.0-482.0-0.0","0","0","91010","","190","","","75","53","","","2","53","training","adjacent","BA","2","1","N.jpg","L.jpg","0","0","1","",""
"","feedback","","html-keyboard-response","354","301737","0.0-1.0-483.0-0.0","0","0","91010","","null","","","null","53","","","","","","","","","","","","","","","",""
"","ITI","","html-keyboard-response","355","302740","0.0-1.0-486.0","0","0","91010","","null","","","null","53","","","","","","","","","","","","","","","NaN",""
"","S1","","html-keyboard-response","356","302993","0.0-1.0-488.0","0","0","91010","","null","","","null","54","","","","","","","","","","","","","","","",""
"","ISI","","html-keyboard-response","357","303145","0.0-1.0-489.0","0","0","91010","","null","","","null","54","NaN","","","","","","","","","","","","","","",""
"","S2","","html-keyboard-response","358","303398","0.0-1.0-490.0","0","0","91010","","null","","","null","54","","NaN","","","","","","","","","","","","","",""
"","response","","html-keyboard-response","359","303550","0.0-1.0-491.0-0.0","0","0","91010","","151","","","75","54","","","2","54","training","adjacent","DC","4","3","O.jpg","P.jpg","0","0","1","",""
"","feedback","","html-keyboard-response","360","304553","0.0-1.0-492.0-0.0","0","0","91010","","null","","","null","54","","","","","","","","","","","","","","","",""
"","ITI","","html-keyboard-response","361","305556","0.0-1.0-495.0","0","0","91010","","null","","","null","54","","","","","","","","","","","","","","","NaN",""
"","S1","","html-keyboard-response","362","305809","0.0-1.0-497.0","0","0","91010","","null","","","null","55","","","","","","","","","","","","","","","",""
"","ISI","","html-keyboard-response","363","305961","0.0-1.0-498.0","0","0","91010","","null","","","null","55","NaN","","","","","","","","","","","","","","",""
"","S2","","html-keyboard-response","364","306214","0.0-1.0-499.0","0","0","91010","","null","","","null","55","","NaN","","","","","","","","","","","","","",""
"","response","","html-keyboard-response","365","306361","0.0-1.0-500.0-0.0","0","0","91010","","146","","","75","55","","","2","55","training","adjacent","FG","6","7","Q.jpg","M.jpg","0","1","0","",""
"","feedback","","html-keyboard-response","366","307363","0.0-1.0-501.0-0.0","0","0","91010","","null","","","null","55","","","","","","","","","","","","","","","",""
"","time_out","","html-keyboard-response","367","309365","0.0-1.0-503.0-0.0","0","0","91010","","null","","","null","55","","","","","","","","","","","","","","","",""
"","ITI","","html-keyboard-response","368","310368","0.0-1.0-504.0","0","0","91010","","null","","","null","55","","","","","","","","","","","","","","","NaN",""
"","S1","","html-keyboard-response","369","310620","0.0-1.0-506.0","0","0","91010","","null","","","null","56","","","","","","","","","","","","","","","",""
"","ISI","","html-keyboard-response","370","310772","0.0-1.0-507.0","0","0","91010","","null","","","null","56","NaN","","","","","","","","","","","","","","",""
"","S2","","html-keyboard-response","371","311024","0.0-1.0-508.0","0","0","91010","","null","","","null","56","","NaN","","","","","","","","","","","","","",""
"","response","","html-keyboard-response","372","311150","0.0-1.0-509.0-0.0","0","0","91010","","125","","","75","56","","","2","56","training","adjacent","BA","2","1","N.jpg","L.jpg","0","0","1","",""
"","feedback","","html-keyboard-response","373","312152","0.0-1.0-510.0-0.0","0","0","91010","","null","","","null","56","","","","","","","","","","","","","","","",""
"","ITI","","html-keyboard-response","374","313155","0.0-1.0-513.0","0","0","91010","","null","","","null","56","","","","","","","","","","","","","","","NaN",""
"","S1","","html-keyboard-response","375","313408","0.0-1.0-515.0","0","0","91010","","null","","","null","57","","","","","","","","","","","","","","","",""
"","ISI","","html-keyboard-response","376","313561","0.0-1.0-516.0","0","0","91010","","null","","","null","57","NaN","","","","","","","","","","","","","","",""
"","S2","","html-keyboard-response","377","313814","0.0-1.0-517.0","0","0","91010","","null","","","null","57","","NaN","","","","","","","","","","","","","",""
"","response","","html-keyboard-response","378","314086","0.0-1.0-518.0-0.0","0","0","91010","","272","","","75","57","","","2","57","training","adjacent","FE","6","5","Q.jpg","R.jpg","0","0","1","",""
"","feedback","","html-keyboard-response","379","315089","0.0-1.0-519.0-0.0","0","0","91010","","null","","","null","57","","","","","","","","","","","","","","","",""
"","ITI","","html-keyboard-response","380","316091","0.0-1.0-522.0","0","0","91010","","null","","","null","57","","","","","","","","","","","","","","","NaN",""
"","S1","","html-keyboard-response","381","316343","0.0-1.0-524.0","0","0","91010","","null","","","null","58","","","","","","","","","","","","","","","",""
"","ISI","","html-keyboard-response","382","316494","0.0-1.0-525.0","0","0","91010","","null","","","null","58","NaN","","","","","","","","","","","","","","",""
"","S2","","html-keyboard-response","383","316746","0.0-1.0-526.0","0","0","91010","","null","","","null","58","","NaN","","","","","","","","","","","","","",""
"","response","","html-keyboard-response","384","317049","0.0-1.0-527.0-0.0","0","0","91010","","302","","","68","58","","","2","58","training","adjacent","ED","5","4","R.jpg","O.jpg","1","0","0","",""
"","feedback","","html-keyboard-response","385","318052","0.0-1.0-528.0-0.0","0","0","91010","","null","","","null","58","","","","","","","","","","","","","","","",""
"","time_out","","html-keyboard-response","386","320054","0.0-1.0-530.0-0.0","0","0","91010","","null","","","null","58","","","","","","","","","","","","","","","",""
"","ITI","","html-keyboard-response","387","321056","0.0-1.0-531.0","0","0","91010","","null","","","null","58","","","","","","","","","","","","","","","NaN",""
"","S1","","html-keyboard-response","388","321309","0.0-1.0-533.0","0","0","91010","","null","","","null","59","","","","","","","","","","","","","","","",""
"","ISI","","html-keyboard-response","389","321460","0.0-1.0-534.0","0","0","91010","","null","","","null","59","NaN","","","","","","","","","","","","","","",""
"","S2","","html-keyboard-response","390","321712","0.0-1.0-535.0","0","0","91010","","null","","","null","59","","NaN","","","","","","","","","","","","","",""
"","response","","html-keyboard-response","391","321854","0.0-1.0-536.0-0.0","0","0","91010","","141","","","75","59","","","2","59","training","adjacent","CB","3","2","P.jpg","N.jpg","0","0","1","",""
"","feedback","","html-keyboard-response","392","322856","0.0-1.0-537.0-0.0","0","0","91010","","null","","","null","59","","","","","","","","","","","","","","","",""
"","ITI","","html-keyboard-response","393","323859","0.0-1.0-540.0","0","0","91010","","null","","","null","59","","","","","","","","","","","","","","","NaN",""
"","S1","","html-keyboard-response","394","324111","0.0-1.0-542.0","0","0","91010","","null","","","null","60","","","","","","","","","","","","","","","",""
"","ISI","","html-keyboard-response","395","324263","0.0-1.0-543.0","0","0","91010","","null","","","null","60","NaN","","","","","","","","","","","","","","",""
"","S2","","html-keyboard-response","396","324515","0.0-1.0-544.0","0","0","91010","","null","","","null","60","","NaN","","","","","","","","","","","","","",""
"","response","","html-keyboard-response","397","324614","0.0-1.0-545.0-0.0","0","0","91010","","99","","","68","60","","","2","60","training","adjacent","AB","1","2","L.jpg","N.jpg","1","1","1","",""
"","feedback","","html-keyboard-response","398","325618","0.0-1.0-546.0-0.0","0","0","91010","","null","","","null","60","","","","","","","","","","","","","","","",""
"","ITI","","html-keyboard-response","399","326620","0.0-1.0-549.0","0","0","91010","","null","","","null","60","","","","","","","","","","","","","","","NaN",""
"","S1","","html-keyboard-response","400","326872","0.0-1.0-551.0","0","0","91010","","null","","","null","61","","","","","","","","","","","","","","","",""
"","ISI","","html-keyboard-response","401","327024","0.0-1.0-552.0","0","0","91010","","null","","","null","61","NaN","","","","","","","","","","","","","","",""
"","S2","","html-keyboard-response","402","327276","0.0-1.0-553.0","0","0","91010","","null","","","null","61","","NaN","","","","","","","","","","","","","",""
"","response","","html-keyboard-response","403","327449","0.0-1.0-554.0-0.0","0","0","91010","","173","","","75","61","","","2","61","training","adjacent","DE","4","5","O.jpg","R.jpg","0","1","0","",""
"","feedback","","html-keyboard-response","404","328452","0.0-1.0-555.0-0.0","0","0","91010","","null","","","null","61","","","","","","","","","","","","","","","",""
"","time_out","","html-keyboard-response","405","330455","0.0-1.0-557.0-0.0","0","0","91010","","null","","","null","61","","","","","","","","","","","","","","","",""
"","ITI","","html-keyboard-response","406","331456","0.0-1.0-558.0","0","0","91010","","null","","","null","61","","","","","","","","","","","","","","","NaN",""
"","S1","","html-keyboard-response","407","331709","0.0-1.0-560.0","0","0","91010","","null","","","null","62","","","","","","","","","","","","","","","",""
"","ISI","","html-keyboard-response","408","331862","0.0-1.0-561.0","0","0","91010","","null","","","null","62","NaN","","","","","","","","","","","","","","",""
"","S2","","html-keyboard-response","409","332115","0.0-1.0-562.0","0","0","91010","","null","","","null","62","","NaN","","","","","","","","","","","","","",""
"","response","","html-keyboard-response","410","332375","0.0-1.0-563.0-0.0","0","0","91010","","259","","","68","62","","","2","62","training","adjacent","DC","4","3","O.jpg","P.jpg","1","0","0","",""
"","feedback","","html-keyboard-response","411","333377","0.0-1.0-564.0-0.0","0","0","91010","","null","","","null","62","","","","","","","","","","","","","","","",""
"","time_out","","html-keyboard-response","412","335387","0.0-1.0-566.0-0.0","0","0","91010","","null","","","null","62","","","","","","","","","","","","","","","",""
"","ITI","","html-keyboard-response","413","336389","0.0-1.0-567.0","0","0","91010","","null","","","null","62","","","","","","","","","","","","","","","NaN",""
"","S1","","html-keyboard-response","414","336642","0.0-1.0-569.0","0","0","91010","","null","","","null","63","","","","","","","","","","","","","","","",""
"","ISI","","html-keyboard-response","415","336795","0.0-1.0-570.0","0","0","91010","","null","","","null","63","NaN","","","","","","","","","","","","","","",""
"","S2","","html-keyboard-response","416","337048","0.0-1.0-571.0","0","0","91010","","null","","","null","63","","NaN","","","","","","","","","","","","","",""
"","response","","html-keyboard-response","417","337143","0.0-1.0-572.0-0.0","0","0","91010","","94","","","75","63","","","2","63","training","adjacent","FE","6","5","Q.jpg","R.jpg","0","0","1","",""
"","feedback","","html-keyboard-response","418","338145","0.0-1.0-573.0-0.0","0","0","91010","","null","","","null","63","","","","","","","","","","","","","","","",""
"","ITI","","html-keyboard-response","419","339148","0.0-1.0-576.0","0","0","91010","","null","","","null","63","","","","","","","","","","","","","","","NaN",""
"","S1","","html-keyboard-response","420","339407","0.0-1.0-578.0","0","0","91010","","null","","","null","64","","","","","","","","","","","","","","","",""
"","ISI","","html-keyboard-response","421","339559","0.0-1.0-579.0","0","0","91010","","null","","","null","64","NaN","","","","","","","","","","","","","","",""
"","S2","","html-keyboard-response","422","339811","0.0-1.0-580.0","0","0","91010","","null","","","null","64","","NaN","","","","","","","","","","","","","",""
"","response","","html-keyboard-response","423","339866","0.0-1.0-581.0-0.0","0","0","91010","","54","","","75","64","","","2","64","training","adjacent","FE","6","5","Q.jpg","R.jpg","0","0","1","",""
"","feedback","","html-keyboard-response","424","340869","0.0-1.0-582.0-0.0","0","0","91010","","null","","","null","64","","","","","","","","","","","","","","","",""
"","ITI","","html-keyboard-response","425","341872","0.0-1.0-585.0","0","0","91010","","null","","","null","64","","","","","","","","","","","","","","","NaN",""
"","S1","","html-keyboard-response","426","342124","0.0-1.0-587.0","0","0","91010","","null","","","null","65","","","","","","","","","","","","","","","",""
"","ISI","","html-keyboard-response","427","342275","0.0-1.0-588.0","0","0","91010","","null","","","null","65","NaN","","","","","","","","","","","","","","",""
"","S2","","html-keyboard-response","428","342528","0.0-1.0-589.0","0","0","91010","","null","","","null","65","","NaN","","","","","","","","","","","","","",""
"","response","","html-keyboard-response","429","342583","0.0-1.0-590.0-0.0","0","0","91010","","54","","","75","65","","","2","65","training","adjacent","CB","3","2","P.jpg","N.jpg","0","0","1","",""
"","feedback","","html-keyboard-response","430","343586","0.0-1.0-591.0-0.0","0","0","91010","","null","","","null","65","","","","","","","","","","","","","","","",""
"","ITI","","html-keyboard-response","431","344589","0.0-1.0-594.0","0","0","91010","","null","","","null","65","","","","","","","","","","","","","","","NaN",""
"","S1","","html-keyboard-response","432","344842","0.0-1.0-596.0","0","0","91010","","null","","","null","66","","","","","","","","","","","","","","","",""
"","ISI","","html-keyboard-response","433","344994","0.0-1.0-597.0","0","0","91010","","null","","","null","66","NaN","","","","","","","","","","","","","","",""
"","S2","","html-keyboard-response","434","345246","0.0-1.0-598.0","0","0","91010","","null","","","null","66","","NaN","","","","","","","","","","","","","",""
"","response","","html-keyboard-response","435","345631","0.0-1.0-599.0-0.0","0","0","91010","","384","","","68","66","","","2","66","training","adjacent","EF","5","6","R.jpg","Q.jpg","1","1","1","",""
"","feedback","","html-keyboard-response","436","346634","0.0-1.0-600.0-0.0","0","0","91010","","null","","","null","66","","","","","","","","","","","","","","","",""
"","ITI","","html-keyboard-response","437","347636","0.0-1.0-603.0","0","0","91010","","null","","","null","66","","","","","","","","","","","","","","","NaN",""
"","S1","","html-keyboard-response","438","347888","0.0-1.0-605.0","0","0","91010","","null","","","null","67","","","","","","","","","","","","","","","",""
"","ISI","","html-keyboard-response","439","348040","0.0-1.0-606.0","0","0","91010","","null","","","null","67","NaN","","","","","","","","","","","","","","",""
"","S2","","html-keyboard-response","440","348292","0.0-1.0-607.0","0","0","91010","","null","","","null","67","","NaN","","","","","","","","","","","","","",""
"","response","","html-keyboard-response","441","348863","0.0-1.0-608.0-0.0","0","0","91010","","570","","","68","67","","","2","67","training","adjacent","DC","4","3","O.jpg","P.jpg","1","0","0","",""
"","feedback","","html-keyboard-response","442","349865","0.0-1.0-609.0-0.0","0","0","91010","","null","","","null","67","","","","","","","","","","","","","","","",""
"","time_out","","html-keyboard-response","443","351868","0.0-1.0-611.0-0.0","0","0","91010","","null","","","null","67","","","","","","","","","","","","","","","",""
"","ITI","","html-keyboard-response","444","352870","0.0-1.0-612.0","0","0","91010","","null","","","null","67","","","","","","","","","","","","","","","NaN",""
"","S1","","html-keyboard-response","445","353123","0.0-1.0-614.0","0","0","91010","","null","","","null","68","","","","","","","","","","","","","","","",""
"","ISI","","html-keyboard-response","446","353274","0.0-1.0-615.0","0","0","91010","","null","","","null","68","NaN","","","","","","","","","","","","","","",""
"","S2","","html-keyboard-response","447","353527","0.0-1.0-616.0","0","0","91010","","null","","","null","68","","NaN","","","","","","","","","","","","","",""
"","response","","html-keyboard-response","448","353618","0.0-1.0-617.0-0.0","0","0","91010","","90","","","75","68","","","2","68","training","adjacent","CD","3","4","P.jpg","O.jpg","0","1","0","",""
"","feedback","","html-keyboard-response","449","354621","0.0-1.0-618.0-0.0","0","0","91010","","null","","","null","68","","","","","","","","","","","","","","","",""
"","time_out","","html-keyboard-response","450","356623","0.0-1.0-620.0-0.0","0","0","91010","","null","","","null","68","","","","","","","","","","","","","","","",""
"","ITI","","html-keyboard-response","451","357626","0.0-1.0-621.0","0","0","91010","","null","","","null","68","","","","","","","","","","","","","","","NaN",""
"","S1","","html-keyboard-response","452","357878","0.0-1.0-623.0","0","0","91010","","null","","","null","69","","","","","","","","","","","","","","","",""
"","ISI","","html-keyboard-response","453","358031","0.0-1.0-624.0","0","0","91010","","null","","","null","69","NaN","","","","","","","","","","","","","","",""
"","S2","","html-keyboard-response","454","358283","0.0-1.0-625.0","0","0","91010","","null","","","null","69","","NaN","","","","","","","","","","","","","",""
"","response","","html-keyboard-response","455","358943","0.0-1.0-626.0-0.0","0","0","91010","","659","","","75","69","","","2","69","training","adjacent","ED","5","4","R.jpg","O.jpg","0","0","1","",""
"","feedback","","html-keyboard-response","456","359946","0.0-1.0-627.0-0.0","0","0","91010","","null","","","null","69","","","","","","","","","","","","","","","",""
"","ITI","","html-keyboard-response","457","360947","0.0-1.0-630.0","0","0","91010","","null","","","null","69","","","","","","","","","","","","","","","NaN",""
"","S1","","html-keyboard-response","458","361200","0.0-1.0-632.0","0","0","91010","","null","","","null","70","","","","","","","","","","","","","","","",""
"","ISI","","html-keyboard-response","459","361353","0.0-1.0-633.0","0","0","91010","","null","","","null","70","NaN","","","","","","","","","","","","","","",""
"","S2","","html-keyboard-response","460","361606","0.0-1.0-634.0","0","0","91010","","null","","","null","70","","NaN","","","","","","","","","","","","","",""
"","response","","html-keyboard-response","461","361831","0.0-1.0-635.0-0.0","0","0","91010","","224","","","75","70","","","2","70","training","adjacent","CB","3","2","P.jpg","N.jpg","0","0","1","",""
"","feedback","","html-keyboard-response","462","362833","0.0-1.0-636.0-0.0","0","0","91010","","null","","","null","70","","","","","","","","","","","","","","","",""
"","ITI","","html-keyboard-response","463","363835","0.0-1.0-639.0","0","0","91010","","null","","","null","70","","","","","","","","","","","","","","","NaN",""
"","S1","","html-keyboard-response","464","364088","0.0-1.0-641.0","0","0","91010","","null","","","null","71","","","","","","","","","","","","","","","",""
"","ISI","","html-keyboard-response","465","364240","0.0-1.0-642.0","0","0","91010","","null","","","null","71","NaN","","","","","","","","","","","","","","",""
"","S2","","html-keyboard-response","466","364493","0.0-1.0-643.0","0","0","91010","","null","","","null","71","","NaN","","","","","","","","","","","","","",""
"","response","","html-keyboard-response","467","365034","0.0-1.0-644.0-0.0","0","0","91010","","539","","","75","71","","","2","71","training","adjacent","DC","4","3","O.jpg","P.jpg","0","0","1","",""
"","feedback","","html-keyboard-response","468","366036","0.0-1.0-645.0-0.0","0","0","91010","","null","","","null","71","","","","","","","","","","","","","","","",""
"","ITI","","html-keyboard-response","469","367038","0.0-1.0-648.0","0","0","91010","","null","","","null","71","","","","","","","","","","","","","","","NaN",""
"","S1","","html-keyboard-response","470","367291","0.0-1.0-650.0","0","0","91010","","null","","","null","72","","","","","","","","","","","","","","","",""
"","ISI","","html-keyboard-response","471","367443","0.0-1.0-651.0","0","0","91010","","null","","","null","72","NaN","","","","","","","","","","","","","","",""
"","S2","","html-keyboard-response","472","367695","0.0-1.0-652.0","0","0","91010","","null","","","null","72","","NaN","","","","","","","","","","","","","",""
"","response","","html-keyboard-response","473","367863","0.0-1.0-653.0-0.0","0","0","91010","","167","","","68","72","","","2","72","training","adjacent","EF","5","6","R.jpg","Q.jpg","1","1","1","",""
"","feedback","","html-keyboard-response","474","368866","0.0-1.0-654.0-0.0","0","0","91010","","null","","","null","72","","","","","","","","","","","","","","","",""
"","ITI","","html-keyboard-response","475","369869","0.0-1.0-657.0","0","0","91010","","null","","","null","72","","","","","","","","","","","","","","","NaN",""
"","S1","","html-keyboard-response","476","370122","0.0-1.0-659.0","0","0","91010","","null","","","null","73","","","","","","","","","","","","","","","",""
"","ISI","","html-keyboard-response","477","370273","0.0-1.0-660.0","0","0","91010","","null","","","null","73","NaN","","","","","","","","","","","","","","",""
"","S2","","html-keyboard-response","478","370525","0.0-1.0-661.0","0","0","91010","","null","","","null","73","","NaN","","","","","","","","","","","","","",""
"","response","","html-keyboard-response","479","370703","0.0-1.0-662.0-0.0","0","0","91010","","177","","","68","73","","","2","73","training","adjacent","EF","5","6","R.jpg","Q.jpg","1","1","1","",""
"","feedback","","html-keyboard-response","480","371706","0.0-1.0-663.0-0.0","0","0","91010","","null","","","null","73","","","","","","","","","","","","","","","",""
"","ITI","","html-keyboard-response","481","372708","0.0-1.0-666.0","0","0","91010","","null","","","null","73","","","","","","","","","","","","","","","NaN",""
"","S1","","html-keyboard-response","482","372960","0.0-1.0-668.0","0","0","91010","","null","","","null","74","","","","","","","","","","","","","","","",""
"","ISI","","html-keyboard-response","483","373113","0.0-1.0-669.0","0","0","91010","","null","","","null","74","NaN","","","","","","","","","","","","","","",""
"","S2","","html-keyboard-response","484","373365","0.0-1.0-670.0","0","0","91010","","null","","","null","74","","NaN","","","","","","","","","","","","","",""
"","response","","html-keyboard-response","485","373591","0.0-1.0-671.0-0.0","0","0","91010","","225","","","68","74","","","2","74","training","adjacent","ED","5","4","R.jpg","O.jpg","1","0","0","",""
"","feedback","","html-keyboard-response","486","374593","0.0-1.0-672.0-0.0","0","0","91010","","null","","","null","74","","","","","","","","","","","","","","","",""
"","time_out","","html-keyboard-response","487","376595","0.0-1.0-674.0-0.0","0","0","91010","","null","","","null","74","","","","","","","","","","","","","","","",""
"","ITI","","html-keyboard-response","488","377598","0.0-1.0-675.0","0","0","91010","","null","","","null","74","","","","","","","","","","","","","","","NaN",""
"","S1","","html-keyboard-response","489","377850","0.0-1.0-677.0","0","0","91010","","null","","","null","75","","","","","","","","","","","","","","","",""
"","ISI","","html-keyboard-response","490","378002","0.0-1.0-678.0","0","0","91010","","null","","","null","75","NaN","","","","","","","","","","","","","","",""
"","S2","","html-keyboard-response","491","378154","0.0-1.0-679.0","0","0","91010","","150","","","68","75","","d","2","75","training","adjacent","AB","1","2","L.jpg","N.jpg","1","1","1","",""
"","feedback","","html-keyboard-response","492","379156","0.0-1.0-681.0-0.0","0","0","91010","","null","","","null","75","","","","","","","","","","","","","","","",""
"","ITI","","html-keyboard-response","493","380159","0.0-1.0-684.0","0","0","91010","","null","","","null","75","","","","","","","","","","","","","","","NaN",""
"","S1","","html-keyboard-response","494","380412","0.0-1.0-686.0","0","0","91010","","null","","","null","76","","","","","","","","","","","","","","","",""
"","ISI","","html-keyboard-response","495","380564","0.0-1.0-687.0","0","0","91010","","null","","","null","76","NaN","","","","","","","","","","","","","","",""
"","S2","","html-keyboard-response","496","380816","0.0-1.0-688.0","0","0","91010","","null","","","null","76","","NaN","","","","","","","","","","","","","",""
"","response","","html-keyboard-response","497","380927","0.0-1.0-689.0-0.0","0","0","91010","","110","","","75","76","","","2","76","training","adjacent","CD","3","4","P.jpg","O.jpg","0","1","0","",""
"","feedback","","html-keyboard-response","498","381930","0.0-1.0-690.0-0.0","0","0","91010","","null","","","null","76","","","","","","","","","","","","","","","",""
"","time_out","","html-keyboard-response","499","383933","0.0-1.0-692.0-0.0","0","0","91010","","null","","","null","76","","","","","","","","","","","","","","","",""
"","ITI","","html-keyboard-response","500","384935","0.0-1.0-693.0","0","0","91010","","null","","","null","76","","","","","","","","","","","","","","","NaN",""
"","S1","","html-keyboard-response","501","385187","0.0-1.0-695.0","0","0","91010","","null","","","null","77","","","","","","","","","","","","","","","",""
"","ISI","","html-keyboard-response","502","385339","0.0-1.0-696.0","0","0","91010","","null","","","null","77","NaN","","","","","","","","","","","","","","",""
"","S2","","html-keyboard-response","503","385591","0.0-1.0-697.0","0","0","91010","","null","","","null","77","","NaN","","","","","","","","","","","","","",""
"","response","","html-keyboard-response","504","385671","0.0-1.0-698.0-0.0","0","0","91010","","79","","","68","77","","","2","77","training","adjacent","DE","4","5","O.jpg","R.jpg","1","1","1","",""
"","feedback","","html-keyboard-response","505","386673","0.0-1.0-699.0-0.0","0","0","91010","","null","","","null","77","","","","","","","","","","","","","","","",""
"","ITI","","html-keyboard-response","506","387676","0.0-1.0-702.0","0","0","91010","","null","","","null","77","","","","","","","","","","","","","","","NaN",""
"","S1","","html-keyboard-response","507","387928","0.0-1.0-704.0","0","0","91010","","null","","","null","78","","","","","","","","","","","","","","","",""
"","ISI","","html-keyboard-response","508","388080","0.0-1.0-705.0","0","0","91010","","null","","","null","78","NaN","","","","","","","","","","","","","","",""
"","S2","","html-keyboard-response","509","388333","0.0-1.0-706.0","0","0","91010","","null","","","null","78","","NaN","","","","","","","","","","","","","",""
"","response","","html-keyboard-response","510","388522","0.0-1.0-707.0-0.0","0","0","91010","","188","","","75","78","","","2","78","training","adjacent","CD","3","4","P.jpg","O.jpg","0","1","0","",""
"","feedback","","html-keyboard-response","511","389525","0.0-1.0-708.0-0.0","0","0","91010","","null","","","null","78","","","","","","","","","","","","","","","",""
"","time_out","","html-keyboard-response","512","391528","0.0-1.0-710.0-0.0","0","0","91010","","null","","","null","78","","","","","","","","","","","","","","","",""
"","ITI","","html-keyboard-response","513","392531","0.0-1.0-711.0","0","0","91010","","null","","","null","78","","","","","","","","","","","","","","","NaN",""
"","S1","","html-keyboard-response","514","392783","0.0-1.0-713.0","0","0","91010","","null","","","null","79","","","","","","","","","","","","","","","",""
"","ISI","","html-keyboard-response","515","392935","0.0-1.0-714.0","0","0","91010","","null","","","null","79","NaN","","","","","","","","","","","","","","",""
"","S2","","html-keyboard-response","516","393187","0.0-1.0-715.0","0","0","91010","","null","","","null","79","","NaN","","","","","","","","","","","","","",""
"","response","","html-keyboard-response","517","393263","0.0-1.0-716.0-0.0","0","0","91010","","76","","","68","79","","","2","79","training","adjacent","ED","5","4","R.jpg","O.jpg","1","0","0","",""
"","feedback","","html-keyboard-response","518","394265","0.0-1.0-717.0-0.0","0","0","91010","","null","","","null","79","","","","","","","","","","","","","","","",""
"","time_out","","html-keyboard-response","519","396267","0.0-1.0-719.0-0.0","0","0","91010","","null","","","null","79","","","","","","","","","","","","","","","",""
"","ITI","","html-keyboard-response","520","397269","0.0-1.0-720.0","0","0","91010","","null","","","null","79","","","","","","","","","","","","","","","NaN",""
"","S1","","html-keyboard-response","521","397522","0.0-1.0-722.0","0","0","91010","","null","","","null","80","","","","","","","","","","","","","","","",""
"","ISI","","html-keyboard-response","522","397675","0.0-1.0-723.0","0","0","91010","","null","","","null","80","NaN","","","","","","","","","","","","","","",""
"","S2","","html-keyboard-response","523","397928","0.0-1.0-724.0","0","0","91010","","null","","","null","80","","NaN","","","","","","","","","","","","","",""
"","response","","html-keyboard-response","524","398096","0.0-1.0-725.0-0.0","0","0","91010","","167","","","68","80","","","2","80","training","adjacent","BC","2","3","N.jpg","P.jpg","1","1","1","",""
"","feedback","","html-keyboard-response","525","399097","0.0-1.0-726.0-0.0","0","0","91010","","null","","","null","80","","","","","","","","","","","","","","","",""
"","ITI","","html-keyboard-response","526","400099","0.0-1.0-729.0","0","0","91010","","null","","","null","80","","","","","","","","","","","","","","","NaN",""
"","S1","","html-keyboard-response","527","400351","0.0-1.0-731.0","0","0","91010","","null","","","null","81","","","","","","","","","","","","","","","",""
"","ISI","","html-keyboard-response","528","400504","0.0-1.0-732.0","0","0","91010","","null","","","null","81","NaN","","","","","","","","","","","","","","",""
"","S2","","html-keyboard-response","529","400754","0.0-1.0-733.0","0","0","91010","","250","","","75","81","","k","2","81","training","adjacent","FG","6","7","Q.jpg","M.jpg","0","1","0","",""
"","feedback","","html-keyboard-response","530","401757","0.0-1.0-735.0-0.0","0","0","91010","","null","","","null","81","","","","","","","","","","","","","","","",""
"","time_out","","html-keyboard-response","531","403758","0.0-1.0-737.0-0.0","0","0","91010","","null","","","null","81","","","","","","","","","","","","","","","",""
"","ITI","","html-keyboard-response","532","404760","0.0-1.0-738.0","0","0","91010","","null","","","null","81","","","","","","","","","","","","","","","NaN",""
"","S1","","html-keyboard-response","533","405012","0.0-1.0-740.0","0","0","91010","","null","","","null","82","","","","","","","","","","","","","","","",""
"","ISI","","html-keyboard-response","534","405165","0.0-1.0-741.0","0","0","91010","","null","","","null","82","NaN","","","","","","","","","","","","","","",""
"","S2","","html-keyboard-response","535","405417","0.0-1.0-742.0","0","0","91010","","null","","","null","82","","NaN","","","","","","","","","","","","","",""
"","response","","html-keyboard-response","536","405745","0.0-1.0-743.0-0.0","0","0","91010","","327","","","75","82","","","2","82","training","adjacent","GF","7","6","M.jpg","Q.jpg","0","0","1","",""
"","feedback","","html-keyboard-response","537","406747","0.0-1.0-744.0-0.0","0","0","91010","","null","","","null","82","","","","","","","","","","","","","","","",""
"","ITI","","html-keyboard-response","538","407750","0.0-1.0-747.0","0","0","91010","","null","","","null","82","","","","","","","","","","","","","","","NaN",""
"","S1","","html-keyboard-response","539","408003","0.0-1.0-749.0","0","0","91010","","null","","","null","83","","","","","","","","","","","","","","","",""
"","ISI","","html-keyboard-response","540","408155","0.0-1.0-750.0","0","0","91010","","null","","","null","83","NaN","","","","","","","","","","","","","","",""
"","S2","","html-keyboard-response","541","408408","0.0-1.0-751.0","0","0","91010","","null","","","null","83","","NaN","","","","","","","","","","","","","",""
"","response","","html-keyboard-response","542","408504","0.0-1.0-752.0-0.0","0","0","91010","","95","","","75","83","","","2","83","training","adjacent","GF","7","6","M.jpg","Q.jpg","0","0","1","",""
"","feedback","","html-keyboard-response","543","409506","0.0-1.0-753.0-0.0","0","0","91010","","null","","","null","83","","","","","","","","","","","","","","","",""
"","ITI","","html-keyboard-response","544","410508","0.0-1.0-756.0","0","0","91010","","null","","","null","83","","","","","","","","","","","","","","","NaN",""
"","S1","","html-keyboard-response","545","410760","0.0-1.0-758.0","0","0","91010","","null","","","null","84","","","","","","","","","","","","","","","",""
"","ISI","","html-keyboard-response","546","410912","0.0-1.0-759.0","0","0","91010","","null","","","null","84","NaN","","","","","","","","","","","","","","",""
"","S2","","html-keyboard-response","547","411164","0.0-1.0-760.0","0","0","91010","","null","","","null","84","","NaN","","","","","","","","","","","","","",""
"","response","","html-keyboard-response","548","411691","0.0-1.0-761.0-0.0","0","0","91010","","526","","","75","84","","","2","84","training","adjacent","FE","6","5","Q.jpg","R.jpg","0","0","1","",""
"","feedback","","html-keyboard-response","549","412694","0.0-1.0-762.0-0.0","0","0","91010","","null","","","null","84","","","","","","","","","","","","","","","",""
"","ITI","","html-keyboard-response","550","413697","0.0-1.0-765.0","0","0","91010","","null","","","null","84","","","","","","","","","","","","","","","NaN",""
"","S1","","html-keyboard-response","551","413950","0.0-1.0-767.0","0","0","91010","","null","","","null","85","","","","","","","","","","","","","","","",""
"","ISI","","html-keyboard-response","552","414103","0.0-1.0-768.0","0","0","91010","","null","","","null","85","NaN","","","","","","","","","","","","","","",""
"","S2","","html-keyboard-response","553","414355","0.0-1.0-769.0","0","0","91010","","null","","","null","85","","NaN","","","","","","","","","","","","","",""
"","response","","html-keyboard-response","554","414576","0.0-1.0-770.0-0.0","0","0","91010","","219","","","75","85","","","2","85","training","adjacent","CB","3","2","P.jpg","N.jpg","0","0","1","",""
"","feedback","","html-keyboard-response","555","415578","0.0-1.0-771.0-0.0","0","0","91010","","null","","","null","85","","","","","","","","","","","","","","","",""
"","ITI","","html-keyboard-response","556","416581","0.0-1.0-774.0","0","0","91010","","null","","","null","85","","","","","","","","","","","","","","","NaN",""
"","S1","","html-keyboard-response","557","416834","0.0-1.0-776.0","0","0","91010","","null","","","null","86","","","","","","","","","","","","","","","",""
"","ISI","","html-keyboard-response","558","416986","0.0-1.0-777.0","0","0","91010","","null","","","null","86","NaN","","","","","","","","","","","","","","",""
"","S2","","html-keyboard-response","559","417239","0.0-1.0-778.0","0","0","91010","","null","","","null","86","","NaN","","","","","","","","","","","","","",""
"","response","","html-keyboard-response","560","417280","0.0-1.0-779.0-0.0","0","0","91010","","39","","","68","86","","","2","86","training","adjacent","AB","1","2","L.jpg","N.jpg","1","1","1","",""
"","feedback","","html-keyboard-response","561","418282","0.0-1.0-780.0-0.0","0","0","91010","","null","","","null","86","","","","","","","","","","","","","","","",""
"","ITI","","html-keyboard-response","562","419284","0.0-1.0-783.0","0","0","91010","","null","","","null","86","","","","","","","","","","","","","","","NaN",""
"","S1","","html-keyboard-response","563","419536","0.0-1.0-785.0","0","0","91010","","null","","","null","87","","","","","","","","","","","","","","","",""
"","ISI","","html-keyboard-response","564","419688","0.0-1.0-786.0","0","0","91010","","null","","","null","87","NaN","","","","","","","","","","","","","","",""
"","S2","","html-keyboard-response","565","419940","0.0-1.0-787.0","0","0","91010","","null","","","null","87","","NaN","","","","","","","","","","","","","",""
"","response","","html-keyboard-response","566","420080","0.0-1.0-788.0-0.0","0","0","91010","","138","","","68","87","","","2","87","training","adjacent","BC","2","3","N.jpg","P.jpg","1","1","1","",""
"","feedback","","html-keyboard-response","567","421083","0.0-1.0-789.0-0.0","0","0","91010","","null","","","null","87","","","","","","","","","","","","","","","",""
"","ITI","","html-keyboard-response","568","422085","0.0-1.0-792.0","0","0","91010","","null","","","null","87","","","","","","","","","","","","","","","NaN",""
"","S1","","html-keyboard-response","569","422338","0.0-1.0-794.0","0","0","91010","","null","","","null","88","","","","","","","","","","","","","","","",""
"","ISI","","html-keyboard-response","570","422490","0.0-1.0-795.0","0","0","91010","","null","","","null","88","NaN","","","","","","","","","","","","","","",""
"","S2","","html-keyboard-response","571","422743","0.0-1.0-796.0","0","0","91010","","null","","","null","88","","NaN","","","","","","","","","","","","","",""
"","response","","html-keyboard-response","572","423139","0.0-1.0-797.0-0.0","0","0","91010","","395","","","68","88","","","2","88","training","adjacent","EF","5","6","R.jpg","Q.jpg","1","1","1","",""
"","feedback","","html-keyboard-response","573","424141","0.0-1.0-798.0-0.0","0","0","91010","","null","","","null","88","","","","","","","","","","","","","","","",""
"","ITI","","html-keyboard-response","574","425144","0.0-1.0-801.0","0","0","91010","","null","","","null","88","","","","","","","","","","","","","","","NaN",""
"","S1","","html-keyboard-response","575","425396","0.0-1.0-803.0","0","0","91010","","null","","","null","89","","","","","","","","","","","","","","","",""
"","ISI","","html-keyboard-response","576","425549","0.0-1.0-804.0","0","0","91010","","null","","","null","89","NaN","","","","","","","","","","","","","","",""
"","S2","","html-keyboard-response","577","425802","0.0-1.0-805.0","0","0","91010","","null","","","null","89","","NaN","","","","","","","","","","","","","",""
"","response","","html-keyboard-response","578","426520","0.0-1.0-806.0-0.0","0","0","91010","","717","","","75","89","","","2","89","training","adjacent","DE","4","5","O.jpg","R.jpg","0","1","0","",""
"","feedback","","html-keyboard-response","579","427522","0.0-1.0-807.0-0.0","0","0","91010","","null","","","null","89","","","","","","","","","","","","","","","",""
"","time_out","","html-keyboard-response","580","429525","0.0-1.0-809.0-0.0","0","0","91010","","null","","","null","89","","","","","","","","","","","","","","","",""
"","ITI","","html-keyboard-response","581","430526","0.0-1.0-810.0","0","0","91010","","null","","","null","89","","","","","","","","","","","","","","","NaN",""
"","S1","","html-keyboard-response","582","430779","0.0-1.0-812.0","0","0","91010","","null","","","null","90","","","","","","","","","","","","","","","",""
