"success","ttype","start_time","trial_type","trial_index","time_elapsed","internal_node_id","warning","missed_checkup","PID","view_history","rt","responses","repeat_instructions","key_press","index","keypress_isi","keypress_S2","block","trial_num","phase","group_type","pair_type","S1_stim","S2_stim","S1_img","S2_img","S1_chosen","S1_higher","accuracy","keypress_iti","total_bonus_tally"
"true","full_screen","d03072023hr1813","fullscreen","0","8078","0.0-0.0","0","0","87773","","","","","","","","","","","","","","","","","","","","","",""
"","instructions","","instructions","1","26700","0.0-1.0-0.0-0.0","0","0","87773","[{""page_index"":0,""viewing_time"":3944},{""page_index"":1,""viewing_time"":9146},{""page_index"":2,""viewing_time"":4210},{""page_index"":3,""viewing_time"":1320}]","18621","","","","","","","","","","","","","","","","","","","",""
"","comprehension_check","","survey-multi-choice","2","47888","0.0-1.0-0.0-1.0","0","0","87773","","21184","{""Q0"":""True"",""Q1"":""K"",""Q2"":""Only when the screen 'MAKE A CHOICE' is shown"",""Q3"":""Green mark"",""Q4"":""either D or K""}","1","","","","","","","","","","","","","","","","","",""
"","missed_instruction_checkup","","html-keyboard-response","3","49442","0.0-1.0-0.0-2.0-0.0","0","1","87773","","1552","","","32","","","","","","","","","","","","","","","","",""
"","instructions","","instructions","4","60825","0.0-1.0-0.1-0.1","0","0","87773","[{""page_index"":0,""viewing_time"":1650},{""page_index"":1,""viewing_time"":7945},{""page_index"":2,""viewing_time"":1323},{""page_index"":3,""viewing_time"":463}]","11382","","","","","","","","","","","","","","","","","","","",""
"","comprehension_check","","survey-multi-choice","5","66746","0.0-1.0-0.1-1.1","0","0","87773","","5918","{""Q0"":""True"",""Q1"":""K"",""Q2"":""Once the second image appears and while the screen 'MAKE A CHOICE' is shown"",""Q3"":""Green mark"",""Q4"":""either D or K""}","0","","","","","","","","","","","","","","","","","",""
"","start_exp","","html-keyboard-response","6","67692","0.0-1.0-1.0","0","0","87773","","944","","","32","","","","","","","","","","","","","","","","",""
"","S1","","html-keyboard-response","7","67944","0.0-1.0-2.0","0","0","87773","","null","","","null","0","","","","","","","","","","","","","","","",""
"","ISI","","html-keyboard-response","8","68946","0.0-1.0-3.0","0","0","87773","","null","","","null","0","NaN","","","","","","","","","","","","","","",""
"","S2","","html-keyboard-response","9","69200","0.0-1.0-4.0","0","0","87773","","null","","","null","0","","NaN","","","","","","","","","","","","","",""
"","response","","html-keyboard-response","10","69628","0.0-1.0-5.0-0.0","0","0","87773","","428","","","75","0","","","1","0","training","adjacent","BC","2","3","N.jpg","L.jpg","1","1","1","",""
"","feedback","","html-keyboard-response","11","70632","0.0-1.0-6.0-0.0","0","0","87773","","null","","","null","0","","","","","","","","","","","","","","","",""
"","ITI","","html-keyboard-response","12","71635","0.0-1.0-9.0","0","0","87773","","null","","","null","0","","","","","","","","","","","","","","","NaN",""
"","S1","","html-keyboard-response","13","71888","0.0-1.0-11.0","0","0","87773","","null","","","null","1","","","","","","","","","","","","","","","",""
"","ISI","","html-keyboard-response","14","72891","0.0-1.0-12.0","0","0","87773","","null","","","null","1","NaN","","","","","","","","","","","","","","",""
"","S2","","html-keyboard-response","15","73126","0.0-1.0-13.0","0","0","87773","","234","","","75","1","","k","1","1","training","adjacent","EF","5","6","R.jpg","M.jpg","1","1","1","",""
"","feedback","","html-keyboard-response","16","74128","0.0-1.0-15.0-0.0","0","0","87773","","null","","","null","1","","","","","","","","","","","","","","","",""
"","ITI","","html-keyboard-response","17","75132","0.0-1.0-18.0","0","0","87773","","null","","","null","1","","","","","","","","","","","","","","","NaN",""
"","S1","","html-keyboard-response","18","75384","0.0-1.0-20.0","0","0","87773","","null","","","null","2","","","","","","","","","","","","","","","",""
"","ISI","","html-keyboard-response","19","76387","0.0-1.0-21.0","0","0","87773","","null","","","null","2","NaN","","","","","","","","","","","","","","",""
"","S2","","html-keyboard-response","20","76607","0.0-1.0-22.0","0","0","87773","","218","","","75","2","","k","1","2","training","adjacent","BC","2","3","N.jpg","L.jpg","1","1","1","",""
"","feedback","","html-keyboard-response","21","77610","0.0-1.0-24.0-0.0","0","0","87773","","null","","","null","2","","","","","","","","","","","","","","","",""
"","ITI","","html-keyboard-response","22","78612","0.0-1.0-27.0","0","0","87773","","null","","","null","2","","","","","","","","","","","","","","","NaN",""
"","S1","","html-keyboard-response","23","78865","0.0-1.0-29.0","0","0","87773","","null","","","null","3","","","","","","","","","","","","","","","",""
"","ISI","","html-keyboard-response","24","79866","0.0-1.0-30.0","0","0","87773","","null","","","null","3","NaN","","","","","","","","","","","","","","",""
"","S2","","html-keyboard-response","25","80119","0.0-1.0-31.0","0","0","87773","","null","","","null","3","","NaN","","","","","","","","","","","","","",""
"","response","","html-keyboard-response","26","80552","0.0-1.0-32.0-0.0","0","0","87773","","433","","","75","3","","","1","3","training","adjacent","FG","6","7","M.jpg","Q.jpg","1","1","1","",""
"","feedback","","html-keyboard-response","27","81567","0.0-1.0-33.0-0.0","0","0","87773","","null","","","null","3","","","","","","","","","","","","","","","",""
"","ITI","","html-keyboard-response","28","82570","0.0-1.0-36.0","0","0","87773","","null","","","null","3","","","","","","","","","","","","","","","NaN",""
"","S1","","html-keyboard-response","29","82823","0.0-1.0-38.0","0","0","87773","","null","","","null","4","","","","","","","","","","","","","","","",""
"","ISI","","html-keyboard-response","30","83825","0.0-1.0-39.0","0","0","87773","","null","","","null","4","NaN","","","","","","","","","","","","","","",""
"","S2","","html-keyboard-response","31","84078","0.0-1.0-40.0","0","0","87773","","null","","","null","4","","NaN","","","","","","","","","","","","","",""
"","response","","html-keyboard-response","32","84276","0.0-1.0-41.0-0.0","0","0","87773","","197","","","75","4","","","1","4","training","adjacent","DC","4","3","O.jpg","L.jpg","1","0","0","",""
"","feedback","","html-keyboard-response","33","85278","0.0-1.0-42.0-0.0","0","0","87773","","null","","","null","4","","","","","","","","","","","","","","","",""
"","time_out","","html-keyboard-response","34","87281","0.0-1.0-44.0-0.0","0","0","87773","","null","","","null","4","","","","","","","","","","","","","","","",""
"","ITI","","html-keyboard-response","35","88283","0.0-1.0-45.0","0","0","87773","","null","","","null","4","","","","","","","","","","","","","","","NaN",""
"","S1","","html-keyboard-response","36","88535","0.0-1.0-47.0","0","0","87773","","null","","","null","5","","","","","","","","","","","","","","","",""
"","ISI","","html-keyboard-response","37","89538","0.0-1.0-48.0","0","0","87773","","133","","","75","5","k","","","","","","","","","","","","","","",""
"","S2","","html-keyboard-response","38","89705","0.0-1.0-49.0","0","0","87773","","165","","","75","5","","k","1","5","training","adjacent","CB","3","2","L.jpg","N.jpg","1","0","0","",""
"","feedback","","html-keyboard-response","39","90707","0.0-1.0-51.0-0.0","0","0","87773","","null","","","null","5","","","","","","","","","","","","","","","",""
"","time_out","","html-keyboard-response","40","92710","0.0-1.0-53.0-0.0","0","0","87773","","null","","","null","5","","","","","","","","","","","","","","","",""
"","ITI","","html-keyboard-response","41","93713","0.0-1.0-54.0","0","0","87773","","null","","","null","5","","","","","","","","","","","","","","","NaN",""
"","S1","","html-keyboard-response","42","93965","0.0-1.0-56.0","0","0","87773","","null","","","null","6","","","","","","","","","","","","","","","",""
"","ISI","","html-keyboard-response","43","94968","0.0-1.0-57.0","0","0","87773","","null","","","null","6","NaN","","","","","","","","","","","","","","",""
"","S2","","html-keyboard-response","44","95168","0.0-1.0-58.0","0","0","87773","","200","","","75","6","","k","1","6","training","adjacent","FE","6","5","M.jpg","R.jpg","1","0","0","",""
"","feedback","","html-keyboard-response","45","96171","0.0-1.0-60.0-0.0","0","0","87773","","null","","","null","6","","","","","","","","","","","","","","","",""
"","time_out","","html-keyboard-response","46","98173","0.0-1.0-62.0-0.0","0","0","87773","","null","","","null","6","","","","","","","","","","","","","","","",""
"","ITI","","html-keyboard-response","47","99175","0.0-1.0-63.0","0","0","87773","","null","","","null","6","","","","","","","","","","","","","","","NaN",""
"","S1","","html-keyboard-response","48","99428","0.0-1.0-65.0","0","0","87773","","null","","","null","7","","","","","","","","","","","","","","","",""
"","ISI","","html-keyboard-response","49","100431","0.0-1.0-66.0","0","0","87773","","null","","","null","7","NaN","","","","","","","","","","","","","","",""
"","S2","","html-keyboard-response","50","100684","0.0-1.0-67.0","0","0","87773","","null","","","null","7","","NaN","","","","","","","","","","","","","",""
"","response","","html-keyboard-response","51","100769","0.0-1.0-68.0-0.0","0","0","87773","","84","","","75","7","","","1","7","training","adjacent","AB","1","2","P.jpg","N.jpg","1","1","1","",""
"","feedback","","html-keyboard-response","52","101772","0.0-1.0-69.0-0.0","0","0","87773","","null","","","null","7","","","","","","","","","","","","","","","",""
"","ITI","","html-keyboard-response","53","102774","0.0-1.0-72.0","0","0","87773","","null","","","null","7","","","","","","","","","","","","","","","NaN",""
"","S1","","html-keyboard-response","54","103027","0.0-1.0-74.0","0","0","87773","","null","","","null","8","","","","","","","","","","","","","","","",""
"","ISI","","html-keyboard-response","55","104029","0.0-1.0-75.0","0","0","87773","","null","","","null","8","NaN","","","","","","","","","","","","","","",""
"","S2","","html-keyboard-response","56","104281","0.0-1.0-76.0","0","0","87773","","null","","","null","8","","NaN","","","","","","","","","","","","","",""
"","response","","html-keyboard-response","57","104297","0.0-1.0-77.0-0.0","0","0","87773","","15","","","75","8","","","1","8","training","adjacent","AB","1","2","P.jpg","N.jpg","1","1","1","",""
"","feedback","","html-keyboard-response","58","105299","0.0-1.0-78.0-0.0","0","0","87773","","null","","","null","8","","","","","","","","","","","","","","","",""
"","ITI","","html-keyboard-response","59","106301","0.0-1.0-81.0","0","0","87773","","null","","","null","8","","","","","","","","","","","","","","","NaN",""
"","S1","","html-keyboard-response","60","106554","0.0-1.0-83.0","0","0","87773","","null","","","null","9","","","","","","","","","","","","","","","",""
"","ISI","","html-keyboard-response","61","107556","0.0-1.0-84.0","0","0","87773","","null","","","null","9","NaN","","","","","","","","","","","","","","",""
"","S2","","html-keyboard-response","62","107741","0.0-1.0-85.0","0","0","87773","","184","","","75","9","","k","1","9","training","adjacent","FG","6","7","M.jpg","Q.jpg","1","1","1","",""
"","feedback","","html-keyboard-response","63","108744","0.0-1.0-87.0-0.0","0","0","87773","","null","","","null","9","","","","","","","","","","","","","","","",""
"","ITI","","html-keyboard-response","64","109746","0.0-1.0-90.0","0","0","87773","","null","","","null","9","","","","","","","","","","","","","","","NaN",""
"","S1","","html-keyboard-response","65","109999","0.0-1.0-92.0","0","0","87773","","null","","","null","10","","","","","","","","","","","","","","","",""
"","ISI","","html-keyboard-response","66","111001","0.0-1.0-93.0","0","0","87773","","null","","","null","10","NaN","","","","","","","","","","","","","","",""
"","S2","","html-keyboard-response","67","111172","0.0-1.0-94.0","0","0","87773","","170","","","75","10","","k","1","10","training","adjacent","DE","4","5","O.jpg","R.jpg","1","1","1","",""
"","feedback","","html-keyboard-response","68","112175","0.0-1.0-96.0-0.0","0","0","87773","","null","","","null","10","","","","","","","","","","","","","","","",""
"","ITI","","html-keyboard-response","69","113177","0.0-1.0-99.0","0","0","87773","","null","","","null","10","","","","","","","","","","","","","","","NaN",""
"","S1","","html-keyboard-response","70","113429","0.0-1.0-101.0","0","0","87773","","null","","","null","11","","","","","","","","","","","","","","","",""
"","ISI","","html-keyboard-response","71","114431","0.0-1.0-102.0","0","0","87773","","null","","","null","11","NaN","","","","","","","","","","","","","","",""
"","S2","","html-keyboard-response","72","114568","0.0-1.0-103.0","0","0","87773","","136","","","75","11","","k","1","11","training","adjacent","CD","3","4","L.jpg","O.jpg","1","1","1","",""
"","feedback","","html-keyboard-response","73","115571","0.0-1.0-105.0-0.0","0","0","87773","","null","","","null","11","","","","","","","","","","","","","","","",""
"","ITI","","html-keyboard-response","74","116573","0.0-1.0-108.0","0","0","87773","","null","","","null","11","","","","","","","","","","","","","","","NaN",""
"","S1","","html-keyboard-response","75","116825","0.0-1.0-110.0","0","0","87773","","null","","","null","12","","","","","","","","","","","","","","","",""
"","ISI","","html-keyboard-response","76","117827","0.0-1.0-111.0","0","0","87773","","null","","","null","12","NaN","","","","","","","","","","","","","","",""
"","S2","","html-keyboard-response","77","117990","0.0-1.0-112.0","0","0","87773","","162","","","75","12","","k","1","12","training","adjacent","DE","4","5","O.jpg","R.jpg","1","1","1","",""
"","feedback","","html-keyboard-response","78","118993","0.0-1.0-114.0-0.0","0","0","87773","","null","","","null","12","","","","","","","","","","","","","","","",""
"","ITI","","html-keyboard-response","79","119996","0.0-1.0-117.0","0","0","87773","","null","","","null","12","","","","","","","","","","","","","","","NaN",""
"","S1","","html-keyboard-response","80","120249","0.0-1.0-119.0","0","0","87773","","null","","","null","13","","","","","","","","","","","","","","","",""
"","ISI","","html-keyboard-response","81","121252","0.0-1.0-120.0","0","0","87773","","null","","","null","13","NaN","","","","","","","","","","","","","","",""
"","S2","","html-keyboard-response","82","121271","0.0-1.0-121.0","0","0","87773","","19","","","75","13","","k","1","13","training","adjacent","ED","5","4","R.jpg","O.jpg","1","0","0","",""
"","feedback","","html-keyboard-response","83","122274","0.0-1.0-123.0-0.0","0","0","87773","","null","","","null","13","","","","","","","","","","","","","","","",""
"","time_out","","html-keyboard-response","84","124277","0.0-1.0-125.0-0.0","0","0","87773","","null","","","null","13","","","","","","","","","","","","","","","",""
"","ITI","","html-keyboard-response","85","125279","0.0-1.0-126.0","0","0","87773","","null","","","null","13","","","","","","","","","","","","","","","NaN",""
"","S1","","html-keyboard-response","86","125531","0.0-1.0-128.0","0","0","87773","","null","","","null","14","","","","","","","","","","","","","","","",""
"","ISI","","html-keyboard-response","87","126533","0.0-1.0-129.0","0","0","87773","","null","","","null","14","NaN","","","","","","","","","","","","","","",""
"","S2","","html-keyboard-response","88","126710","0.0-1.0-130.0","0","0","87773","","175","","","75","14","","k","1","14","training","adjacent","AB","1","2","P.jpg","N.jpg","1","1","1","",""
"","feedback","","html-keyboard-response","89","127713","0.0-1.0-132.0-0.0","0","0","87773","","null","","","null","14","","","","","","","","","","","","","","","",""
"","ITI","","html-keyboard-response","90","128716","0.0-1.0-135.0","0","0","87773","","null","","","null","14","","","","","","","","","","","","","","","NaN",""
"","S1","","html-keyboard-response","91","128969","0.0-1.0-137.0","0","0","87773","","null","","","null","15","","","","","","","","","","","","","","","",""
"","ISI","","html-keyboard-response","92","129971","0.0-1.0-138.0","0","0","87773","","null","","","null","15","NaN","","","","","","","","","","","","","","",""
"","S2","","html-keyboard-response","93","130138","0.0-1.0-139.0","0","0","87773","","166","","","75","15","","k","1","15","training","adjacent","BA","2","1","N.jpg","P.jpg","1","0","0","",""
"","feedback","","html-keyboard-response","94","131141","0.0-1.0-141.0-0.0","0","0","87773","","null","","","null","15","","","","","","","","","","","","","","","",""
"","time_out","","html-keyboard-response","95","133142","0.0-1.0-143.0-0.0","0","0","87773","","null","","","null","15","","","","","","","","","","","","","","","",""
"","ITI","","html-keyboard-response","96","134145","0.0-1.0-144.0","0","0","87773","","null","","","null","15","","","","","","","","","","","","","","","NaN",""
"","S1","","html-keyboard-response","97","134398","0.0-1.0-146.0","0","0","87773","","null","","","null","16","","","","","","","","","","","","","","","",""
"","ISI","","html-keyboard-response","98","135400","0.0-1.0-147.0","0","0","87773","","null","","","null","16","NaN","","","","","","","","","","","","","","",""
"","S2","","html-keyboard-response","99","135591","0.0-1.0-148.0","0","0","87773","","189","","","75","16","","k","1","16","training","adjacent","BA","2","1","N.jpg","P.jpg","1","0","0","",""
"","feedback","","html-keyboard-response","100","136593","0.0-1.0-150.0-0.0","0","0","87773","","null","","","null","16","","","","","","","","","","","","","","","",""
"","time_out","","html-keyboard-response","101","138595","0.0-1.0-152.0-0.0","0","0","87773","","null","","","null","16","","","","","","","","","","","","","","","",""
"","ITI","","html-keyboard-response","102","139598","0.0-1.0-153.0","0","0","87773","","null","","","null","16","","","","","","","","","","","","","","","NaN",""
"","S1","","html-keyboard-response","103","139850","0.0-1.0-155.0","0","0","87773","","null","","","null","17","","","","","","","","","","","","","","","",""
"","ISI","","html-keyboard-response","104","140852","0.0-1.0-156.0","0","0","87773","","null","","","null","17","NaN","","","","","","","","","","","","","","",""
"","S2","","html-keyboard-response","105","141026","0.0-1.0-157.0","0","0","87773","","173","","","75","17","","k","1","17","training","adjacent","FE","6","5","M.jpg","R.jpg","1","0","0","",""
"","feedback","","html-keyboard-response","106","142029","0.0-1.0-159.0-0.0","0","0","87773","","null","","","null","17","","","","","","","","","","","","","","","",""
"","time_out","","html-keyboard-response","107","144031","0.0-1.0-161.0-0.0","0","0","87773","","null","","","null","17","","","","","","","","","","","","","","","",""
"","ITI","","html-keyboard-response","108","145034","0.0-1.0-162.0","0","0","87773","","null","","","null","17","","","","","","","","","","","","","","","NaN",""
"","S1","","html-keyboard-response","109","145286","0.0-1.0-164.0","0","0","87773","","null","","","null","18","","","","","","","","","","","","","","","",""
"","ISI","","html-keyboard-response","110","146289","0.0-1.0-165.0","0","0","87773","","null","","","null","18","NaN","","","","","","","","","","","","","","",""
"","S2","","html-keyboard-response","111","146383","0.0-1.0-166.0","0","0","87773","","93","","","75","18","","k","1","18","training","adjacent","ED","5","4","R.jpg","O.jpg","1","0","0","",""
"","feedback","","html-keyboard-response","112","147387","0.0-1.0-168.0-0.0","0","0","87773","","null","","","null","18","","","","","","","","","","","","","","","",""
"","time_out","","html-keyboard-response","113","149389","0.0-1.0-170.0-0.0","0","0","87773","","null","","","null","18","","","","","","","","","","","","","","","",""
"","ITI","","html-keyboard-response","114","150405","0.0-1.0-171.0","0","0","87773","","null","","","null","18","","","","","","","","","","","","","","","NaN",""
"","S1","","html-keyboard-response","115","150658","0.0-1.0-173.0","0","0","87773","","null","","","null","19","","","","","","","","","","","","","","","",""
"","ISI","","html-keyboard-response","116","151660","0.0-1.0-174.0","0","0","87773","","null","","","null","19","NaN","","","","","","","","","","","","","","",""
"","S2","","html-keyboard-response","117","151851","0.0-1.0-175.0","0","0","87773","","189","","","75","19","","k","1","19","training","adjacent","EF","5","6","R.jpg","M.jpg","1","1","1","",""
"","feedback","","html-keyboard-response","118","152854","0.0-1.0-177.0-0.0","0","0","87773","","null","","","null","19","","","","","","","","","","","","","","","",""
"","ITI","","html-keyboard-response","119","153857","0.0-1.0-180.0","0","0","87773","","null","","","null","19","","","","","","","","","","","","","","","NaN",""
"","S1","","html-keyboard-response","120","154109","0.0-1.0-182.0","0","0","87773","","null","","","null","20","","","","","","","","","","","","","","","",""
"","ISI","","html-keyboard-response","121","155112","0.0-1.0-183.0","0","0","87773","","null","","","null","20","NaN","","","","","","","","","","","","","","",""
"","S2","","html-keyboard-response","122","155319","0.0-1.0-184.0","0","0","87773","","206","","","75","20","","k","1","20","training","adjacent","GF","7","6","Q.jpg","M.jpg","1","0","0","",""
"","feedback","","html-keyboard-response","123","156322","0.0-1.0-186.0-0.0","0","0","87773","","null","","","null","20","","","","","","","","","","","","","","","",""
"","time_out","","html-keyboard-response","124","158324","0.0-1.0-188.0-0.0","0","0","87773","","null","","","null","20","","","","","","","","","","","","","","","",""
"","ITI","","html-keyboard-response","125","159327","0.0-1.0-189.0","0","0","87773","","null","","","null","20","","","","","","","","","","","","","","","NaN",""
"","S1","","html-keyboard-response","126","159579","0.0-1.0-191.0","0","0","87773","","null","","","null","21","","","","","","","","","","","","","","","",""
"","ISI","","html-keyboard-response","127","160582","0.0-1.0-192.0","0","0","87773","","null","","","null","21","NaN","","","","","","","","","","","","","","",""
"","S2","","html-keyboard-response","128","160762","0.0-1.0-193.0","0","0","87773","","179","","","75","21","","k","1","21","training","adjacent","CB","3","2","L.jpg","N.jpg","1","0","0","",""
"","feedback","","html-keyboard-response","129","161765","0.0-1.0-195.0-0.0","0","0","87773","","null","","","null","21","","","","","","","","","","","","","","","",""
"","time_out","","html-keyboard-response","130","163768","0.0-1.0-197.0-0.0","0","0","87773","","null","","","null","21","","","","","","","","","","","","","","","",""
"","ITI","","html-keyboard-response","131","164771","0.0-1.0-198.0","0","0","87773","","null","","","null","21","","","","","","","","","","","","","","","NaN",""
"","S1","","html-keyboard-response","132","165023","0.0-1.0-200.0","0","0","87773","","null","","","null","22","","","","","","","","","","","","","","","",""
"","ISI","","html-keyboard-response","133","166026","0.0-1.0-201.0","0","0","87773","","null","","","null","22","NaN","","","","","","","","","","","","","","",""
"","S2","","html-keyboard-response","134","166201","0.0-1.0-202.0","0","0","87773","","174","","","75","22","","k","1","22","training","adjacent","FG","6","7","M.jpg","Q.jpg","1","1","1","",""
"","feedback","","html-keyboard-response","135","167204","0.0-1.0-204.0-0.0","0","0","87773","","null","","","null","22","","","","","","","","","","","","","","","",""
"","ITI","","html-keyboard-response","136","168206","0.0-1.0-207.0","0","0","87773","","null","","","null","22","","","","","","","","","","","","","","","NaN",""
"","S1","","html-keyboard-response","137","168459","0.0-1.0-209.0","0","0","87773","","null","","","null","23","","","","","","","","","","","","","","","",""
"","ISI","","html-keyboard-response","138","169461","0.0-1.0-210.0","0","0","87773","","null","","","null","23","NaN","","","","","","","","","","","","","","",""
"","S2","","html-keyboard-response","139","169706","0.0-1.0-211.0","0","0","87773","","243","","","75","23","","k","1","23","training","adjacent","DC","4","3","O.jpg","L.jpg","1","0","0","",""
"","feedback","","html-keyboard-response","140","170708","0.0-1.0-213.0-0.0","0","0","87773","","null","","","null","23","","","","","","","","","","","","","","","",""
"","time_out","","html-keyboard-response","141","172711","0.0-1.0-215.0-0.0","0","0","87773","","null","","","null","23","","","","","","","","","","","","","","","",""
"","ITI","","html-keyboard-response","142","173713","0.0-1.0-216.0","0","0","87773","","null","","","null","23","","","","","","","","","","","","","","","NaN",""
"","S1","","html-keyboard-response","143","173965","0.0-1.0-218.0","0","0","87773","","null","","","null","24","","","","","","","","","","","","","","","",""
"","ISI","","html-keyboard-response","144","174967","0.0-1.0-219.0","0","0","87773","","null","","","null","24","NaN","","","","","","","","","","","","","","",""
"","S2","","html-keyboard-response","145","175154","0.0-1.0-220.0","0","0","87773","","186","","","75","24","","k","1","24","training","adjacent","DC","4","3","O.jpg","L.jpg","1","0","0","",""
"","feedback","","html-keyboard-response","146","176156","0.0-1.0-222.0-0.0","0","0","87773","","null","","","null","24","","","","","","","","","","","","","","","",""
"","time_out","","html-keyboard-response","147","178158","0.0-1.0-224.0-0.0","0","0","87773","","null","","","null","24","","","","","","","","","","","","","","","",""
"","ITI","","html-keyboard-response","148","179161","0.0-1.0-225.0","0","0","87773","","null","","","null","24","","","","","","","","","","","","","","","NaN",""
"","S1","","html-keyboard-response","149","179413","0.0-1.0-227.0","0","0","87773","","null","","","null","25","","","","","","","","","","","","","","","",""
"","ISI","","html-keyboard-response","150","180416","0.0-1.0-228.0","0","0","87773","","null","","","null","25","NaN","","","","","","","","","","","","","","",""
"","S2","","html-keyboard-response","151","180603","0.0-1.0-229.0","0","0","87773","","186","","","75","25","","k","1","25","training","adjacent","ED","5","4","R.jpg","O.jpg","1","0","0","",""
"","feedback","","html-keyboard-response","152","181606","0.0-1.0-231.0-0.0","0","0","87773","","null","","","null","25","","","","","","","","","","","","","","","",""
"","time_out","","html-keyboard-response","153","183609","0.0-1.0-233.0-0.0","0","0","87773","","null","","","null","25","","","","","","","","","","","","","","","",""
"","ITI","","html-keyboard-response","154","184616","0.0-1.0-234.0","0","0","87773","","null","","","null","25","","","","","","","","","","","","","","","NaN",""
"","S1","","html-keyboard-response","155","184868","0.0-1.0-236.0","0","0","87773","","null","","","null","26","","","","","","","","","","","","","","","",""
"","ISI","","html-keyboard-response","156","185872","0.0-1.0-237.0","0","0","87773","","null","","","null","26","NaN","","","","","","","","","","","","","","",""
"","S2","","html-keyboard-response","157","186075","0.0-1.0-238.0","0","0","87773","","202","","","75","26","","k","1","26","training","adjacent","BA","2","1","N.jpg","P.jpg","1","0","0","",""
"","feedback","","html-keyboard-response","158","187077","0.0-1.0-240.0-0.0","0","0","87773","","null","","","null","26","","","","","","","","","","","","","","","",""
"","time_out","","html-keyboard-response","159","189079","0.0-1.0-242.0-0.0","0","0","87773","","null","","","null","26","","","","","","","","","","","","","","","",""
"","ITI","","html-keyboard-response","160","190081","0.0-1.0-243.0","0","0","87773","","null","","","null","26","","","","","","","","","","","","","","","NaN",""
"","S1","","html-keyboard-response","161","190333","0.0-1.0-245.0","0","0","87773","","null","","","null","27","","","","","","","","","","","","","","","",""
"","ISI","","html-keyboard-response","162","191345","0.0-1.0-246.0","0","0","87773","","null","","","null","27","NaN","","","","","","","","","","","","","","",""
"","S2","","html-keyboard-response","163","191554","0.0-1.0-247.0","0","0","87773","","208","","","68","27","","d","1","27","training","adjacent","GF","7","6","Q.jpg","M.jpg","0","0","1","",""
"","feedback","","html-keyboard-response","164","192558","0.0-1.0-249.0-0.0","0","0","87773","","null","","","null","27","","","","","","","","","","","","","","","",""
"","ITI","","html-keyboard-response","165","193561","0.0-1.0-252.0","0","0","87773","","null","","","null","27","","","","","","","","","","","","","","","NaN",""
"","S1","","html-keyboard-response","166","193814","0.0-1.0-254.0","0","0","87773","","null","","","null","28","","","","","","","","","","","","","","","",""
"","ISI","","html-keyboard-response","167","194823","0.0-1.0-255.0","0","0","87773","","null","","","null","28","NaN","","","","","","","","","","","","","","",""
"","S2","","html-keyboard-response","168","195036","0.0-1.0-256.0","0","0","87773","","211","","","68","28","","d","1","28","training","adjacent","DC","4","3","O.jpg","L.jpg","0","0","1","",""
"","feedback","","html-keyboard-response","169","196039","0.0-1.0-258.0-0.0","0","0","87773","","null","","","null","28","","","","","","","","","","","","","","","",""
"","ITI","","html-keyboard-response","170","197042","0.0-1.0-261.0","0","0","87773","","null","","","null","28","","","","","","","","","","","","","","","NaN",""
"","S1","","html-keyboard-response","171","197294","0.0-1.0-263.0","0","0","87773","","null","","","null","29","","","","","","","","","","","","","","","",""
"","ISI","","html-keyboard-response","172","198297","0.0-1.0-264.0","0","0","87773","","null","","","null","29","NaN","","","","","","","","","","","","","","",""
"","S2","","html-keyboard-response","173","198406","0.0-1.0-265.0","0","0","87773","","108","","","68","29","","d","1","29","training","adjacent","GF","7","6","Q.jpg","M.jpg","0","0","1","",""
"","feedback","","html-keyboard-response","174","199409","0.0-1.0-267.0-0.0","0","0","87773","","null","","","null","29","","","","","","","","","","","","","","","",""
"","ITI","","html-keyboard-response","175","200422","0.0-1.0-270.0","0","0","87773","","null","","","null","29","","","","","","","","","","","","","","","NaN",""
"","S1","","html-keyboard-response","176","200674","0.0-1.0-272.0","0","0","87773","","null","","","null","30","","","","","","","","","","","","","","","",""
"","ISI","","html-keyboard-response","177","201676","0.0-1.0-273.0","0","0","87773","","null","","","null","30","NaN","","","","","","","","","","","","","","",""
"","S2","","html-keyboard-response","178","201905","0.0-1.0-274.0","0","0","87773","","227","","","75","30","","k","1","30","training","adjacent","BC","2","3","N.jpg","L.jpg","1","1","1","",""
"","feedback","","html-keyboard-response","179","202908","0.0-1.0-276.0-0.0","0","0","87773","","null","","","null","30","","","","","","","","","","","","","","","",""
"","ITI","","html-keyboard-response","180","203910","0.0-1.0-279.0","0","0","87773","","null","","","null","30","","","","","","","","","","","","","","","NaN",""
"","S1","","html-keyboard-response","181","204162","0.0-1.0-281.0","0","0","87773","","null","","","null","31","","","","","","","","","","","","","","","",""
"","ISI","","html-keyboard-response","182","205163","0.0-1.0-282.0","0","0","87773","","null","","","null","31","NaN","","","","","","","","","","","","","","",""
"","S2","","html-keyboard-response","183","205367","0.0-1.0-283.0","0","0","87773","","202","","","75","31","","k","1","31","training","adjacent","BC","2","3","N.jpg","L.jpg","1","1","1","",""
"","feedback","","html-keyboard-response","184","206370","0.0-1.0-285.0-0.0","0","0","87773","","null","","","null","31","","","","","","","","","","","","","","","",""
"","ITI","","html-keyboard-response","185","207372","0.0-1.0-288.0","0","0","87773","","null","","","null","31","","","","","","","","","","","","","","","NaN",""
"","S1","","html-keyboard-response","186","207625","0.0-1.0-290.0","0","0","87773","","null","","","null","32","","","","","","","","","","","","","","","",""
"","ISI","","html-keyboard-response","187","208627","0.0-1.0-291.0","0","0","87773","","null","","","null","32","NaN","","","","","","","","","","","","","","",""
"","S2","","html-keyboard-response","188","208879","0.0-1.0-292.0","0","0","87773","","null","","","null","32","","NaN","","","","","","","","","","","","","",""
"","response","","html-keyboard-response","189","209024","0.0-1.0-293.0-0.0","0","0","87773","","145","","","75","32","","","1","32","training","adjacent","CD","3","4","L.jpg","O.jpg","1","1","1","",""
"","feedback","","html-keyboard-response","190","210027","0.0-1.0-294.0-0.0","0","0","87773","","null","","","null","32","","","","","","","","","","","","","","","",""
"","ITI","","html-keyboard-response","191","211029","0.0-1.0-297.0","0","0","87773","","null","","","null","32","","","","","","","","","","","","","","","NaN",""
"","S1","","html-keyboard-response","192","211282","0.0-1.0-299.0","0","0","87773","","null","","","null","33","","","","","","","","","","","","","","","",""
"","ISI","","html-keyboard-response","193","212285","0.0-1.0-300.0","0","0","87773","","null","","","null","33","NaN","","","","","","","","","","","","","","",""
"","S2","","html-keyboard-response","194","212445","0.0-1.0-301.0","0","0","87773","","158","","","75","33","","k","1","33","training","adjacent","EF","5","6","R.jpg","M.jpg","1","1","1","",""
"","feedback","","html-keyboard-response","195","213448","0.0-1.0-303.0-0.0","0","0","87773","","null","","","null","33","","","","","","","","","","","","","","","",""
"","ITI","","html-keyboard-response","196","214450","0.0-1.0-306.0","0","0","87773","","null","","","null","33","","","","","","","","","","","","","","","NaN",""
"","S1","","html-keyboard-response","197","214703","0.0-1.0-308.0","0","0","87773","","null","","","null","34","","","","","","","","","","","","","","","",""
"","ISI","","html-keyboard-response","198","215705","0.0-1.0-309.0","0","0","87773","","925","","","75","34","k","","","","","","","","","","","","","","",""
"","S2","","html-keyboard-response","199","215946","0.0-1.0-310.0","0","0","87773","","239","","","75","34","","k","1","34","training","adjacent","GF","7","6","Q.jpg","M.jpg","1","0","0","",""
"","feedback","","html-keyboard-response","200","216948","0.0-1.0-312.0-0.0","0","0","87773","","null","","","null","34","","","","","","","","","","","","","","","",""
"","time_out","","html-keyboard-response","201","218951","0.0-1.0-314.0-0.0","0","0","87773","","null","","","null","34","","","","","","","","","","","","","","","",""
"","ITI","","html-keyboard-response","202","219955","0.0-1.0-315.0","0","0","87773","","null","","","null","34","","","","","","","","","","","","","","","NaN",""
"","S1","","html-keyboard-response","203","220206","0.0-1.0-317.0","0","0","87773","","null","","","null","35","","","","","","","","","","","","","","","",""
"","ISI","","html-keyboard-response","204","221209","0.0-1.0-318.0","0","0","87773","","null","","","null","35","NaN","","","","","","","","","","","","","","",""
"","S2","","html-keyboard-response","205","221376","0.0-1.0-319.0","0","0","87773","","164","","","75","35","","k","1","35","training","adjacent","FE","6","5","M.jpg","R.jpg","1","0","0","",""
"","feedback","","html-keyboard-response","206","222379","0.0-1.0-321.0-0.0","0","0","87773","","null","","","null","35","","","","","","","","","","","","","","","",""
"","time_out","","html-keyboard-response","207","224381","0.0-1.0-323.0-0.0","0","0","87773","","null","","","null","35","","","","","","","","","","","","","","","",""
"","ITI","","html-keyboard-response","208","225384","0.0-1.0-324.0","0","0","87773","","null","","","null","35","","","","","","","","","","","","","","","NaN",""
"","S1","","html-keyboard-response","209","225635","0.0-1.0-326.0","0","0","87773","","null","","","null","36","","","","","","","","","","","","","","","",""
"","ISI","","html-keyboard-response","210","226637","0.0-1.0-327.0","0","0","87773","","null","","","null","36","NaN","","","","","","","","","","","","","","",""
"","S2","","html-keyboard-response","211","226831","0.0-1.0-328.0","0","0","87773","","192","","","75","36","","k","1","36","training","adjacent","FE","6","5","M.jpg","R.jpg","1","0","0","",""
"","feedback","","html-keyboard-response","212","227834","0.0-1.0-330.0-0.0","0","0","87773","","null","","","null","36","","","","","","","","","","","","","","","",""
"","time_out","","html-keyboard-response","213","229836","0.0-1.0-332.0-0.0","0","0","87773","","null","","","null","36","","","","","","","","","","","","","","","",""
"","ITI","","html-keyboard-response","214","230838","0.0-1.0-333.0","0","0","87773","","null","","","null","36","","","","","","","","","","","","","","","NaN",""
"","S1","","html-keyboard-response","215","231092","0.0-1.0-335.0","0","0","87773","","null","","","null","37","","","","","","","","","","","","","","","",""
"","ISI","","html-keyboard-response","216","232093","0.0-1.0-336.0","0","0","87773","","null","","","null","37","NaN","","","","","","","","","","","","","","",""
"","S2","","html-keyboard-response","217","232304","0.0-1.0-337.0","0","0","87773","","209","","","75","37","","k","1","37","training","adjacent","CB","3","2","L.jpg","N.jpg","1","0","0","",""
"","feedback","","html-keyboard-response","218","233306","0.0-1.0-339.0-0.0","0","0","87773","","null","","","null","37","","","","","","","","","","","","","","","",""
"","time_out","","html-keyboard-response","219","235310","0.0-1.0-341.0-0.0","0","0","87773","","null","","","null","37","","","","","","","","","","","","","","","",""
"","ITI","","html-keyboard-response","220","236312","0.0-1.0-342.0","0","0","87773","","null","","","null","37","","","","","","","","","","","","","","","NaN",""
"","S1","","html-keyboard-response","221","236564","0.0-1.0-344.0","0","0","87773","","null","","","null","38","","","","","","","","","","","","","","","",""
"","ISI","","html-keyboard-response","222","237566","0.0-1.0-345.0","0","0","87773","","null","","","null","38","NaN","","","","","","","","","","","","","","",""
"","S2","","html-keyboard-response","223","237817","0.0-1.0-346.0","0","0","87773","","null","","","null","38","","NaN","","","","","","","","","","","","","",""
"","response","","html-keyboard-response","224","238046","0.0-1.0-347.0-0.0","0","0","87773","","228","","","75","38","","","1","38","training","adjacent","AB","1","2","P.jpg","N.jpg","1","1","1","",""
"","feedback","","html-keyboard-response","225","239049","0.0-1.0-348.0-0.0","0","0","87773","","null","","","null","38","","","","","","","","","","","","","","","",""
"","ITI","","html-keyboard-response","226","240051","0.0-1.0-351.0","0","0","87773","","null","","","null","38","","","","","","","","","","","","","","","NaN",""
"","S1","","html-keyboard-response","227","240303","0.0-1.0-353.0","0","0","87773","","null","","","null","39","","","","","","","","","","","","","","","",""
"","ISI","","html-keyboard-response","228","241307","0.0-1.0-354.0","0","0","87773","","null","","","null","39","NaN","","","","","","","","","","","","","","",""
"","S2","","html-keyboard-response","229","241559","0.0-1.0-355.0","0","0","87773","","null","","","null","39","","NaN","","","","","","","","","","","","","",""
"","response","","html-keyboard-response","230","241661","0.0-1.0-356.0-0.0","0","0","87773","","101","","","75","39","","","1","39","training","adjacent","FG","6","7","M.jpg","Q.jpg","1","1","1","",""
"","feedback","","html-keyboard-response","231","242664","0.0-1.0-357.0-0.0","0","0","87773","","null","","","null","39","","","","","","","","","","","","","","","",""
"","ITI","","html-keyboard-response","232","243668","0.0-1.0-360.0","0","0","87773","","null","","","null","39","","","","","","","","","","","","","","","NaN",""
"","S1","","html-keyboard-response","233","243922","0.0-1.0-362.0","0","0","87773","","null","","","null","40","","","","","","","","","","","","","","","",""
"","ISI","","html-keyboard-response","234","244924","0.0-1.0-363.0","0","0","87773","","null","","","null","40","NaN","","","","","","","","","","","","","","",""
"","S2","","html-keyboard-response","235","245169","0.0-1.0-364.0","0","0","87773","","244","","","75","40","","k","1","40","training","adjacent","BA","2","1","N.jpg","P.jpg","1","0","0","",""
"","feedback","","html-keyboard-response","236","246173","0.0-1.0-366.0-0.0","0","0","87773","","null","","","null","40","","","","","","","","","","","","","","","",""
"","time_out","","html-keyboard-response","237","248175","0.0-1.0-368.0-0.0","0","0","87773","","null","","","null","40","","","","","","","","","","","","","","","",""
"","ITI","","html-keyboard-response","238","249178","0.0-1.0-369.0","0","0","87773","","null","","","null","40","","","","","","","","","","","","","","","NaN",""
"","S1","","html-keyboard-response","239","249431","0.0-1.0-371.0","0","0","87773","","null","","","null","41","","","","","","","","","","","","","","","",""
"","ISI","","html-keyboard-response","240","250433","0.0-1.0-372.0","0","0","87773","","null","","","null","41","NaN","","","","","","","","","","","","","","",""
"","S2","","html-keyboard-response","241","250685","0.0-1.0-373.0","0","0","87773","","null","","","null","41","","NaN","","","","","","","","","","","","","",""
"","response","","html-keyboard-response","242","250727","0.0-1.0-374.0-0.0","0","0","87773","","41","","","75","41","","","1","41","training","adjacent","EF","5","6","R.jpg","M.jpg","1","1","1","",""
"","feedback","","html-keyboard-response","243","251730","0.0-1.0-375.0-0.0","0","0","87773","","null","","","null","41","","","","","","","","","","","","","","","",""
"","ITI","","html-keyboard-response","244","252731","0.0-1.0-378.0","0","0","87773","","null","","","null","41","","","","","","","","","","","","","","","NaN",""
"","S1","","html-keyboard-response","245","252983","0.0-1.0-380.0","0","0","87773","","null","","","null","42","","","","","","","","","","","","","","","",""
"","ISI","","html-keyboard-response","246","253985","0.0-1.0-381.0","0","0","87773","","null","","","null","42","NaN","","","","","","","","","","","","","","",""
"","S2","","html-keyboard-response","247","254212","0.0-1.0-382.0","0","0","87773","","225","","","75","42","","k","1","42","training","adjacent","DE","4","5","O.jpg","R.jpg","1","1","1","",""
"","feedback","","html-keyboard-response","248","255214","0.0-1.0-384.0-0.0","0","0","87773","","null","","","null","42","","","","","","","","","","","","","","","",""
"","ITI","","html-keyboard-response","249","256217","0.0-1.0-387.0","0","0","87773","","null","","","null","42","","","","","","","","","","","","","","","NaN",""
"","S1","","html-keyboard-response","250","256470","0.0-1.0-389.0","0","0","87773","","null","","","null","43","","","","","","","","","","","","","","","",""
"","ISI","","html-keyboard-response","251","257473","0.0-1.0-390.0","0","0","87773","","null","","","null","43","NaN","","","","","","","","","","","","","","",""
"","S2","","html-keyboard-response","252","257726","0.0-1.0-391.0","0","0","87773","","null","","","null","43","","NaN","","","","","","","","","","","","","",""
"","response","","html-keyboard-response","253","257771","0.0-1.0-392.0-0.0","0","0","87773","","44","","","75","43","","","1","43","training","adjacent","CD","3","4","L.jpg","O.jpg","1","1","1","",""
"","feedback","","html-keyboard-response","254","258774","0.0-1.0-393.0-0.0","0","0","87773","","null","","","null","43","","","","","","","","","","","","","","","",""
"","ITI","","html-keyboard-response","255","259776","0.0-1.0-396.0","0","0","87773","","null","","","null","43","","","","","","","","","","","","","","","NaN",""
"","S1","","html-keyboard-response","256","260028","0.0-1.0-398.0","0","0","87773","","null","","","null","44","","","","","","","","","","","","","","","",""
"","ISI","","html-keyboard-response","257","261030","0.0-1.0-399.0","0","0","87773","","null","","","null","44","NaN","","","","","","","","","","","","","","",""
"","S2","","html-keyboard-response","258","261232","0.0-1.0-400.0","0","0","87773","","200","","","75","44","","k","1","44","training","adjacent","CB","3","2","L.jpg","N.jpg","1","0","0","",""
"","feedback","","html-keyboard-response","259","262234","0.0-1.0-402.0-0.0","0","0","87773","","null","","","null","44","","","","","","","","","","","","","","","",""
"","time_out","","html-keyboard-response","260","264236","0.0-1.0-404.0-0.0","0","0","87773","","null","","","null","44","","","","","","","","","","","","","","","",""
"","ITI","","html-keyboard-response","261","265239","0.0-1.0-405.0","0","0","87773","","null","","","null","44","","","","","","","","","","","","","","","NaN",""
"","S1","","html-keyboard-response","262","265492","0.0-1.0-407.0","0","0","87773","","null","","","null","45","","","","","","","","","","","","","","","",""
"","ISI","","html-keyboard-response","263","266495","0.0-1.0-408.0","0","0","87773","","null","","","null","45","NaN","","","","","","","","","","","","","","",""
"","S2","","html-keyboard-response","264","266682","0.0-1.0-409.0","0","0","87773","","186","","","75","45","","k","1","45","training","adjacent","CD","3","4","L.jpg","O.jpg","1","1","1","",""
"","feedback","","html-keyboard-response","265","267685","0.0-1.0-411.0-0.0","0","0","87773","","null","","","null","45","","","","","","","","","","","","","","","",""
"","ITI","","html-keyboard-response","266","268688","0.0-1.0-414.0","0","0","87773","","null","","","null","45","","","","","","","","","","","","","","","NaN",""
"","S1","","html-keyboard-response","267","268940","0.0-1.0-416.0","0","0","87773","","null","","","null","46","","","","","","","","","","","","","","","",""
"","ISI","","html-keyboard-response","268","269943","0.0-1.0-417.0","0","0","87773","","null","","","null","46","NaN","","","","","","","","","","","","","","",""
"","S2","","html-keyboard-response","269","270196","0.0-1.0-418.0","0","0","87773","","null","","","null","46","","NaN","","","","","","","","","","","","","",""
"","response","","html-keyboard-response","270","270228","0.0-1.0-419.0-0.0","0","0","87773","","31","","","75","46","","","1","46","training","adjacent","DE","4","5","O.jpg","R.jpg","1","1","1","",""
"","feedback","","html-keyboard-response","271","271230","0.0-1.0-420.0-0.0","0","0","87773","","null","","","null","46","","","","","","","","","","","","","","","",""
"","ITI","","html-keyboard-response","272","272233","0.0-1.0-423.0","0","0","87773","","null","","","null","46","","","","","","","","","","","","","","","NaN",""
"","S1","","html-keyboard-response","273","272487","0.0-1.0-425.0","0","0","87773","","null","","","null","47","","","","","","","","","","","","","","","",""
"","ISI","","html-keyboard-response","274","273489","0.0-1.0-426.0","0","0","87773","","null","","","null","47","NaN","","","","","","","","","","","","","","",""
"","S2","","html-keyboard-response","275","273743","0.0-1.0-427.0","0","0","87773","","null","","","null","47","","NaN","","","","","","","","","","","","","",""
"","response","","html-keyboard-response","276","273760","0.0-1.0-428.0-0.0","0","0","87773","","16","","","75","47","","","1","47","training","adjacent","ED","5","4","R.jpg","O.jpg","1","0","0","",""
"","feedback","","html-keyboard-response","277","274762","0.0-1.0-429.0-0.0","0","0","87773","","null","","","null","47","","","","","","","","","","","","","","","",""
"","time_out","","html-keyboard-response","278","276765","0.0-1.0-431.0-0.0","0","0","87773","","null","","","null","47","","","","","","","","","","","","","","","",""
"","ITI","","html-keyboard-response","279","277767","0.0-1.0-432.0","0","0","87773","","null","","","null","47","","","","","","","","","","","","","","","NaN",""
"","block_over","","html-keyboard-response","280","967362","0.0-1.0-433.0-0.0","0","0","87773","","689594","","","32","47","","","","","","","","","","","","","","","",""
"","S1","","html-keyboard-response","281","967615","0.0-1.0-434.0","0","0","87773","","null","","","null","48","","","","","","","","","","","","","","","",""
"","ISI","","html-keyboard-response","282","968619","0.0-1.0-435.0","0","0","87773","","null","","","null","48","NaN","","","","","","","","","","","","","","",""
"","S2","","html-keyboard-response","283","968872","0.0-1.0-436.0","0","0","87773","","null","","","null","48","","NaN","","","","","","","","","","","","","",""
"","response","","html-keyboard-response","284","968913","0.0-1.0-437.0-0.0","0","0","87773","","40","","","75","48","","","2","48","training","adjacent","ED","5","4","R.jpg","O.jpg","1","0","0","",""
"","feedback","","html-keyboard-response","285","969917","0.0-1.0-438.0-0.0","0","0","87773","","null","","","null","48","","","","","","","","","","","","","","","",""
"","time_out","","html-keyboard-response","286","971919","0.0-1.0-440.0-0.0","0","0","87773","","null","","","null","48","","","","","","","","","","","","","","","",""
"","ITI","","html-keyboard-response","287","972922","0.0-1.0-441.0","0","0","87773","","null","","","null","48","","","","","","","","","","","","","","","NaN",""
"","S1","","html-keyboard-response","288","973175","0.0-1.0-443.0","0","0","87773","","null","","","null","49","","","","","","","","","","","","","","","",""
"","ISI","","html-keyboard-response","289","974178","0.0-1.0-444.0","0","0","87773","","null","","","null","49","NaN","","","","","","","","","","","","","","",""
"","S2","","html-keyboard-response","290","974430","0.0-1.0-445.0","0","0","87773","","null","","","null","49","","NaN","","","","","","","","","","","","","",""
"","response","","html-keyboard-response","291","974447","0.0-1.0-446.0-0.0","0","0","87773","","16","","","75","49","","","2","49","training","adjacent","GF","7","6","Q.jpg","M.jpg","1","0","0","",""
"","feedback","","html-keyboard-response","292","975451","0.0-1.0-447.0-0.0","0","0","87773","","null","","","null","49","","","","","","","","","","","","","","","",""
"","time_out","","html-keyboard-response","293","977453","0.0-1.0-449.0-0.0","0","0","87773","","null","","","null","49","","","","","","","","","","","","","","","",""
"","ITI","","html-keyboard-response","294","978455","0.0-1.0-450.0","0","0","87773","","null","","","null","49","","","","","","","","","","","","","","","NaN",""
"","S1","","html-keyboard-response","295","978707","0.0-1.0-452.0","0","0","87773","","null","","","null","50","","","","","","","","","","","","","","","",""
"","ISI","","html-keyboard-response","296","979711","0.0-1.0-453.0","0","0","87773","","null","","","null","50","NaN","","","","","","","","","","","","","","",""
"","S2","","html-keyboard-response","297","979964","0.0-1.0-454.0","0","0","87773","","null","","","null","50","","NaN","","","","","","","","","","","","","",""
"","response","","html-keyboard-response","298","980149","0.0-1.0-455.0-0.0","0","0","87773","","183","","","75","50","","","2","50","training","adjacent","DC","4","3","O.jpg","L.jpg","1","0","0","",""
"","feedback","","html-keyboard-response","299","981151","0.0-1.0-456.0-0.0","0","0","87773","","null","","","null","50","","","","","","","","","","","","","","","",""
"","time_out","","html-keyboard-response","300","983153","0.0-1.0-458.0-0.0","0","0","87773","","null","","","null","50","","","","","","","","","","","","","","","",""
"","ITI","","html-keyboard-response","301","984156","0.0-1.0-459.0","0","0","87773","","null","","","null","50","","","","","","","","","","","","","","","NaN",""
"","S1","","html-keyboard-response","302","984408","0.0-1.0-461.0","0","0","87773","","null","","","null","51","","","","","","","","","","","","","","","",""
"","ISI","","html-keyboard-response","303","985410","0.0-1.0-462.0","0","0","87773","","null","","","null","51","NaN","","","","","","","","","","","","","","",""
"","S2","","html-keyboard-response","304","985649","0.0-1.0-463.0","0","0","87773","","237","","","75","51","","k","2","51","training","adjacent","FE","6","5","M.jpg","R.jpg","1","0","0","",""
"","feedback","","html-keyboard-response","305","986651","0.0-1.0-465.0-0.0","0","0","87773","","null","","","null","51","","","","","","","","","","","","","","","",""
"","time_out","","html-keyboard-response","306","988653","0.0-1.0-467.0-0.0","0","0","87773","","null","","","null","51","","","","","","","","","","","","","","","",""
"","ITI","","html-keyboard-response","307","989655","0.0-1.0-468.0","0","0","87773","","null","","","null","51","","","","","","","","","","","","","","","NaN",""
"","S1","","html-keyboard-response","308","989907","0.0-1.0-470.0","0","0","87773","","null","","","null","52","","","","","","","","","","","","","","","",""
"","ISI","","html-keyboard-response","309","990909","0.0-1.0-471.0","0","0","87773","","null","","","null","52","NaN","","","","","","","","","","","","","","",""
"","S2","","html-keyboard-response","310","991118","0.0-1.0-472.0","0","0","87773","","207","","","75","52","","k","2","52","training","adjacent","DE","4","5","O.jpg","R.jpg","1","1","1","",""
"","feedback","","html-keyboard-response","311","992120","0.0-1.0-474.0-0.0","0","0","87773","","null","","","null","52","","","","","","","","","","","","","","","",""
"","ITI","","html-keyboard-response","312","993124","0.0-1.0-477.0","0","0","87773","","null","","","null","52","","","","","","","","","","","","","","","NaN",""
"","S1","","html-keyboard-response","313","993376","0.0-1.0-479.0","0","0","87773","","null","","","null","53","","","","","","","","","","","","","","","",""
"","ISI","","html-keyboard-response","314","994378","0.0-1.0-480.0","0","0","87773","","null","","","null","53","NaN","","","","","","","","","","","","","","",""
"","S2","","html-keyboard-response","315","994631","0.0-1.0-481.0","0","0","87773","","null","","","null","53","","NaN","","","","","","","","","","","","","",""
"","response","","html-keyboard-response","316","994720","0.0-1.0-482.0-0.0","0","0","87773","","87","","","75","53","","","2","53","training","adjacent","FG","6","7","M.jpg","Q.jpg","1","1","1","",""
"","feedback","","html-keyboard-response","317","995722","0.0-1.0-483.0-0.0","0","0","87773","","null","","","null","53","","","","","","","","","","","","","","","",""
"","ITI","","html-keyboard-response","318","996725","0.0-1.0-486.0","0","0","87773","","null","","","null","53","","","","","","","","","","","","","","","NaN",""
"","S1","","html-keyboard-response","319","996978","0.0-1.0-488.0","0","0","87773","","null","","","null","54","","","","","","","","","","","","","","","",""
"","ISI","","html-keyboard-response","320","997981","0.0-1.0-489.0","0","0","87773","","null","","","null","54","NaN","","","","","","","","","","","","","","",""
"","S2","","html-keyboard-response","321","998233","0.0-1.0-490.0","0","0","87773","","null","","","null","54","","NaN","","","","","","","","","","","","","",""
"","response","","html-keyboard-response","322","998270","0.0-1.0-491.0-0.0","0","0","87773","","37","","","75","54","","","2","54","training","adjacent","DC","4","3","O.jpg","L.jpg","1","0","0","",""
"","feedback","","html-keyboard-response","323","999272","0.0-1.0-492.0-0.0","0","0","87773","","null","","","null","54","","","","","","","","","","","","","","","",""
"","time_out","","html-keyboard-response","324","1001274","0.0-1.0-494.0-0.0","0","0","87773","","null","","","null","54","","","","","","","","","","","","","","","",""
"","ITI","","html-keyboard-response","325","1002277","0.0-1.0-495.0","0","0","87773","","null","","","null","54","","","","","","","","","","","","","","","NaN",""
"","S1","","html-keyboard-response","326","1002530","0.0-1.0-497.0","0","0","87773","","null","","","null","55","","","","","","","","","","","","","","","",""
"","ISI","","html-keyboard-response","327","1003531","0.0-1.0-498.0","0","0","87773","","216","","","75","55","k","","","","","","","","","","","","","","",""
"","S2","","html-keyboard-response","328","1003784","0.0-1.0-499.0","0","0","87773","","null","","","null","55","","NaN","","","","","","","","","","","","","",""
"","response","","html-keyboard-response","329","1003824","0.0-1.0-500.0-0.0","0","0","87773","","39","","","75","55","","","2","55","training","adjacent","CB","3","2","L.jpg","N.jpg","1","0","0","",""
"","feedback","","html-keyboard-response","330","1004826","0.0-1.0-501.0-0.0","0","0","87773","","null","","","null","55","","","","","","","","","","","","","","","",""
"","time_out","","html-keyboard-response","331","1006829","0.0-1.0-503.0-0.0","0","0","87773","","null","","","null","55","","","","","","","","","","","","","","","",""
"","ITI","","html-keyboard-response","332","1007831","0.0-1.0-504.0","0","0","87773","","null","","","null","55","","","","","","","","","","","","","","","NaN",""
"","S1","","html-keyboard-response","333","1008085","0.0-1.0-506.0","0","0","87773","","null","","","null","56","","","","","","","","","","","","","","","",""
"","ISI","","html-keyboard-response","334","1009087","0.0-1.0-507.0","0","0","87773","","null","","","null","56","NaN","","","","","","","","","","","","","","",""
"","S2","","html-keyboard-response","335","1009330","0.0-1.0-508.0","0","0","87773","","242","","","75","56","","k","2","56","training","adjacent","DE","4","5","O.jpg","R.jpg","1","1","1","",""
"","feedback","","html-keyboard-response","336","1010332","0.0-1.0-510.0-0.0","0","0","87773","","null","","","null","56","","","","","","","","","","","","","","","",""
"","ITI","","html-keyboard-response","337","1011335","0.0-1.0-513.0","0","0","87773","","null","","","null","56","","","","","","","","","","","","","","","NaN",""
"","S1","","html-keyboard-response","338","1011588","0.0-1.0-515.0","0","0","87773","","null","","","null","57","","","","","","","","","","","","","","","",""
"","ISI","","html-keyboard-response","339","1012591","0.0-1.0-516.0","0","0","87773","","null","","","null","57","NaN","","","","","","","","","","","","","","",""
"","S2","","html-keyboard-response","340","1012858","0.0-1.0-517.0","0","0","87773","","null","","","null","57","","NaN","","","","","","","","","","","","","",""
"","response","","html-keyboard-response","341","1012869","0.0-1.0-518.0-0.0","0","0","87773","","9","","","75","57","","","2","57","training","adjacent","FG","6","7","M.jpg","Q.jpg","1","1","1","",""
"","feedback","","html-keyboard-response","342","1013872","0.0-1.0-519.0-0.0","0","0","87773","","null","","","null","57","","","","","","","","","","","","","","","",""
"","ITI","","html-keyboard-response","343","1014875","0.0-1.0-522.0","0","0","87773","","null","","","null","57","","","","","","","","","","","","","","","NaN",""
"","S1","","html-keyboard-response","344","1015128","0.0-1.0-524.0","0","0","87773","","null","","","null","58","","","","","","","","","","","","","","","",""
"","ISI","","html-keyboard-response","345","1016131","0.0-1.0-525.0","0","0","87773","","null","","","null","58","NaN","","","","","","","","","","","","","","",""
"","S2","","html-keyboard-response","346","1016369","0.0-1.0-526.0","0","0","87773","","237","","","75","58","","k","2","58","training","adjacent","EF","5","6","R.jpg","M.jpg","1","1","1","",""
"","feedback","","html-keyboard-response","347","1017372","0.0-1.0-528.0-0.0","0","0","87773","","null","","","null","58","","","","","","","","","","","","","","","",""
"","ITI","","html-keyboard-response","348","1018374","0.0-1.0-531.0","0","0","87773","","null","","","null","58","","","","","","","","","","","","","","","NaN",""
"","S1","","html-keyboard-response","349","1018627","0.0-1.0-533.0","0","0","87773","","null","","","null","59","","","","","","","","","","","","","","","",""
"","ISI","","html-keyboard-response","350","1019630","0.0-1.0-534.0","0","0","87773","","null","","","null","59","NaN","","","","","","","","","","","","","","",""
"","S2","","html-keyboard-response","351","1019882","0.0-1.0-535.0","0","0","87773","","null","","","null","59","","NaN","","","","","","","","","","","","","",""
"","response","","html-keyboard-response","352","1020123","0.0-1.0-536.0-0.0","0","0","87773","","240","","","75","59","","","2","59","training","adjacent","ED","5","4","R.jpg","O.jpg","1","0","0","",""
"","feedback","","html-keyboard-response","353","1021126","0.0-1.0-537.0-0.0","0","0","87773","","null","","","null","59","","","","","","","","","","","","","","","",""
"","time_out","","html-keyboard-response","354","1023129","0.0-1.0-539.0-0.0","0","0","87773","","null","","","null","59","","","","","","","","","","","","","","","",""
"","ITI","","html-keyboard-response","355","1024132","0.0-1.0-540.0","0","0","87773","","null","","","null","59","","","","","","","","","","","","","","","NaN",""
"","S1","","html-keyboard-response","356","1024384","0.0-1.0-542.0","0","0","87773","","null","","","null","60","","","","","","","","","","","","","","","",""
"","ISI","","html-keyboard-response","357","1025387","0.0-1.0-543.0","0","0","87773","","null","","","null","60","NaN","","","","","","","","","","","","","","",""
"","S2","","html-keyboard-response","358","1025640","0.0-1.0-544.0","0","0","87773","","null","","","null","60","","NaN","","","","","","","","","","","","","",""
"","response","","html-keyboard-response","359","1025748","0.0-1.0-545.0-0.0","0","0","87773","","107","","","75","60","","","2","60","training","adjacent","CD","3","4","L.jpg","O.jpg","1","1","1","",""
"","feedback","","html-keyboard-response","360","1026752","0.0-1.0-546.0-0.0","0","0","87773","","null","","","null","60","","","","","","","","","","","","","","","",""
"","ITI","","html-keyboard-response","361","1027754","0.0-1.0-549.0","0","0","87773","","null","","","null","60","","","","","","","","","","","","","","","NaN",""
"","S1","","html-keyboard-response","362","1028007","0.0-1.0-551.0","0","0","87773","","null","","","null","61","","","","","","","","","","","","","","","",""
"","ISI","","html-keyboard-response","363","1029010","0.0-1.0-552.0","0","0","87773","","null","","","null","61","NaN","","","","","","","","","","","","","","",""
"","S2","","html-keyboard-response","364","1029263","0.0-1.0-553.0","0","0","87773","","null","","","null","61","","NaN","","","","","","","","","","","","","",""
"","response","","html-keyboard-response","365","1029370","0.0-1.0-554.0-0.0","0","0","87773","","105","","","75","61","","","2","61","training","adjacent","BA","2","1","N.jpg","P.jpg","1","0","0","",""
"","feedback","","html-keyboard-response","366","1030372","0.0-1.0-555.0-0.0","0","0","87773","","null","","","null","61","","","","","","","","","","","","","","","",""
"","time_out","","html-keyboard-response","367","1032374","0.0-1.0-557.0-0.0","0","0","87773","","null","","","null","61","","","","","","","","","","","","","","","",""
"","ITI","","html-keyboard-response","368","1033377","0.0-1.0-558.0","0","0","87773","","null","","","null","61","","","","","","","","","","","","","","","NaN",""
"","S1","","html-keyboard-response","369","1033630","0.0-1.0-560.0","0","0","87773","","null","","","null","62","","","","","","","","","","","","","","","",""
"","ISI","","html-keyboard-response","370","1034632","0.0-1.0-561.0","0","0","87773","","null","","","null","62","NaN","","","","","","","","","","","","","","",""
"","S2","","html-keyboard-response","371","1034857","0.0-1.0-562.0","0","0","87773","","223","","","75","62","","k","2","62","training","adjacent","BC","2","3","N.jpg","L.jpg","1","1","1","",""
"","feedback","","html-keyboard-response","372","1035860","0.0-1.0-564.0-0.0","0","0","87773","","null","","","null","62","","","","","","","","","","","","","","","",""
"","ITI","","html-keyboard-response","373","1036862","0.0-1.0-567.0","0","0","87773","","null","","","null","62","","","","","","","","","","","","","","","NaN",""
"","S1","","html-keyboard-response","374","1037114","0.0-1.0-569.0","0","0","87773","","null","","","null","63","","","","","","","","","","","","","","","",""
"","ISI","","html-keyboard-response","375","1038116","0.0-1.0-570.0","0","0","87773","","null","","","null","63","NaN","","","","","","","","","","","","","","",""
"","S2","","html-keyboard-response","376","1038368","0.0-1.0-571.0","0","0","87773","","null","","","null","63","","NaN","","","","","","","","","","","","","",""
"","response","","html-keyboard-response","377","1038388","0.0-1.0-572.0-0.0","0","0","87773","","19","","","75","63","","","2","63","training","adjacent","EF","5","6","R.jpg","M.jpg","1","1","1","",""
"","feedback","","html-keyboard-response","378","1039391","0.0-1.0-573.0-0.0","0","0","87773","","null","","","null","63","","","","","","","","","","","","","","","",""
"","ITI","","html-keyboard-response","379","1040393","0.0-1.0-576.0","0","0","87773","","null","","","null","63","","","","","","","","","","","","","","","NaN",""
"","S1","","html-keyboard-response","380","1040646","0.0-1.0-578.0","0","0","87773","","null","","","null","64","","","","","","","","","","","","","","","",""
"","ISI","","html-keyboard-response","381","1041648","0.0-1.0-579.0","0","0","87773","","null","","","null","64","NaN","","","","","","","","","","","","","","",""
"","S2","","html-keyboard-response","382","1041902","0.0-1.0-580.0","0","0","87773","","null","","","null","64","","NaN","","","","","","","","","","","","","",""
"","response","","html-keyboard-response","383","1041940","0.0-1.0-581.0-0.0","0","0","87773","","38","","","75","64","","","2","64","training","adjacent","BA","2","1","N.jpg","P.jpg","1","0","0","",""
"","feedback","","html-keyboard-response","384","1042942","0.0-1.0-582.0-0.0","0","0","87773","","null","","","null","64","","","","","","","","","","","","","","","",""
"","time_out","","html-keyboard-response","385","1044944","0.0-1.0-584.0-0.0","0","0","87773","","null","","","null","64","","","","","","","","","","","","","","","",""
"","ITI","","html-keyboard-response","386","1045947","0.0-1.0-585.0","0","0","87773","","null","","","null","64","","","","","","","","","","","","","","","NaN",""
"","S1","","html-keyboard-response","387","1046199","0.0-1.0-587.0","0","0","87773","","null","","","null","65","","","","","","","","","","","","","","","",""
"","ISI","","html-keyboard-response","388","1047202","0.0-1.0-588.0","0","0","87773","","541","","","75","65","k","","","","","","","","","","","","","","",""
"","S2","","html-keyboard-response","389","1047455","0.0-1.0-589.0","0","0","87773","","null","","","null","65","","NaN","","","","","","","","","","","","","",""
"","response","","html-keyboard-response","390","1047547","0.0-1.0-590.0-0.0","0","0","87773","","91","","","75","65","","","2","65","training","adjacent","BC","2","3","N.jpg","L.jpg","1","1","1","",""
"","feedback","","html-keyboard-response","391","1048549","0.0-1.0-591.0-0.0","0","0","87773","","null","","","null","65","","","","","","","","","","","","","","","",""
"","ITI","","html-keyboard-response","392","1049552","0.0-1.0-594.0","0","0","87773","","null","","","null","65","","","","","","","","","","","","","","","NaN",""
"","S1","","html-keyboard-response","393","1049804","0.0-1.0-596.0","0","0","87773","","null","","","null","66","","","","","","","","","","","","","","","",""
"","ISI","","html-keyboard-response","394","1050807","0.0-1.0-597.0","0","0","87773","","null","","","null","66","NaN","","","","","","","","","","","","","","",""
"","S2","","html-keyboard-response","395","1051060","0.0-1.0-598.0","0","0","87773","","null","","","null","66","","NaN","","","","","","","","","","","","","",""
"","response","","html-keyboard-response","396","1051413","0.0-1.0-599.0-0.0","0","0","87773","","351","","","75","66","","","2","66","training","adjacent","AB","1","2","P.jpg","N.jpg","1","1","1","",""
"","feedback","","html-keyboard-response","397","1052416","0.0-1.0-600.0-0.0","0","0","87773","","null","","","null","66","","","","","","","","","","","","","","","",""
"","ITI","","html-keyboard-response","398","1053418","0.0-1.0-603.0","0","0","87773","","null","","","null","66","","","","","","","","","","","","","","","NaN",""
"","S1","","html-keyboard-response","399","1053670","0.0-1.0-605.0","0","0","87773","","null","","","null","67","","","","","","","","","","","","","","","",""
"","ISI","","html-keyboard-response","400","1054672","0.0-1.0-606.0","0","0","87773","","null","","","null","67","NaN","","","","","","","","","","","","","","",""
"","S2","","html-keyboard-response","401","1054924","0.0-1.0-607.0","0","0","87773","","null","","","null","67","","NaN","","","","","","","","","","","","","",""
"","response","","html-keyboard-response","402","1055094","0.0-1.0-608.0-0.0","0","0","87773","","168","","","75","67","","","2","67","training","adjacent","DC","4","3","O.jpg","L.jpg","1","0","0","",""
"","feedback","","html-keyboard-response","403","1056097","0.0-1.0-609.0-0.0","0","0","87773","","null","","","null","67","","","","","","","","","","","","","","","",""
"","time_out","","html-keyboard-response","404","1058099","0.0-1.0-611.0-0.0","0","0","87773","","null","","","null","67","","","","","","","","","","","","","","","",""
"","ITI","","html-keyboard-response","405","1059101","0.0-1.0-612.0","0","0","87773","","null","","","null","67","","","","","","","","","","","","","","","NaN",""
"","S1","","html-keyboard-response","406","1059354","0.0-1.0-614.0","0","0","87773","","null","","","null","68","","","","","","","","","","","","","","","",""
"","ISI","","html-keyboard-response","407","1060357","0.0-1.0-615.0","0","0","87773","","32","","","75","68","k","","","","","","","","","","","","","","",""
"","S2","","html-keyboard-response","408","1060515","0.0-1.0-616.0","0","0","87773","","156","","","75","68","","k","2","68","training","adjacent","DE","4","5","O.jpg","R.jpg","1","1","1","",""
"","feedback","","html-keyboard-response","409","1061517","0.0-1.0-618.0-0.0","0","0","87773","","null","","","null","68","","","","","","","","","","","","","","","",""
"","ITI","","html-keyboard-response","410","1062520","0.0-1.0-621.0","0","0","87773","","null","","","null","68","","","","","","","","","","","","","","","NaN",""
"","S1","","html-keyboard-response","411","1062772","0.0-1.0-623.0","0","0","87773","","null","","","null","69","","","","","","","","","","","","","","","",""
"","ISI","","html-keyboard-response","412","1063774","0.0-1.0-624.0","0","0","87773","","null","","","null","69","NaN","","","","","","","","","","","","","","",""
"","S2","","html-keyboard-response","413","1064026","0.0-1.0-625.0","0","0","87773","","null","","","null","69","","NaN","","","","","","","","","","","","","",""
"","response","","html-keyboard-response","414","1065779","0.0-1.0-626.0-0.0","0","0","87773","","null","","","null","69","","","2","69","training","adjacent","GF","7","6","Q.jpg","M.jpg","NaN","0","0","",""
"","too_slow_prompt","","html-keyboard-response","415","1066781","0.0-1.0-628.0-0.0","1","0","87773","","null","","","null","","","","","","","","","","","","","","","","",""
"","time_out","","html-keyboard-response","416","1068783","0.0-1.0-629.0-0.0","0","0","87773","","null","","","null","69","","","","","","","","","","","","","","","",""
"","ITI","","html-keyboard-response","417","1069785","0.0-1.0-630.0","0","0","87773","","null","","","null","69","","","","","","","","","","","","","","","NaN",""
"","S1","","html-keyboard-response","418","1070038","0.0-1.0-632.0","0","0","87773","","null","","","null","70","","","","","","","","","","","","","","","",""
"","ISI","","html-keyboard-response","419","1071051","0.0-1.0-633.0","0","0","87773","","null","","","null","70","NaN","","","","","","","","","","","","","","",""
"","S2","","html-keyboard-response","420","1071303","0.0-1.0-634.0","0","0","87773","","null","","","null","70","","NaN","","","","","","","","","","","","","",""
"","response","","html-keyboard-response","421","1071347","0.0-1.0-635.0-0.0","0","0","87773","","43","","","75","70","","","2","70","training","adjacent","CD","3","4","L.jpg","O.jpg","1","1","1","",""
"","feedback","","html-keyboard-response","422","1072351","0.0-1.0-636.0-0.0","0","0","87773","","null","","","null","70","","","","","","","","","","","","","","","",""
"","ITI","","html-keyboard-response","423","1073353","0.0-1.0-639.0","0","0","87773","","null","","","null","70","","","","","","","","","","","","","","","NaN",""
"","S1","","html-keyboard-response","424","1073606","0.0-1.0-641.0","0","0","87773","","null","","","null","71","","","","","","","","","","","","","","","",""
"","ISI","","html-keyboard-response","425","1074608","0.0-1.0-642.0","0","0","87773","","null","","","null","71","NaN","","","","","","","","","","","","","","",""
"","S2","","html-keyboard-response","426","1074861","0.0-1.0-643.0","0","0","87773","","null","","","null","71","","NaN","","","","","","","","","","","","","",""
"","response","","html-keyboard-response","427","1074987","0.0-1.0-644.0-0.0","0","0","87773","","124","","","68","71","","","2","71","training","adjacent","CB","3","2","L.jpg","N.jpg","0","0","1","",""
"","feedback","","html-keyboard-response","428","1075989","0.0-1.0-645.0-0.0","0","0","87773","","null","","","null","71","","","","","","","","","","","","","","","",""
"","ITI","","html-keyboard-response","429","1077003","0.0-1.0-648.0","0","0","87773","","null","","","null","71","","","","","","","","","","","","","","","NaN",""
"","S1","","html-keyboard-response","430","1077255","0.0-1.0-650.0","0","0","87773","","null","","","null","72","","","","","","","","","","","","","","","",""
"","ISI","","html-keyboard-response","431","1078257","0.0-1.0-651.0","0","0","87773","","null","","","null","72","NaN","","","","","","","","","","","","","","",""
"","S2","","html-keyboard-response","432","1078509","0.0-1.0-652.0","0","0","87773","","null","","","null","72","","NaN","","","","","","","","","","","","","",""
"","response","","html-keyboard-response","433","1078574","0.0-1.0-653.0-0.0","0","0","87773","","64","","","68","72","","","2","72","training","adjacent","BC","2","3","N.jpg","L.jpg","0","1","0","",""
"","feedback","","html-keyboard-response","434","1079576","0.0-1.0-654.0-0.0","0","0","87773","","null","","","null","72","","","","","","","","","","","","","","","",""
"","time_out","","html-keyboard-response","435","1081579","0.0-1.0-656.0-0.0","0","0","87773","","null","","","null","72","","","","","","","","","","","","","","","",""
"","ITI","","html-keyboard-response","436","1082581","0.0-1.0-657.0","0","0","87773","","null","","","null","72","","","","","","","","","","","","","","","NaN",""
"","S1","","html-keyboard-response","437","1082833","0.0-1.0-659.0","0","0","87773","","null","","","null","73","","","","","","","","","","","","","","","",""
"","ISI","","html-keyboard-response","438","1083836","0.0-1.0-660.0","0","0","87773","","null","","","null","73","NaN","","","","","","","","","","","","","","",""
"","S2","","html-keyboard-response","439","1084089","0.0-1.0-661.0","0","0","87773","","null","","","null","73","","NaN","","","","","","","","","","","","","",""
"","response","","html-keyboard-response","440","1084119","0.0-1.0-662.0-0.0","0","0","87773","","29","","","68","73","","","2","73","training","adjacent","AB","1","2","P.jpg","N.jpg","0","1","0","",""
"","feedback","","html-keyboard-response","441","1085122","0.0-1.0-663.0-0.0","0","0","87773","","null","","","null","73","","","","","","","","","","","","","","","",""
"","time_out","","html-keyboard-response","442","1087124","0.0-1.0-665.0-0.0","0","0","87773","","null","","","null","73","","","","","","","","","","","","","","","",""
"","ITI","","html-keyboard-response","443","1088125","0.0-1.0-666.0","0","0","87773","","null","","","null","73","","","","","","","","","","","","","","","NaN",""
"","S1","","html-keyboard-response","444","1088377","0.0-1.0-668.0","0","0","87773","","null","","","null","74","","","","","","","","","","","","","","","",""
"","ISI","","html-keyboard-response","445","1089379","0.0-1.0-669.0","0","0","87773","","null","","","null","74","NaN","","","","","","","","","","","","","","",""
"","S2","","html-keyboard-response","446","1089620","0.0-1.0-670.0","0","0","87773","","239","","","75","74","","k","2","74","training","adjacent","FE","6","5","M.jpg","R.jpg","1","0","0","",""
"","feedback","","html-keyboard-response","447","1090622","0.0-1.0-672.0-0.0","0","0","87773","","null","","","null","74","","","","","","","","","","","","","","","",""
"","time_out","","html-keyboard-response","448","1092624","0.0-1.0-674.0-0.0","0","0","87773","","null","","","null","74","","","","","","","","","","","","","","","",""
"","ITI","","html-keyboard-response","449","1093627","0.0-1.0-675.0","0","0","87773","","null","","","null","74","","","","","","","","","","","","","","","NaN",""
"","S1","","html-keyboard-response","450","1093879","0.0-1.0-677.0","0","0","87773","","null","","","null","75","","","","","","","","","","","","","","","",""
"","ISI","","html-keyboard-response","451","1094882","0.0-1.0-678.0","0","0","87773","","null","","","null","75","NaN","","","","","","","","","","","","","","",""
"","S2","","html-keyboard-response","452","1095135","0.0-1.0-679.0","0","0","87773","","null","","","null","75","","NaN","","","","","","","","","","","","","",""
"","response","","html-keyboard-response","453","1095294","0.0-1.0-680.0-0.0","0","0","87773","","158","","","75","75","","","2","75","training","adjacent","FG","6","7","M.jpg","Q.jpg","1","1","1","",""
"","feedback","","html-keyboard-response","454","1096297","0.0-1.0-681.0-0.0","0","0","87773","","null","","","null","75","","","","","","","","","","","","","","","",""
"","ITI","","html-keyboard-response","455","1097299","0.0-1.0-684.0","0","0","87773","","null","","","null","75","","","","","","","","","","","","","","","NaN",""
"","S1","","html-keyboard-response","456","1097560","0.0-1.0-686.0","0","0","87773","","null","","","null","76","","","","","","","","","","","","","","","",""
"","ISI","","html-keyboard-response","457","1098572","0.0-1.0-687.0","0","0","87773","","null","","","null","76","NaN","","","","","","","","","","","","","","",""
"","S2","","html-keyboard-response","458","1098825","0.0-1.0-688.0","0","0","87773","","null","","","null","76","","NaN","","","","","","","","","","","","","",""
"","response","","html-keyboard-response","459","1098840","0.0-1.0-689.0-0.0","0","0","87773","","13","","","75","76","","","2","76","training","adjacent","BA","2","1","N.jpg","P.jpg","1","0","0","",""
"","feedback","","html-keyboard-response","460","1099843","0.0-1.0-690.0-0.0","0","0","87773","","null","","","null","76","","","","","","","","","","","","","","","",""
"","time_out","","html-keyboard-response","461","1101845","0.0-1.0-692.0-0.0","0","0","87773","","null","","","null","76","","","","","","","","","","","","","","","",""
"","ITI","","html-keyboard-response","462","1102848","0.0-1.0-693.0","0","0","87773","","null","","","null","76","","","","","","","","","","","","","","","NaN",""
"","S1","","html-keyboard-response","463","1103101","0.0-1.0-695.0","0","0","87773","","null","","","null","77","","","","","","","","","","","","","","","",""
"","ISI","","html-keyboard-response","464","1104103","0.0-1.0-696.0","0","0","87773","","null","","","null","77","NaN","","","","","","","","","","","","","","",""
"","S2","","html-keyboard-response","465","1104293","0.0-1.0-697.0","0","0","87773","","189","","","75","77","","k","2","77","training","adjacent","BC","2","3","N.jpg","L.jpg","1","1","1","",""
"","feedback","","html-keyboard-response","466","1105295","0.0-1.0-699.0-0.0","0","0","87773","","null","","","null","77","","","","","","","","","","","","","","","",""
"","ITI","","html-keyboard-response","467","1106298","0.0-1.0-702.0","0","0","87773","","null","","","null","77","","","","","","","","","","","","","","","NaN",""
"","S1","","html-keyboard-response","468","1106550","0.0-1.0-704.0","0","0","87773","","null","","","null","78","","","","","","","","","","","","","","","",""
"","ISI","","html-keyboard-response","469","1107560","0.0-1.0-705.0","0","0","87773","","null","","","null","78","NaN","","","","","","","","","","","","","","",""
"","S2","","html-keyboard-response","470","1107770","0.0-1.0-706.0","0","0","87773","","209","","","75","78","","k","2","78","training","adjacent","EF","5","6","R.jpg","M.jpg","1","1","1","",""
"","feedback","","html-keyboard-response","471","1108774","0.0-1.0-708.0-0.0","0","0","87773","","null","","","null","78","","","","","","","","","","","","","","","",""
"","ITI","","html-keyboard-response","472","1109777","0.0-1.0-711.0","0","0","87773","","null","","","null","78","","","","","","","","","","","","","","","NaN",""
"","S1","","html-keyboard-response","473","1110030","0.0-1.0-713.0","0","0","87773","","null","","","null","79","","","","","","","","","","","","","","","",""
"","ISI","","html-keyboard-response","474","1111032","0.0-1.0-714.0","0","0","87773","","null","","","null","79","NaN","","","","","","","","","","","","","","",""
"","S2","","html-keyboard-response","475","1111285","0.0-1.0-715.0","0","0","87773","","null","","","null","79","","NaN","","","","","","","","","","","","","",""
"","response","","html-keyboard-response","476","1111298","0.0-1.0-716.0-0.0","0","0","87773","","13","","","75","79","","","2","79","training","adjacent","BA","2","1","N.jpg","P.jpg","1","0","0","",""
"","feedback","","html-keyboard-response","477","1112302","0.0-1.0-717.0-0.0","0","0","87773","","null","","","null","79","","","","","","","","","","","","","","","",""
"","time_out","","html-keyboard-response","478","1114304","0.0-1.0-719.0-0.0","0","0","87773","","null","","","null","79","","","","","","","","","","","","","","","",""
"","ITI","","html-keyboard-response","479","1115307","0.0-1.0-720.0","0","0","87773","","null","","","null","79","","","","","","","","","","","","","","","NaN",""
"","S1","","html-keyboard-response","480","1115559","0.0-1.0-722.0","0","0","87773","","null","","","null","80","","","","","","","","","","","","","","","",""
"","ISI","","html-keyboard-response","481","1116562","0.0-1.0-723.0","0","0","87773","","null","","","null","80","NaN","","","","","","","","","","","","","","",""
"","S2","","html-keyboard-response","482","1116814","0.0-1.0-724.0","0","0","87773","","null","","","null","80","","NaN","","","","","","","","","","","","","",""
"","response","","html-keyboard-response","483","1117184","0.0-1.0-725.0-0.0","0","0","87773","","370","","","75","80","","","2","80","training","adjacent","DE","4","5","O.jpg","R.jpg","1","1","1","",""
"","feedback","","html-keyboard-response","484","1118186","0.0-1.0-726.0-0.0","0","0","87773","","null","","","null","80","","","","","","","","","","","","","","","",""
"","ITI","","html-keyboard-response","485","1119189","0.0-1.0-729.0","0","0","87773","","null","","","null","80","","","","","","","","","","","","","","","NaN",""
"","S1","","html-keyboard-response","486","1119441","0.0-1.0-731.0","0","0","87773","","null","","","null","81","","","","","","","","","","","","","","","",""
"","ISI","","html-keyboard-response","487","1120444","0.0-1.0-732.0","0","0","87773","","null","","","null","81","NaN","","","","","","","","","","","","","","",""
"","S2","","html-keyboard-response","488","1120697","0.0-1.0-733.0","0","0","87773","","null","","","null","81","","NaN","","","","","","","","","","","","","",""
"","response","","html-keyboard-response","489","1120811","0.0-1.0-734.0-0.0","0","0","87773","","112","","","75","81","","","2","81","training","adjacent","ED","5","4","R.jpg","O.jpg","1","0","0","",""
"","feedback","","html-keyboard-response","490","1121812","0.0-1.0-735.0-0.0","0","0","87773","","null","","","null","81","","","","","","","","","","","","","","","",""
"","time_out","","html-keyboard-response","491","1123815","0.0-1.0-737.0-0.0","0","0","87773","","null","","","null","81","","","","","","","","","","","","","","","",""
"","ITI","","html-keyboard-response","492","1124817","0.0-1.0-738.0","0","0","87773","","null","","","null","81","","","","","","","","","","","","","","","NaN",""
"","S1","","html-keyboard-response","493","1125069","0.0-1.0-740.0","0","0","87773","","null","","","null","82","","","","","","","","","","","","","","","",""
"","ISI","","html-keyboard-response","494","1126072","0.0-1.0-741.0","0","0","87773","","null","","","null","82","NaN","","","","","","","","","","","","","","",""
"","S2","","html-keyboard-response","495","1126271","0.0-1.0-742.0","0","0","87773","","197","","","75","82","","k","2","82","training","adjacent","CB","3","2","L.jpg","N.jpg","1","0","0","",""
"","feedback","","html-keyboard-response","496","1127273","0.0-1.0-744.0-0.0","0","0","87773","","null","","","null","82","","","","","","","","","","","","","","","",""
"","time_out","","html-keyboard-response","497","1129276","0.0-1.0-746.0-0.0","0","0","87773","","null","","","null","82","","","","","","","","","","","","","","","",""
"","ITI","","html-keyboard-response","498","1130278","0.0-1.0-747.0","0","0","87773","","null","","","null","82","","","","","","","","","","","","","","","NaN",""
"","S1","","html-keyboard-response","499","1130531","0.0-1.0-749.0","0","0","87773","","null","","","null","83","","","","","","","","","","","","","","","",""
"","ISI","","html-keyboard-response","500","1131534","0.0-1.0-750.0","0","0","87773","","null","","","null","83","NaN","","","","","","","","","","","","","","",""
"","S2","","html-keyboard-response","501","1131787","0.0-1.0-751.0","0","0","87773","","null","","","null","83","","NaN","","","","","","","","","","","","","",""
"","response","","html-keyboard-response","502","1131868","0.0-1.0-752.0-0.0","0","0","87773","","80","","","75","83","","","2","83","training","adjacent","CD","3","4","L.jpg","O.jpg","1","1","1","",""
"","feedback","","html-keyboard-response","503","1132869","0.0-1.0-753.0-0.0","0","0","87773","","null","","","null","83","","","","","","","","","","","","","","","",""
"","ITI","","html-keyboard-response","504","1133872","0.0-1.0-756.0","0","0","87773","","null","","","null","83","","","","","","","","","","","","","","","NaN",""
"","S1","","html-keyboard-response","505","1134125","0.0-1.0-758.0","0","0","87773","","null","","","null","84","","","","","","","","","","","","","","","",""
"","ISI","","html-keyboard-response","506","1135129","0.0-1.0-759.0","0","0","87773","","null","","","null","84","NaN","","","","","","","","","","","","","","",""
"","S2","","html-keyboard-response","507","1135380","0.0-1.0-760.0","0","0","87773","","250","","","75","84","","k","2","84","training","adjacent","GF","7","6","Q.jpg","M.jpg","1","0","0","",""
"","feedback","","html-keyboard-response","508","1136384","0.0-1.0-762.0-0.0","0","0","87773","","null","","","null","84","","","","","","","","","","","","","","","",""
"","time_out","","html-keyboard-response","509","1138386","0.0-1.0-764.0-0.0","0","0","87773","","null","","","null","84","","","","","","","","","","","","","","","",""
"","ITI","","html-keyboard-response","510","1139388","0.0-1.0-765.0","0","0","87773","","null","","","null","84","","","","","","","","","","","","","","","NaN",""
"","S1","","html-keyboard-response","511","1139640","0.0-1.0-767.0","0","0","87773","","null","","","null","85","","","","","","","","","","","","","","","",""
"","ISI","","html-keyboard-response","512","1140643","0.0-1.0-768.0","0","0","87773","","null","","","null","85","NaN","","","","","","","","","","","","","","",""
"","S2","","html-keyboard-response","513","1140845","0.0-1.0-769.0","0","0","87773","","201","","","75","85","","k","2","85","training","adjacent","CB","3","2","L.jpg","N.jpg","1","0","0","",""
"","feedback","","html-keyboard-response","514","1141847","0.0-1.0-771.0-0.0","0","0","87773","","null","","","null","85","","","","","","","","","","","","","","","",""
"","time_out","","html-keyboard-response","515","1143849","0.0-1.0-773.0-0.0","0","0","87773","","null","","","null","85","","","","","","","","","","","","","","","",""
"","ITI","","html-keyboard-response","516","1144852","0.0-1.0-774.0","0","0","87773","","643","","","75","85","","","","","","","","","","","","","","","k",""
"","S1","","html-keyboard-response","517","1145104","0.0-1.0-776.0","0","0","87773","","null","","","null","86","","","","","","","","","","","","","","","",""
"","ISI","","html-keyboard-response","518","1146106","0.0-1.0-777.0","0","0","87773","","853","","","75","86","k","","","","","","","","","","","","","","",""
"","S2","","html-keyboard-response","519","1146181","0.0-1.0-778.0","0","0","87773","","74","","","75","86","","k","2","86","training","adjacent","AB","1","2","P.jpg","N.jpg","1","1","1","",""
"","feedback","","html-keyboard-response","520","1147184","0.0-1.0-780.0-0.0","0","0","87773","","null","","","null","86","","","","","","","","","","","","","","","",""
"","ITI","","html-keyboard-response","521","1148187","0.0-1.0-783.0","0","0","87773","","null","","","null","86","","","","","","","","","","","","","","","NaN",""
"","S1","","html-keyboard-response","522","1148440","0.0-1.0-785.0","0","0","87773","","null","","","null","87","","","","","","","","","","","","","","","",""
"","ISI","","html-keyboard-response","523","1149443","0.0-1.0-786.0","0","0","87773","","null","","","null","87","NaN","","","","","","","","","","","","","","",""
"","S2","","html-keyboard-response","524","1149679","0.0-1.0-787.0","0","0","87773","","236","","","75","87","","k","2","87","training","adjacent","FE","6","5","M.jpg","R.jpg","1","0","0","",""
"","feedback","","html-keyboard-response","525","1150683","0.0-1.0-789.0-0.0","0","0","87773","","null","","","null","87","","","","","","","","","","","","","","","",""
"","time_out","","html-keyboard-response","526","1152685","0.0-1.0-791.0-0.0","0","0","87773","","null","","","null","87","","","","","","","","","","","","","","","",""
"","ITI","","html-keyboard-response","527","1153687","0.0-1.0-792.0","0","0","87773","","null","","","null","87","","","","","","","","","","","","","","","NaN",""
"","S1","","html-keyboard-response","528","1153940","0.0-1.0-794.0","0","0","87773","","null","","","null","88","","","","","","","","","","","","","","","",""
"","ISI","","html-keyboard-response","529","1154942","0.0-1.0-795.0","0","0","87773","","71","","","75","88","k","","","","","","","","","","","","","","",""
"","S2","","html-keyboard-response","530","1155182","0.0-1.0-796.0","0","0","87773","","238","","","75","88","","k","2","88","training","adjacent","ED","5","4","R.jpg","O.jpg","1","0","0","",""
"","feedback","","html-keyboard-response","531","1156184","0.0-1.0-798.0-0.0","0","0","87773","","null","","","null","88","","","","","","","","","","","","","","","",""
"","time_out","","html-keyboard-response","532","1158186","0.0-1.0-800.0-0.0","0","0","87773","","null","","","null","88","","","","","","","","","","","","","","","",""
"","ITI","","html-keyboard-response","533","1159188","0.0-1.0-801.0","0","0","87773","","null","","","null","88","","","","","","","","","","","","","","","NaN",""
"","S1","","html-keyboard-response","534","1159441","0.0-1.0-803.0","0","0","87773","","null","","","null","89","","","","","","","","","","","","","","","",""
"","ISI","","html-keyboard-response","535","1160444","0.0-1.0-804.0","0","0","87773","","null","","","null","89","NaN","","","","","","","","","","","","","","",""
"","S2","","html-keyboard-response","536","1160696","0.0-1.0-805.0","0","0","87773","","null","","","null","89","","NaN","","","","","","","","","","","","","",""
"","response","","html-keyboard-response","537","1161453","0.0-1.0-806.0-0.0","0","0","87773","","756","","","75","89","","","2","89","training","adjacent","FG","6","7","M.jpg","Q.jpg","1","1","1","",""
"","feedback","","html-keyboard-response","538","1162456","0.0-1.0-807.0-0.0","0","0","87773","","null","","","null","89","","","","","","","","","","","","","","","",""
"","ITI","","html-keyboard-response","539","1163460","0.0-1.0-810.0","0","0","87773","","null","","","null","89","","","","","","","","","","","","","","","NaN",""
"","S1","","html-keyboard-response","540","1163713","0.0-1.0-812.0","0","0","87773","","null","","","null","90","","","","","","","","","","","","","","","",""
"","ISI","","html-keyboard-response","541","1164715","0.0-1.0-813.0","0","0","87773","","null","","","null","90","NaN","","","","","","","","","","","","","","",""
"","S2","","html-keyboard-response","542","1164968","0.0-1.0-814.0","0","0","87773","","null","","","null","90","","NaN","","","","","","","","","","","","","",""
"","response","","html-keyboard-response","543","1165291","0.0-1.0-815.0-0.0","0","0","87773","","322","","","75","90","","","2","90","training","adjacent","FE","6","5","M.jpg","R.jpg","1","0","0","",""
"","feedback","","html-keyboard-response","544","1166294","0.0-1.0-816.0-0.0","0","0","87773","","null","","","null","90","","","","","","","","","","","","","","","",""
"","time_out","","html-keyboard-response","545","1168296","0.0-1.0-818.0-0.0","0","0","87773","","null","","","null","90","","","","","","","","","","","","","","","",""
"","ITI","","html-keyboard-response","546","1169299","0.0-1.0-819.0","0","0","87773","","null","","","null","90","","","","","","","","","","","","","","","NaN",""
"","S1","","html-keyboard-response","547","1169552","0.0-1.0-821.0","0","0","87773","","null","","","null","91","","","","","","","","","","","","","","","",""
"","ISI","","html-keyboard-response","548","1170556","0.0-1.0-822.0","0","0","87773","","null","","","null","91","NaN","","","","","","","","","","","","","","",""
"","S2","","html-keyboard-response","549","1170722","0.0-1.0-823.0","0","0","87773","","166","","","75","91","","k","2","91","training","adjacent","EF","5","6","R.jpg","M.jpg","1","1","1","",""
"","feedback","","html-keyboard-response","550","1171725","0.0-1.0-825.0-0.0","0","0","87773","","null","","","null","91","","","","","","","","","","","","","","","",""
"","ITI","","html-keyboard-response","551","1172727","0.0-1.0-828.0","0","0","87773","","null","","","null","91","","","","","","","","","","","","","","","NaN",""
"","S1","","html-keyboard-response","552","1172979","0.0-1.0-830.0","0","0","87773","","null","","","null","92","","","","","","","","","","","","","","","",""
"","ISI","","html-keyboard-response","553","1173983","0.0-1.0-831.0","0","0","87773","","null","","","null","92","NaN","","","","","","","","","","","","","","",""
"","S2","","html-keyboard-response","554","1174186","0.0-1.0-832.0","0","0","87773","","201","","","75","92","","k","2","92","training","adjacent","GF","7","6","Q.jpg","M.jpg","1","0","0","",""
"","feedback","","html-keyboard-response","555","1175188","0.0-1.0-834.0-0.0","0","0","87773","","null","","","null","92","","","","","","","","","","","","","","","",""
"","time_out","","html-keyboard-response","556","1177191","0.0-1.0-836.0-0.0","0","0","87773","","null","","","null","92","","","","","","","","","","","","","","","",""
"","ITI","","html-keyboard-response","557","1178193","0.0-1.0-837.0","0","0","87773","","null","","","null","92","","","","","","","","","","","","","","","NaN",""
"","S1","","html-keyboard-response","558","1178446","0.0-1.0-839.0","0","0","87773","","null","","","null","93","","","","","","","","","","","","","","","",""
"","ISI","","html-keyboard-response","559","1179449","0.0-1.0-840.0","0","0","87773","","null","","","null","93","NaN","","","","","","","","","","","","","","",""
"","S2","","html-keyboard-response","560","1179636","0.0-1.0-841.0","0","0","87773","","185","","","75","93","","k","2","93","training","adjacent","DC","4","3","O.jpg","L.jpg","1","0","0","",""
"","feedback","","html-keyboard-response","561","1180639","0.0-1.0-843.0-0.0","0","0","87773","","null","","","null","93","","","","","","","","","","","","","","","",""
"","time_out","","html-keyboard-response","562","1182641","0.0-1.0-845.0-0.0","0","0","87773","","null","","","null","93","","","","","","","","","","","","","","","",""
"","ITI","","html-keyboard-response","563","1183644","0.0-1.0-846.0","0","0","87773","","null","","","null","93","","","","","","","","","","","","","","","NaN",""
"","S1","","html-keyboard-response","564","1183897","0.0-1.0-848.0","0","0","87773","","null","","","null","94","","","","","","","","","","","","","","","",""
"","ISI","","html-keyboard-response","565","1184899","0.0-1.0-849.0","0","0","87773","","null","","","null","94","NaN","","","","","","","","","","","","","","",""
"","S2","","html-keyboard-response","566","1185086","0.0-1.0-850.0","0","0","87773","","185","","","75","94","","k","2","94","training","adjacent","AB","1","2","P.jpg","N.jpg","1","1","1","",""
"","feedback","","html-keyboard-response","567","1186088","0.0-1.0-852.0-0.0","0","0","87773","","null","","","null","94","","","","","","","","","","","","","","","",""
"","ITI","","html-keyboard-response","568","1187091","0.0-1.0-855.0","0","0","87773","","null","","","null","94","","","","","","","","","","","","","","","NaN",""
"","S1","","html-keyboard-response","569","1187344","0.0-1.0-857.0","0","0","87773","","null","","","null","95","","","","","","","","","","","","","","","",""
"","ISI","","html-keyboard-response","570","1188345","0.0-1.0-858.0","0","0","87773","","null","","","null","95","NaN","","","","","","","","","","","","","","",""
"","S2","","html-keyboard-response","571","1188545","0.0-1.0-859.0","0","0","87773","","198","","","75","95","","k","2","95","training","adjacent","CD","3","4","L.jpg","O.jpg","1","1","1","",""
"","feedback","","html-keyboard-response","572","1189547","0.0-1.0-861.0-0.0","0","0","87773","","null","","","null","95","","","","","","","","","","","","","","","",""
"","ITI","","html-keyboard-response","573","1190549","0.0-1.0-864.0","0","0","87773","","null","","","null","95","","","","","","","","","","","","","","","NaN",""
"","block_over","","html-keyboard-response","574","1462671","0.0-1.0-865.0-0.0","0","0","87773","","272120","","","32","95","","","","","","","","","","","","","","","",""
"","S1","","html-keyboard-response","575","1462923","0.0-1.0-866.0","0","0","87773","","null","","","null","96","","","","","","","","","","","","","","","",""
"","ISI","","html-keyboard-response","576","1463925","0.0-1.0-867.0","0","0","87773","","null","","","null","96","NaN","","","","","","","","","","","","","","",""
"","S2","","html-keyboard-response","577","1464178","0.0-1.0-868.0","0","0","87773","","null","","","null","96","","NaN","","","","","","","","","","","","","",""
"","response","","html-keyboard-response","578","1464185","0.0-1.0-869.0-0.0","0","0","87773","","6","","","75","96","","","3","96","training","adjacent","ED","5","4","R.jpg","O.jpg","1","0","0","",""
"","feedback","","html-keyboard-response","579","1465187","0.0-1.0-870.0-0.0","0","0","87773","","null","","","null","96","","","","","","","","","","","","","","","",""
"","time_out","","html-keyboard-response","580","1467190","0.0-1.0-872.0-0.0","0","0","87773","","null","","","null","96","","","","","","","","","","","","","","","",""
