"success","ttype","start_time","trial_type","trial_index","time_elapsed","internal_node_id","warning","missed_checkup","PID","view_history","rt","responses","repeat_instructions","key_press","index","keypress_isi","keypress_S2","block","trial_num","phase","group_type","pair_type","S1_stim","S2_stim","S1_img","S2_img","S1_chosen","S1_higher","accuracy","keypress_iti","total_bonus_tally"
"true","full_screen","d04062023hr2007","fullscreen","0","9729","0.0-0.0","0","0","13217","","","","","","","","","","","","","","","","","","","","","",""
"","instructions","","instructions","1","168906","0.0-1.0-0.0-0.0","0","0","13217","[{""page_index"":0,""viewing_time"":3534},{""page_index"":1,""viewing_time"":144893},{""page_index"":2,""viewing_time"":8932},{""page_index"":3,""viewing_time"":1810}]","159171","","","","","","","","","","","","","","","","","","","",""
"","comprehension_check","","survey-multi-choice","2","194631","0.0-1.0-0.0-1.0","0","0","13217","","25715","{""Q0"":""True"",""Q1"":""D"",""Q2"":""Only when the screen 'MAKE A CHOICE' is shown"",""Q3"":""Green mark"",""Q4"":""either D or K""}","1","","","","","","","","","","","","","","","","","",""
"","missed_instruction_checkup","","html-keyboard-response","3","196929","0.0-1.0-0.0-2.0-0.0","0","1","13217","","2288","","","32","","","","","","","","","","","","","","","","",""
"","instructions","","instructions","4","209669","0.0-1.0-0.1-0.1","0","0","13217","[{""page_index"":0,""viewing_time"":1870},{""page_index"":1,""viewing_time"":8262},{""page_index"":2,""viewing_time"":1379},{""page_index"":3,""viewing_time"":1223}]","12735","","","","","","","","","","","","","","","","","","","",""
"","comprehension_check","","survey-multi-choice","5","218348","0.0-1.0-0.1-1.1","0","0","13217","","8667","{""Q0"":""True"",""Q1"":""D"",""Q2"":""Once the second image appears and while the screen 'MAKE A CHOICE' is shown"",""Q3"":""Green mark"",""Q4"":""either D or K""}","1","","","","","","","","","","","","","","","","","",""
"","missed_instruction_checkup","","html-keyboard-response","6","220108","0.0-1.0-0.1-2.1-0.1","0","1","13217","","1755","","","32","","","","","","","","","","","","","","","","",""
"","instructions","","instructions","7","236983","0.0-1.0-0.2-0.2","0","0","13217","[{""page_index"":0,""viewing_time"":1744},{""page_index"":1,""viewing_time"":13540},{""page_index"":2,""viewing_time"":824},{""page_index"":3,""viewing_time"":762}]","16871","","","","","","","","","","","","","","","","","","","",""
"","comprehension_check","","survey-multi-choice","8","248277","0.0-1.0-0.2-1.2","0","0","13217","","11284","{""Q0"":""True"",""Q1"":""K"",""Q2"":""Once the second image appears and while the screen 'MAKE A CHOICE' is shown"",""Q3"":""Green mark"",""Q4"":""either D or K""}","0","","","","","","","","","","","","","","","","","",""
"","start_exp","","html-keyboard-response","9","251502","0.0-1.0-1.0","0","0","13217","","3220","","","32","","","","","","","","","","","","","","","","",""
"","S1","","html-keyboard-response","10","251664","0.0-1.0-2.0","0","0","13217","","null","","","null","0","","","","","","","","","","","","","","","",""
"","ISI","","html-keyboard-response","11","253670","0.0-1.0-3.0","0","0","13217","","null","","","null","0","NaN","","","","","","","","","","","","","","",""
"","S2","","html-keyboard-response","12","253831","0.0-1.0-4.0","0","0","13217","","null","","","null","0","","NaN","","","","","","","","","","","","","",""
"","response","","html-keyboard-response","13","254583","0.0-1.0-5.0-0.0","0","0","13217","","746","","","75","0","","","1","0","training","adjacent","FE","6","5","L.jpg","R.jpg","1","0","0","",""
"","feedback","","html-keyboard-response","14","255592","0.0-1.0-6.0-0.0","0","0","13217","","null","","","null","0","","","","","","","","","","","","","","","",""
"","time_out","","html-keyboard-response","15","257599","0.0-1.0-8.0-0.0","0","0","13217","","null","","","null","0","","","","","","","","","","","","","","","",""
"","ITI","","html-keyboard-response","16","258608","0.0-1.0-9.0","0","0","13217","","null","","","null","0","","","","","","","","","","","","","","","NaN",""
"","S1","","html-keyboard-response","17","258767","0.0-1.0-11.0","0","0","13217","","null","","","null","1","","","","","","","","","","","","","","","",""
"","ISI","","html-keyboard-response","18","260776","0.0-1.0-12.0","0","0","13217","","null","","","null","1","NaN","","","","","","","","","","","","","","",""
"","S2","","html-keyboard-response","19","260937","0.0-1.0-13.0","0","0","13217","","null","","","null","1","","NaN","","","","","","","","","","","","","",""
"","response","","html-keyboard-response","20","261501","0.0-1.0-14.0-0.0","0","0","13217","","559","","","75","1","","","1","1","training","adjacent","DE","4","5","M.jpg","R.jpg","1","1","1","",""
"","feedback","","html-keyboard-response","21","262512","0.0-1.0-15.0-0.0","0","0","13217","","null","","","null","1","","","","","","","","","","","","","","","",""
"","ITI","","html-keyboard-response","22","263519","0.0-1.0-18.0","0","0","13217","","null","","","null","1","","","","","","","","","","","","","","","NaN",""
"","S1","","html-keyboard-response","23","263679","0.0-1.0-20.0","0","0","13217","","null","","","null","2","","","","","","","","","","","","","","","",""
"","ISI","","html-keyboard-response","24","265687","0.0-1.0-21.0","0","0","13217","","null","","","null","2","NaN","","","","","","","","","","","","","","",""
"","S2","","html-keyboard-response","25","265848","0.0-1.0-22.0","0","0","13217","","null","","","null","2","","NaN","","","","","","","","","","","","","",""
"","response","","html-keyboard-response","26","266867","0.0-1.0-23.0-0.0","0","0","13217","","1015","","","68","2","","","1","2","training","adjacent","CB","3","2","O.jpg","N.jpg","0","0","1","",""
"","feedback","","html-keyboard-response","27","267880","0.0-1.0-24.0-0.0","0","0","13217","","null","","","null","2","","","","","","","","","","","","","","","",""
"","ITI","","html-keyboard-response","28","268888","0.0-1.0-27.0","0","0","13217","","null","","","null","2","","","","","","","","","","","","","","","NaN",""
"","S1","","html-keyboard-response","29","269048","0.0-1.0-29.0","0","0","13217","","null","","","null","3","","","","","","","","","","","","","","","",""
"","ISI","","html-keyboard-response","30","271056","0.0-1.0-30.0","0","0","13217","","null","","","null","3","NaN","","","","","","","","","","","","","","",""
"","S2","","html-keyboard-response","31","271216","0.0-1.0-31.0","0","0","13217","","null","","","null","3","","NaN","","","","","","","","","","","","","",""
"","response","","html-keyboard-response","32","271987","0.0-1.0-32.0-0.0","0","0","13217","","767","","","68","3","","","1","3","training","adjacent","BC","2","3","N.jpg","O.jpg","0","1","0","",""
"","feedback","","html-keyboard-response","33","273000","0.0-1.0-33.0-0.0","0","0","13217","","null","","","null","3","","","","","","","","","","","","","","","",""
"","time_out","","html-keyboard-response","34","275008","0.0-1.0-35.0-0.0","0","0","13217","","null","","","null","3","","","","","","","","","","","","","","","",""
"","ITI","","html-keyboard-response","35","276016","0.0-1.0-36.0","0","0","13217","","null","","","null","3","","","","","","","","","","","","","","","NaN",""
"","S1","","html-keyboard-response","36","276175","0.0-1.0-38.0","0","0","13217","","null","","","null","4","","","","","","","","","","","","","","","",""
"","ISI","","html-keyboard-response","37","278183","0.0-1.0-39.0","0","0","13217","","null","","","null","4","NaN","","","","","","","","","","","","","","",""
"","S2","","html-keyboard-response","38","278344","0.0-1.0-40.0","0","0","13217","","null","","","null","4","","NaN","","","","","","","","","","","","","",""
"","response","","html-keyboard-response","39","279130","0.0-1.0-41.0-0.0","0","0","13217","","781","","","75","4","","","1","4","training","adjacent","CD","3","4","O.jpg","M.jpg","1","1","1","",""
"","feedback","","html-keyboard-response","40","280136","0.0-1.0-42.0-0.0","0","0","13217","","null","","","null","4","","","","","","","","","","","","","","","",""
"","ITI","","html-keyboard-response","41","281144","0.0-1.0-45.0","0","0","13217","","null","","","null","4","","","","","","","","","","","","","","","NaN",""
"","S1","","html-keyboard-response","42","281304","0.0-1.0-47.0","0","0","13217","","null","","","null","5","","","","","","","","","","","","","","","",""
"","ISI","","html-keyboard-response","43","283311","0.0-1.0-48.0","0","0","13217","","null","","","null","5","NaN","","","","","","","","","","","","","","",""
"","S2","","html-keyboard-response","44","283472","0.0-1.0-49.0","0","0","13217","","null","","","null","5","","NaN","","","","","","","","","","","","","",""
"","response","","html-keyboard-response","45","284298","0.0-1.0-50.0-0.0","0","0","13217","","822","","","75","5","","","1","5","training","adjacent","DE","4","5","M.jpg","R.jpg","1","1","1","",""
"","feedback","","html-keyboard-response","46","285304","0.0-1.0-51.0-0.0","0","0","13217","","null","","","null","5","","","","","","","","","","","","","","","",""
"","ITI","","html-keyboard-response","47","286312","0.0-1.0-54.0","0","0","13217","","760","","","65","5","","","","","","","","","","","","","","","a",""
"","S1","","html-keyboard-response","48","286472","0.0-1.0-56.0","0","0","13217","","null","","","null","6","","","","","","","","","","","","","","","",""
"","ISI","","html-keyboard-response","49","288480","0.0-1.0-57.0","0","0","13217","","null","","","null","6","NaN","","","","","","","","","","","","","","",""
"","S2","","html-keyboard-response","50","288640","0.0-1.0-58.0","0","0","13217","","null","","","null","6","","NaN","","","","","","","","","","","","","",""
"","response","","html-keyboard-response","51","289209","0.0-1.0-59.0-0.0","0","0","13217","","565","","","75","6","","","1","6","training","adjacent","DE","4","5","M.jpg","R.jpg","1","1","1","",""
"","feedback","","html-keyboard-response","52","290216","0.0-1.0-60.0-0.0","0","0","13217","","null","","","null","6","","","","","","","","","","","","","","","",""
"","ITI","","html-keyboard-response","53","291225","0.0-1.0-63.0","0","0","13217","","null","","","null","6","","","","","","","","","","","","","","","NaN",""
"","S1","","html-keyboard-response","54","291384","0.0-1.0-65.0","0","0","13217","","null","","","null","7","","","","","","","","","","","","","","","",""
"","ISI","","html-keyboard-response","55","293392","0.0-1.0-66.0","0","0","13217","","null","","","null","7","NaN","","","","","","","","","","","","","","",""
"","S2","","html-keyboard-response","56","293553","0.0-1.0-67.0","0","0","13217","","null","","","null","7","","NaN","","","","","","","","","","","","","",""
"","response","","html-keyboard-response","57","294311","0.0-1.0-68.0-0.0","0","0","13217","","755","","","68","7","","","1","7","training","adjacent","GF","7","6","Q.jpg","L.jpg","0","0","1","",""
"","feedback","","html-keyboard-response","58","295319","0.0-1.0-69.0-0.0","0","0","13217","","null","","","null","7","","","","","","","","","","","","","","","",""
"","ITI","","html-keyboard-response","59","296328","0.0-1.0-72.0","0","0","13217","","null","","","null","7","","","","","","","","","","","","","","","NaN",""
"","S1","","html-keyboard-response","60","296488","0.0-1.0-74.0","0","0","13217","","null","","","null","8","","","","","","","","","","","","","","","",""
"","ISI","","html-keyboard-response","61","298496","0.0-1.0-75.0","0","0","13217","","null","","","null","8","NaN","","","","","","","","","","","","","","",""
"","S2","","html-keyboard-response","62","298655","0.0-1.0-76.0","0","0","13217","","null","","","null","8","","NaN","","","","","","","","","","","","","",""
"","response","","html-keyboard-response","63","299089","0.0-1.0-77.0-0.0","0","0","13217","","430","","","75","8","","","1","8","training","adjacent","CB","3","2","O.jpg","N.jpg","1","0","0","",""
"","feedback","","html-keyboard-response","64","300096","0.0-1.0-78.0-0.0","0","0","13217","","null","","","null","8","","","","","","","","","","","","","","","",""
"","time_out","","html-keyboard-response","65","302104","0.0-1.0-80.0-0.0","0","0","13217","","null","","","null","8","","","","","","","","","","","","","","","",""
"","ITI","","html-keyboard-response","66","303112","0.0-1.0-81.0","0","0","13217","","null","","","null","8","","","","","","","","","","","","","","","NaN",""
"","S1","","html-keyboard-response","67","303271","0.0-1.0-83.0","0","0","13217","","null","","","null","9","","","","","","","","","","","","","","","",""
"","ISI","","html-keyboard-response","68","305280","0.0-1.0-84.0","0","0","13217","","null","","","null","9","NaN","","","","","","","","","","","","","","",""
"","S2","","html-keyboard-response","69","305438","0.0-1.0-85.0","0","0","13217","","null","","","null","9","","NaN","","","","","","","","","","","","","",""
"","response","","html-keyboard-response","70","306452","0.0-1.0-86.0-0.0","0","0","13217","","1012","","","75","9","","","1","9","training","adjacent","EF","5","6","R.jpg","L.jpg","1","1","1","",""
"","feedback","","html-keyboard-response","71","307464","0.0-1.0-87.0-0.0","0","0","13217","","null","","","null","9","","","","","","","","","","","","","","","",""
"","ITI","","html-keyboard-response","72","308472","0.0-1.0-90.0","0","0","13217","","null","","","null","9","","","","","","","","","","","","","","","NaN",""
"","S1","","html-keyboard-response","73","308633","0.0-1.0-92.0","0","0","13217","","null","","","null","10","","","","","","","","","","","","","","","",""
"","ISI","","html-keyboard-response","74","310640","0.0-1.0-93.0","0","0","13217","","null","","","null","10","NaN","","","","","","","","","","","","","","",""
"","S2","","html-keyboard-response","75","310800","0.0-1.0-94.0","0","0","13217","","null","","","null","10","","NaN","","","","","","","","","","","","","",""
"","response","","html-keyboard-response","76","311293","0.0-1.0-95.0-0.0","0","0","13217","","487","","","68","10","","","1","10","training","adjacent","FG","6","7","L.jpg","Q.jpg","0","1","0","",""
"","feedback","","html-keyboard-response","77","312304","0.0-1.0-96.0-0.0","0","0","13217","","null","","","null","10","","","","","","","","","","","","","","","",""
"","time_out","","html-keyboard-response","78","314312","0.0-1.0-98.0-0.0","0","0","13217","","null","","","null","10","","","","","","","","","","","","","","","",""
"","ITI","","html-keyboard-response","79","315320","0.0-1.0-99.0","0","0","13217","","null","","","null","10","","","","","","","","","","","","","","","NaN",""
"","S1","","html-keyboard-response","80","315480","0.0-1.0-101.0","0","0","13217","","null","","","null","11","","","","","","","","","","","","","","","",""
"","ISI","","html-keyboard-response","81","317488","0.0-1.0-102.0","0","0","13217","","null","","","null","11","NaN","","","","","","","","","","","","","","",""
"","S2","","html-keyboard-response","82","317648","0.0-1.0-103.0","0","0","13217","","null","","","null","11","","NaN","","","","","","","","","","","","","",""
"","response","","html-keyboard-response","83","318771","0.0-1.0-104.0-0.0","0","0","13217","","1119","","","68","11","","","1","11","training","adjacent","AB","1","2","P.jpg","N.jpg","0","1","0","",""
"","feedback","","html-keyboard-response","84","319784","0.0-1.0-105.0-0.0","0","0","13217","","null","","","null","11","","","","","","","","","","","","","","","",""
"","time_out","","html-keyboard-response","85","321791","0.0-1.0-107.0-0.0","0","0","13217","","null","","","null","11","","","","","","","","","","","","","","","",""
"","ITI","","html-keyboard-response","86","322800","0.0-1.0-108.0","0","0","13217","","null","","","null","11","","","","","","","","","","","","","","","NaN",""
"","S1","","html-keyboard-response","87","322960","0.0-1.0-110.0","0","0","13217","","null","","","null","12","","","","","","","","","","","","","","","",""
"","ISI","","html-keyboard-response","88","324968","0.0-1.0-111.0","0","0","13217","","null","","","null","12","NaN","","","","","","","","","","","","","","",""
"","S2","","html-keyboard-response","89","325128","0.0-1.0-112.0","0","0","13217","","null","","","null","12","","NaN","","","","","","","","","","","","","",""
"","response","","html-keyboard-response","90","326338","0.0-1.0-113.0-0.0","0","0","13217","","1205","","","75","12","","","1","12","training","adjacent","FG","6","7","L.jpg","Q.jpg","1","1","1","",""
"","feedback","","html-keyboard-response","91","327344","0.0-1.0-114.0-0.0","0","0","13217","","null","","","null","12","","","","","","","","","","","","","","","",""
"","ITI","","html-keyboard-response","92","328352","0.0-1.0-117.0","0","0","13217","","null","","","null","12","","","","","","","","","","","","","","","NaN",""
"","S1","","html-keyboard-response","93","328512","0.0-1.0-119.0","0","0","13217","","null","","","null","13","","","","","","","","","","","","","","","",""
"","ISI","","html-keyboard-response","94","330520","0.0-1.0-120.0","0","0","13217","","null","","","null","13","NaN","","","","","","","","","","","","","","",""
"","S2","","html-keyboard-response","95","330679","0.0-1.0-121.0","0","0","13217","","null","","","null","13","","NaN","","","","","","","","","","","","","",""
"","response","","html-keyboard-response","96","331656","0.0-1.0-122.0-0.0","0","0","13217","","974","","","68","13","","","1","13","training","adjacent","ED","5","4","R.jpg","M.jpg","0","0","1","",""
"","feedback","","html-keyboard-response","97","332664","0.0-1.0-123.0-0.0","0","0","13217","","null","","","null","13","","","","","","","","","","","","","","","",""
"","ITI","","html-keyboard-response","98","333672","0.0-1.0-126.0","0","0","13217","","null","","","null","13","","","","","","","","","","","","","","","NaN",""
"","S1","","html-keyboard-response","99","333832","0.0-1.0-128.0","0","0","13217","","null","","","null","14","","","","","","","","","","","","","","","",""
"","ISI","","html-keyboard-response","100","335840","0.0-1.0-129.0","0","0","13217","","null","","","null","14","NaN","","","","","","","","","","","","","","",""
"","S2","","html-keyboard-response","101","336000","0.0-1.0-130.0","0","0","13217","","null","","","null","14","","NaN","","","","","","","","","","","","","",""
"","response","","html-keyboard-response","102","336815","0.0-1.0-131.0-0.0","0","0","13217","","811","","","68","14","","","1","14","training","adjacent","CB","3","2","O.jpg","N.jpg","0","0","1","",""
"","feedback","","html-keyboard-response","103","337824","0.0-1.0-132.0-0.0","0","0","13217","","null","","","null","14","","","","","","","","","","","","","","","",""
"","ITI","","html-keyboard-response","104","338832","0.0-1.0-135.0","0","0","13217","","null","","","null","14","","","","","","","","","","","","","","","NaN",""
"","S1","","html-keyboard-response","105","338992","0.0-1.0-137.0","0","0","13217","","null","","","null","15","","","","","","","","","","","","","","","",""
"","ISI","","html-keyboard-response","106","341000","0.0-1.0-138.0","0","0","13217","","null","","","null","15","NaN","","","","","","","","","","","","","","",""
"","S2","","html-keyboard-response","107","341160","0.0-1.0-139.0","0","0","13217","","null","","","null","15","","NaN","","","","","","","","","","","","","",""
"","response","","html-keyboard-response","108","342232","0.0-1.0-140.0-0.0","0","0","13217","","1067","","","68","15","","","1","15","training","adjacent","GF","7","6","Q.jpg","L.jpg","0","0","1","",""
"","feedback","","html-keyboard-response","109","343240","0.0-1.0-141.0-0.0","0","0","13217","","null","","","null","15","","","","","","","","","","","","","","","",""
"","ITI","","html-keyboard-response","110","344249","0.0-1.0-144.0","0","0","13217","","null","","","null","15","","","","","","","","","","","","","","","NaN",""
"","S1","","html-keyboard-response","111","344407","0.0-1.0-146.0","0","0","13217","","null","","","null","16","","","","","","","","","","","","","","","",""
"","ISI","","html-keyboard-response","112","346416","0.0-1.0-147.0","0","0","13217","","null","","","null","16","NaN","","","","","","","","","","","","","","",""
"","S2","","html-keyboard-response","113","346576","0.0-1.0-148.0","0","0","13217","","null","","","null","16","","NaN","","","","","","","","","","","","","",""
"","response","","html-keyboard-response","114","347503","0.0-1.0-149.0-0.0","0","0","13217","","923","","","68","16","","","1","16","training","adjacent","EF","5","6","R.jpg","L.jpg","0","1","0","",""
"","feedback","","html-keyboard-response","115","348512","0.0-1.0-150.0-0.0","0","0","13217","","null","","","null","16","","","","","","","","","","","","","","","",""
"","time_out","","html-keyboard-response","116","350520","0.0-1.0-152.0-0.0","0","0","13217","","null","","","null","16","","","","","","","","","","","","","","","",""
"","ITI","","html-keyboard-response","117","351527","0.0-1.0-153.0","0","0","13217","","null","","","null","16","","","","","","","","","","","","","","","NaN",""
"","S1","","html-keyboard-response","118","351688","0.0-1.0-155.0","0","0","13217","","null","","","null","17","","","","","","","","","","","","","","","",""
"","ISI","","html-keyboard-response","119","353696","0.0-1.0-156.0","0","0","13217","","null","","","null","17","NaN","","","","","","","","","","","","","","",""
"","S2","","html-keyboard-response","120","353856","0.0-1.0-157.0","0","0","13217","","null","","","null","17","","NaN","","","","","","","","","","","","","",""
"","response","","html-keyboard-response","121","354598","0.0-1.0-158.0-0.0","0","0","13217","","738","","","68","17","","","1","17","training","adjacent","CD","3","4","O.jpg","M.jpg","0","1","0","",""
"","feedback","","html-keyboard-response","122","355608","0.0-1.0-159.0-0.0","0","0","13217","","null","","","null","17","","","","","","","","","","","","","","","",""
"","time_out","","html-keyboard-response","123","357616","0.0-1.0-161.0-0.0","0","0","13217","","null","","","null","17","","","","","","","","","","","","","","","",""
"","ITI","","html-keyboard-response","124","358624","0.0-1.0-162.0","0","0","13217","","null","","","null","17","","","","","","","","","","","","","","","NaN",""
"","S1","","html-keyboard-response","125","358784","0.0-1.0-164.0","0","0","13217","","null","","","null","18","","","","","","","","","","","","","","","",""
"","ISI","","html-keyboard-response","126","360792","0.0-1.0-165.0","0","0","13217","","null","","","null","18","NaN","","","","","","","","","","","","","","",""
"","S2","","html-keyboard-response","127","360952","0.0-1.0-166.0","0","0","13217","","null","","","null","18","","NaN","","","","","","","","","","","","","",""
"","response","","html-keyboard-response","128","361621","0.0-1.0-167.0-0.0","0","0","13217","","664","","","75","18","","","1","18","training","adjacent","AB","1","2","P.jpg","N.jpg","1","1","1","",""
"","feedback","","html-keyboard-response","129","362632","0.0-1.0-168.0-0.0","0","0","13217","","null","","","null","18","","","","","","","","","","","","","","","",""
"","ITI","","html-keyboard-response","130","363640","0.0-1.0-171.0","0","0","13217","","null","","","null","18","","","","","","","","","","","","","","","NaN",""
"","S1","","html-keyboard-response","131","363801","0.0-1.0-173.0","0","0","13217","","null","","","null","19","","","","","","","","","","","","","","","",""
"","ISI","","html-keyboard-response","132","365807","0.0-1.0-174.0","0","0","13217","","null","","","null","19","NaN","","","","","","","","","","","","","","",""
"","S2","","html-keyboard-response","133","365966","0.0-1.0-175.0","0","0","13217","","null","","","null","19","","NaN","","","","","","","","","","","","","",""
"","response","","html-keyboard-response","134","366679","0.0-1.0-176.0-0.0","0","0","13217","","709","","","75","19","","","1","19","training","adjacent","FG","6","7","L.jpg","Q.jpg","1","1","1","",""
"","feedback","","html-keyboard-response","135","367688","0.0-1.0-177.0-0.0","0","0","13217","","null","","","null","19","","","","","","","","","","","","","","","",""
"","ITI","","html-keyboard-response","136","368696","0.0-1.0-180.0","0","0","13217","","null","","","null","19","","","","","","","","","","","","","","","NaN",""
"","S1","","html-keyboard-response","137","368856","0.0-1.0-182.0","0","0","13217","","null","","","null","20","","","","","","","","","","","","","","","",""
"","ISI","","html-keyboard-response","138","370864","0.0-1.0-183.0","0","0","13217","","null","","","null","20","NaN","","","","","","","","","","","","","","",""
"","S2","","html-keyboard-response","139","371024","0.0-1.0-184.0","0","0","13217","","null","","","null","20","","NaN","","","","","","","","","","","","","",""
"","response","","html-keyboard-response","140","371620","0.0-1.0-185.0-0.0","0","0","13217","","592","","","68","20","","","1","20","training","adjacent","CD","3","4","O.jpg","M.jpg","0","1","0","",""
"","feedback","","html-keyboard-response","141","372632","0.0-1.0-186.0-0.0","0","0","13217","","null","","","null","20","","","","","","","","","","","","","","","",""
"","time_out","","html-keyboard-response","142","374639","0.0-1.0-188.0-0.0","0","0","13217","","null","","","null","20","","","","","","","","","","","","","","","",""
"","ITI","","html-keyboard-response","143","375647","0.0-1.0-189.0","0","0","13217","","null","","","null","20","","","","","","","","","","","","","","","NaN",""
"","S1","","html-keyboard-response","144","375807","0.0-1.0-191.0","0","0","13217","","null","","","null","21","","","","","","","","","","","","","","","",""
"","ISI","","html-keyboard-response","145","377815","0.0-1.0-192.0","0","0","13217","","null","","","null","21","NaN","","","","","","","","","","","","","","",""
"","S2","","html-keyboard-response","146","377976","0.0-1.0-193.0","0","0","13217","","null","","","null","21","","NaN","","","","","","","","","","","","","",""
"","response","","html-keyboard-response","147","378787","0.0-1.0-194.0-0.0","0","0","13217","","806","","","75","21","","","1","21","training","adjacent","AB","1","2","P.jpg","N.jpg","1","1","1","",""
"","feedback","","html-keyboard-response","148","379799","0.0-1.0-195.0-0.0","0","0","13217","","null","","","null","21","","","","","","","","","","","","","","","",""
"","ITI","","html-keyboard-response","149","380808","0.0-1.0-198.0","0","0","13217","","null","","","null","21","","","","","","","","","","","","","","","NaN",""
"","S1","","html-keyboard-response","150","380968","0.0-1.0-200.0","0","0","13217","","null","","","null","22","","","","","","","","","","","","","","","",""
"","ISI","","html-keyboard-response","151","382974","0.0-1.0-201.0","0","0","13217","","null","","","null","22","NaN","","","","","","","","","","","","","","",""
"","S2","","html-keyboard-response","152","383135","0.0-1.0-202.0","0","0","13217","","null","","","null","22","","NaN","","","","","","","","","","","","","",""
"","response","","html-keyboard-response","153","384096","0.0-1.0-203.0-0.0","0","0","13217","","957","","","68","22","","","1","22","training","adjacent","ED","5","4","R.jpg","M.jpg","0","0","1","",""
"","feedback","","html-keyboard-response","154","385103","0.0-1.0-204.0-0.0","0","0","13217","","null","","","null","22","","","","","","","","","","","","","","","",""
"","ITI","","html-keyboard-response","155","386110","0.0-1.0-207.0","0","0","13217","","null","","","null","22","","","","","","","","","","","","","","","NaN",""
"","S1","","html-keyboard-response","156","386271","0.0-1.0-209.0","0","0","13217","","null","","","null","23","","","","","","","","","","","","","","","",""
"","ISI","","html-keyboard-response","157","388278","0.0-1.0-210.0","0","0","13217","","null","","","null","23","NaN","","","","","","","","","","","","","","",""
"","S2","","html-keyboard-response","158","388441","0.0-1.0-211.0","0","0","13217","","null","","","null","23","","NaN","","","","","","","","","","","","","",""
"","response","","html-keyboard-response","159","388939","0.0-1.0-212.0-0.0","0","0","13217","","493","","","75","23","","","1","23","training","adjacent","FE","6","5","L.jpg","R.jpg","1","0","0","",""
"","feedback","","html-keyboard-response","160","389943","0.0-1.0-213.0-0.0","0","0","13217","","null","","","null","23","","","","","","","","","","","","","","","",""
"","time_out","","html-keyboard-response","161","391952","0.0-1.0-215.0-0.0","0","0","13217","","null","","","null","23","","","","","","","","","","","","","","","",""
"","ITI","","html-keyboard-response","162","392959","0.0-1.0-216.0","0","0","13217","","null","","","null","23","","","","","","","","","","","","","","","NaN",""
"","S1","","html-keyboard-response","163","393119","0.0-1.0-218.0","0","0","13217","","null","","","null","24","","","","","","","","","","","","","","","",""
"","ISI","","html-keyboard-response","164","395128","0.0-1.0-219.0","0","0","13217","","null","","","null","24","NaN","","","","","","","","","","","","","","",""
"","S2","","html-keyboard-response","165","395287","0.0-1.0-220.0","0","0","13217","","null","","","null","24","","NaN","","","","","","","","","","","","","",""
"","response","","html-keyboard-response","166","396416","0.0-1.0-221.0-0.0","0","0","13217","","1126","","","75","24","","","1","24","training","adjacent","DC","4","3","M.jpg","O.jpg","1","0","0","",""
"","feedback","","html-keyboard-response","167","397425","0.0-1.0-222.0-0.0","0","0","13217","","null","","","null","24","","","","","","","","","","","","","","","",""
"","time_out","","html-keyboard-response","168","399432","0.0-1.0-224.0-0.0","0","0","13217","","null","","","null","24","","","","","","","","","","","","","","","",""
"","ITI","","html-keyboard-response","169","400440","0.0-1.0-225.0","0","0","13217","","null","","","null","24","","","","","","","","","","","","","","","NaN",""
"","S1","","html-keyboard-response","170","400600","0.0-1.0-227.0","0","0","13217","","null","","","null","25","","","","","","","","","","","","","","","",""
"","ISI","","html-keyboard-response","171","402607","0.0-1.0-228.0","0","0","13217","","null","","","null","25","NaN","","","","","","","","","","","","","","",""
"","S2","","html-keyboard-response","172","402766","0.0-1.0-229.0","0","0","13217","","null","","","null","25","","NaN","","","","","","","","","","","","","",""
"","response","","html-keyboard-response","173","403129","0.0-1.0-230.0-0.0","0","0","13217","","358","","","75","25","","","1","25","training","adjacent","GF","7","6","Q.jpg","L.jpg","1","0","0","",""
"","feedback","","html-keyboard-response","174","404136","0.0-1.0-231.0-0.0","0","0","13217","","null","","","null","25","","","","","","","","","","","","","","","",""
"","time_out","","html-keyboard-response","175","406144","0.0-1.0-233.0-0.0","0","0","13217","","null","","","null","25","","","","","","","","","","","","","","","",""
"","ITI","","html-keyboard-response","176","407152","0.0-1.0-234.0","0","0","13217","","null","","","null","25","","","","","","","","","","","","","","","NaN",""
"","S1","","html-keyboard-response","177","407312","0.0-1.0-236.0","0","0","13217","","null","","","null","26","","","","","","","","","","","","","","","",""
"","ISI","","html-keyboard-response","178","409320","0.0-1.0-237.0","0","0","13217","","null","","","null","26","NaN","","","","","","","","","","","","","","",""
"","S2","","html-keyboard-response","179","409480","0.0-1.0-238.0","0","0","13217","","null","","","null","26","","NaN","","","","","","","","","","","","","",""
"","response","","html-keyboard-response","180","410754","0.0-1.0-239.0-0.0","0","0","13217","","1270","","","68","26","","","1","26","training","adjacent","BC","2","3","N.jpg","O.jpg","0","1","0","",""
"","feedback","","html-keyboard-response","181","411760","0.0-1.0-240.0-0.0","0","0","13217","","null","","","null","26","","","","","","","","","","","","","","","",""
"","time_out","","html-keyboard-response","182","413768","0.0-1.0-242.0-0.0","0","0","13217","","null","","","null","26","","","","","","","","","","","","","","","",""
"","ITI","","html-keyboard-response","183","414776","0.0-1.0-243.0","0","0","13217","","null","","","null","26","","","","","","","","","","","","","","","NaN",""
"","S1","","html-keyboard-response","184","414936","0.0-1.0-245.0","0","0","13217","","null","","","null","27","","","","","","","","","","","","","","","",""
"","ISI","","html-keyboard-response","185","416944","0.0-1.0-246.0","0","0","13217","","null","","","null","27","NaN","","","","","","","","","","","","","","",""
"","S2","","html-keyboard-response","186","417104","0.0-1.0-247.0","0","0","13217","","null","","","null","27","","NaN","","","","","","","","","","","","","",""
"","response","","html-keyboard-response","187","417872","0.0-1.0-248.0-0.0","0","0","13217","","764","","","75","27","","","1","27","training","adjacent","FG","6","7","L.jpg","Q.jpg","1","1","1","",""
"","feedback","","html-keyboard-response","188","418879","0.0-1.0-249.0-0.0","0","0","13217","","null","","","null","27","","","","","","","","","","","","","","","",""
"","ITI","","html-keyboard-response","189","419889","0.0-1.0-252.0","0","0","13217","","null","","","null","27","","","","","","","","","","","","","","","NaN",""
"","S1","","html-keyboard-response","190","420048","0.0-1.0-254.0","0","0","13217","","null","","","null","28","","","","","","","","","","","","","","","",""
"","ISI","","html-keyboard-response","191","422056","0.0-1.0-255.0","0","0","13217","","null","","","null","28","NaN","","","","","","","","","","","","","","",""
"","S2","","html-keyboard-response","192","422216","0.0-1.0-256.0","0","0","13217","","null","","","null","28","","NaN","","","","","","","","","","","","","",""
"","response","","html-keyboard-response","193","423074","0.0-1.0-257.0-0.0","0","0","13217","","853","","","75","28","","","1","28","training","adjacent","BA","2","1","N.jpg","P.jpg","1","0","0","",""
"","feedback","","html-keyboard-response","194","424080","0.0-1.0-258.0-0.0","0","0","13217","","null","","","null","28","","","","","","","","","","","","","","","",""
"","time_out","","html-keyboard-response","195","426088","0.0-1.0-260.0-0.0","0","0","13217","","null","","","null","28","","","","","","","","","","","","","","","",""
"","ITI","","html-keyboard-response","196","427096","0.0-1.0-261.0","0","0","13217","","null","","","null","28","","","","","","","","","","","","","","","NaN",""
"","S1","","html-keyboard-response","197","427256","0.0-1.0-263.0","0","0","13217","","null","","","null","29","","","","","","","","","","","","","","","",""
"","ISI","","html-keyboard-response","198","429262","0.0-1.0-264.0","0","0","13217","","null","","","null","29","NaN","","","","","","","","","","","","","","",""
"","S2","","html-keyboard-response","199","429424","0.0-1.0-265.0","0","0","13217","","null","","","null","29","","NaN","","","","","","","","","","","","","",""
"","response","","html-keyboard-response","200","430750","0.0-1.0-266.0-0.0","0","0","13217","","1322","","","68","29","","","1","29","training","adjacent","BA","2","1","N.jpg","P.jpg","0","0","1","",""
"","feedback","","html-keyboard-response","201","431760","0.0-1.0-267.0-0.0","0","0","13217","","null","","","null","29","","","","","","","","","","","","","","","",""
"","ITI","","html-keyboard-response","202","432767","0.0-1.0-270.0","0","0","13217","","null","","","null","29","","","","","","","","","","","","","","","NaN",""
"","S1","","html-keyboard-response","203","432927","0.0-1.0-272.0","0","0","13217","","null","","","null","30","","","","","","","","","","","","","","","",""
"","ISI","","html-keyboard-response","204","434936","0.0-1.0-273.0","0","0","13217","","null","","","null","30","NaN","","","","","","","","","","","","","","",""
"","S2","","html-keyboard-response","205","435096","0.0-1.0-274.0","0","0","13217","","null","","","null","30","","NaN","","","","","","","","","","","","","",""
"","response","","html-keyboard-response","206","435832","0.0-1.0-275.0-0.0","0","0","13217","","732","","","75","30","","","1","30","training","adjacent","FE","6","5","L.jpg","R.jpg","1","0","0","",""
"","feedback","","html-keyboard-response","207","436839","0.0-1.0-276.0-0.0","0","0","13217","","null","","","null","30","","","","","","","","","","","","","","","",""
"","time_out","","html-keyboard-response","208","438847","0.0-1.0-278.0-0.0","0","0","13217","","null","","","null","30","","","","","","","","","","","","","","","",""
"","ITI","","html-keyboard-response","209","439856","0.0-1.0-279.0","0","0","13217","","null","","","null","30","","","","","","","","","","","","","","","NaN",""
"","S1","","html-keyboard-response","210","440016","0.0-1.0-281.0","0","0","13217","","null","","","null","31","","","","","","","","","","","","","","","",""
"","ISI","","html-keyboard-response","211","442024","0.0-1.0-282.0","0","0","13217","","null","","","null","31","NaN","","","","","","","","","","","","","","",""
"","S2","","html-keyboard-response","212","442183","0.0-1.0-283.0","0","0","13217","","null","","","null","31","","NaN","","","","","","","","","","","","","",""
"","response","","html-keyboard-response","213","443102","0.0-1.0-284.0-0.0","0","0","13217","","914","","","75","31","","","1","31","training","adjacent","BA","2","1","N.jpg","P.jpg","1","0","0","",""
"","feedback","","html-keyboard-response","214","444112","0.0-1.0-285.0-0.0","0","0","13217","","null","","","null","31","","","","","","","","","","","","","","","",""
"","time_out","","html-keyboard-response","215","446120","0.0-1.0-287.0-0.0","0","0","13217","","null","","","null","31","","","","","","","","","","","","","","","",""
"","ITI","","html-keyboard-response","216","447128","0.0-1.0-288.0","0","0","13217","","null","","","null","31","","","","","","","","","","","","","","","NaN",""
"","S1","","html-keyboard-response","217","447288","0.0-1.0-290.0","0","0","13217","","null","","","null","32","","","","","","","","","","","","","","","",""
"","ISI","","html-keyboard-response","218","449296","0.0-1.0-291.0","0","0","13217","","null","","","null","32","NaN","","","","","","","","","","","","","","",""
"","S2","","html-keyboard-response","219","449456","0.0-1.0-292.0","0","0","13217","","null","","","null","32","","NaN","","","","","","","","","","","","","",""
"","response","","html-keyboard-response","220","450561","0.0-1.0-293.0-0.0","0","0","13217","","1101","","","68","32","","","1","32","training","adjacent","BA","2","1","N.jpg","P.jpg","0","0","1","",""
"","feedback","","html-keyboard-response","221","451568","0.0-1.0-294.0-0.0","0","0","13217","","null","","","null","32","","","","","","","","","","","","","","","",""
"","ITI","","html-keyboard-response","222","452576","0.0-1.0-297.0","0","0","13217","","null","","","null","32","","","","","","","","","","","","","","","NaN",""
"","S1","","html-keyboard-response","223","452736","0.0-1.0-299.0","0","0","13217","","null","","","null","33","","","","","","","","","","","","","","","",""
"","ISI","","html-keyboard-response","224","454744","0.0-1.0-300.0","0","0","13217","","null","","","null","33","NaN","","","","","","","","","","","","","","",""
"","S2","","html-keyboard-response","225","454903","0.0-1.0-301.0","0","0","13217","","null","","","null","33","","NaN","","","","","","","","","","","","","",""
"","response","","html-keyboard-response","226","456203","0.0-1.0-302.0-0.0","0","0","13217","","1296","","","75","33","","","1","33","training","adjacent","FE","6","5","L.jpg","R.jpg","1","0","0","",""
"","feedback","","html-keyboard-response","227","457217","0.0-1.0-303.0-0.0","0","0","13217","","null","","","null","33","","","","","","","","","","","","","","","",""
"","time_out","","html-keyboard-response","228","459224","0.0-1.0-305.0-0.0","0","0","13217","","null","","","null","33","","","","","","","","","","","","","","","",""
"","ITI","","html-keyboard-response","229","460232","0.0-1.0-306.0","0","0","13217","","null","","","null","33","","","","","","","","","","","","","","","NaN",""
"","S1","","html-keyboard-response","230","460392","0.0-1.0-308.0","0","0","13217","","null","","","null","34","","","","","","","","","","","","","","","",""
"","ISI","","html-keyboard-response","231","462400","0.0-1.0-309.0","0","0","13217","","null","","","null","34","NaN","","","","","","","","","","","","","","",""
"","S2","","html-keyboard-response","232","462559","0.0-1.0-310.0","0","0","13217","","null","","","null","34","","NaN","","","","","","","","","","","","","",""
"","response","","html-keyboard-response","233","463408","0.0-1.0-311.0-0.0","0","0","13217","","844","","","75","34","","","1","34","training","adjacent","DE","4","5","M.jpg","R.jpg","1","1","1","",""
"","feedback","","html-keyboard-response","234","464416","0.0-1.0-312.0-0.0","0","0","13217","","null","","","null","34","","","","","","","","","","","","","","","",""
"","ITI","","html-keyboard-response","235","465424","0.0-1.0-315.0","0","0","13217","","null","","","null","34","","","","","","","","","","","","","","","NaN",""
"","S1","","html-keyboard-response","236","465584","0.0-1.0-317.0","0","0","13217","","null","","","null","35","","","","","","","","","","","","","","","",""
"","ISI","","html-keyboard-response","237","467592","0.0-1.0-318.0","0","0","13217","","null","","","null","35","NaN","","","","","","","","","","","","","","",""
"","S2","","html-keyboard-response","238","467753","0.0-1.0-319.0","0","0","13217","","null","","","null","35","","NaN","","","","","","","","","","","","","",""
"","response","","html-keyboard-response","239","468734","0.0-1.0-320.0-0.0","0","0","13217","","976","","","68","35","","","1","35","training","adjacent","EF","5","6","R.jpg","L.jpg","0","1","0","",""
"","feedback","","html-keyboard-response","240","469744","0.0-1.0-321.0-0.0","0","0","13217","","null","","","null","35","","","","","","","","","","","","","","","",""
"","time_out","","html-keyboard-response","241","471752","0.0-1.0-323.0-0.0","0","0","13217","","null","","","null","35","","","","","","","","","","","","","","","",""
"","ITI","","html-keyboard-response","242","472759","0.0-1.0-324.0","0","0","13217","","null","","","null","35","","","","","","","","","","","","","","","NaN",""
"","S1","","html-keyboard-response","243","472920","0.0-1.0-326.0","0","0","13217","","null","","","null","36","","","","","","","","","","","","","","","",""
"","ISI","","html-keyboard-response","244","474928","0.0-1.0-327.0","0","0","13217","","null","","","null","36","NaN","","","","","","","","","","","","","","",""
"","S2","","html-keyboard-response","245","475088","0.0-1.0-328.0","0","0","13217","","null","","","null","36","","NaN","","","","","","","","","","","","","",""
"","response","","html-keyboard-response","246","475957","0.0-1.0-329.0-0.0","0","0","13217","","866","","","75","36","","","1","36","training","adjacent","CD","3","4","O.jpg","M.jpg","1","1","1","",""
"","feedback","","html-keyboard-response","247","476967","0.0-1.0-330.0-0.0","0","0","13217","","null","","","null","36","","","","","","","","","","","","","","","",""
"","ITI","","html-keyboard-response","248","477976","0.0-1.0-333.0","0","0","13217","","null","","","null","36","","","","","","","","","","","","","","","NaN",""
"","S1","","html-keyboard-response","249","478136","0.0-1.0-335.0","0","0","13217","","null","","","null","37","","","","","","","","","","","","","","","",""
"","ISI","","html-keyboard-response","250","480144","0.0-1.0-336.0","0","0","13217","","null","","","null","37","NaN","","","","","","","","","","","","","","",""
"","S2","","html-keyboard-response","251","480304","0.0-1.0-337.0","0","0","13217","","null","","","null","37","","NaN","","","","","","","","","","","","","",""
"","response","","html-keyboard-response","252","480927","0.0-1.0-338.0-0.0","0","0","13217","","619","","","75","37","","","1","37","training","adjacent","BC","2","3","N.jpg","O.jpg","1","1","1","",""
"","feedback","","html-keyboard-response","253","481936","0.0-1.0-339.0-0.0","0","0","13217","","null","","","null","37","","","","","","","","","","","","","","","",""
"","ITI","","html-keyboard-response","254","482944","0.0-1.0-342.0","0","0","13217","","null","","","null","37","","","","","","","","","","","","","","","NaN",""
"","S1","","html-keyboard-response","255","483104","0.0-1.0-344.0","0","0","13217","","null","","","null","38","","","","","","","","","","","","","","","",""
"","ISI","","html-keyboard-response","256","485113","0.0-1.0-345.0","0","0","13217","","null","","","null","38","NaN","","","","","","","","","","","","","","",""
"","S2","","html-keyboard-response","257","485271","0.0-1.0-346.0","0","0","13217","","null","","","null","38","","NaN","","","","","","","","","","","","","",""
"","response","","html-keyboard-response","258","486173","0.0-1.0-347.0-0.0","0","0","13217","","899","","","75","38","","","1","38","training","adjacent","DC","4","3","M.jpg","O.jpg","1","0","0","",""
"","feedback","","html-keyboard-response","259","487184","0.0-1.0-348.0-0.0","0","0","13217","","null","","","null","38","","","","","","","","","","","","","","","",""
"","time_out","","html-keyboard-response","260","489192","0.0-1.0-350.0-0.0","0","0","13217","","null","","","null","38","","","","","","","","","","","","","","","",""
"","ITI","","html-keyboard-response","261","490200","0.0-1.0-351.0","0","0","13217","","null","","","null","38","","","","","","","","","","","","","","","NaN",""
"","S1","","html-keyboard-response","262","490360","0.0-1.0-353.0","0","0","13217","","null","","","null","39","","","","","","","","","","","","","","","",""
"","ISI","","html-keyboard-response","263","492368","0.0-1.0-354.0","0","0","13217","","null","","","null","39","NaN","","","","","","","","","","","","","","",""
"","S2","","html-keyboard-response","264","492528","0.0-1.0-355.0","0","0","13217","","null","","","null","39","","NaN","","","","","","","","","","","","","",""
"","response","","html-keyboard-response","265","493515","0.0-1.0-356.0-0.0","0","0","13217","","981","","","68","39","","","1","39","training","adjacent","AB","1","2","P.jpg","N.jpg","0","1","0","",""
"","feedback","","html-keyboard-response","266","494520","0.0-1.0-357.0-0.0","0","0","13217","","null","","","null","39","","","","","","","","","","","","","","","",""
"","time_out","","html-keyboard-response","267","496528","0.0-1.0-359.0-0.0","0","0","13217","","null","","","null","39","","","","","","","","","","","","","","","",""
"","ITI","","html-keyboard-response","268","497535","0.0-1.0-360.0","0","0","13217","","null","","","null","39","","","","","","","","","","","","","","","NaN",""
"","S1","","html-keyboard-response","269","497695","0.0-1.0-362.0","0","0","13217","","null","","","null","40","","","","","","","","","","","","","","","",""
"","ISI","","html-keyboard-response","270","499704","0.0-1.0-363.0","0","0","13217","","null","","","null","40","NaN","","","","","","","","","","","","","","",""
"","S2","","html-keyboard-response","271","499864","0.0-1.0-364.0","0","0","13217","","null","","","null","40","","NaN","","","","","","","","","","","","","",""
"","response","","html-keyboard-response","272","500489","0.0-1.0-365.0-0.0","0","0","13217","","621","","","75","40","","","1","40","training","adjacent","BC","2","3","N.jpg","O.jpg","1","1","1","",""
"","feedback","","html-keyboard-response","273","501496","0.0-1.0-366.0-0.0","0","0","13217","","null","","","null","40","","","","","","","","","","","","","","","",""
"","ITI","","html-keyboard-response","274","502500","0.0-1.0-369.0","0","0","13217","","null","","","null","40","","","","","","","","","","","","","","","NaN",""
"","S1","","html-keyboard-response","275","502656","0.0-1.0-371.0","0","0","13217","","null","","","null","41","","","","","","","","","","","","","","","",""
"","ISI","","html-keyboard-response","276","504664","0.0-1.0-372.0","0","0","13217","","null","","","null","41","NaN","","","","","","","","","","","","","","",""
"","S2","","html-keyboard-response","277","504824","0.0-1.0-373.0","0","0","13217","","null","","","null","41","","NaN","","","","","","","","","","","","","",""
"","response","","html-keyboard-response","278","505849","0.0-1.0-374.0-0.0","0","0","13217","","1021","","","75","41","","","1","41","training","adjacent","DC","4","3","M.jpg","O.jpg","1","0","0","",""
"","feedback","","html-keyboard-response","279","506856","0.0-1.0-375.0-0.0","0","0","13217","","null","","","null","41","","","","","","","","","","","","","","","",""
"","time_out","","html-keyboard-response","280","508864","0.0-1.0-377.0-0.0","0","0","13217","","null","","","null","41","","","","","","","","","","","","","","","",""
"","ITI","","html-keyboard-response","281","509872","0.0-1.0-378.0","0","0","13217","","null","","","null","41","","","","","","","","","","","","","","","NaN",""
"","S1","","html-keyboard-response","282","510032","0.0-1.0-380.0","0","0","13217","","null","","","null","42","","","","","","","","","","","","","","","",""
"","ISI","","html-keyboard-response","283","512040","0.0-1.0-381.0","0","0","13217","","null","","","null","42","NaN","","","","","","","","","","","","","","",""
"","S2","","html-keyboard-response","284","512200","0.0-1.0-382.0","0","0","13217","","null","","","null","42","","NaN","","","","","","","","","","","","","",""
"","response","","html-keyboard-response","285","512965","0.0-1.0-383.0-0.0","0","0","13217","","761","","","68","42","","","1","42","training","adjacent","CB","3","2","O.jpg","N.jpg","0","0","1","",""
"","feedback","","html-keyboard-response","286","513976","0.0-1.0-384.0-0.0","0","0","13217","","null","","","null","42","","","","","","","","","","","","","","","",""
"","ITI","","html-keyboard-response","287","514984","0.0-1.0-387.0","0","0","13217","","null","","","null","42","","","","","","","","","","","","","","","NaN",""
"","S1","","html-keyboard-response","288","515145","0.0-1.0-389.0","0","0","13217","","null","","","null","43","","","","","","","","","","","","","","","",""
"","ISI","","html-keyboard-response","289","517152","0.0-1.0-390.0","0","0","13217","","null","","","null","43","NaN","","","","","","","","","","","","","","",""
"","S2","","html-keyboard-response","290","517312","0.0-1.0-391.0","0","0","13217","","null","","","null","43","","NaN","","","","","","","","","","","","","",""
"","response","","html-keyboard-response","291","518214","0.0-1.0-392.0-0.0","0","0","13217","","898","","","68","43","","","1","43","training","adjacent","GF","7","6","Q.jpg","L.jpg","0","0","1","",""
"","feedback","","html-keyboard-response","292","519224","0.0-1.0-393.0-0.0","0","0","13217","","null","","","null","43","","","","","","","","","","","","","","","",""
"","ITI","","html-keyboard-response","293","520232","0.0-1.0-396.0","0","0","13217","","null","","","null","43","","","","","","","","","","","","","","","NaN",""
"","S1","","html-keyboard-response","294","520391","0.0-1.0-398.0","0","0","13217","","null","","","null","44","","","","","","","","","","","","","","","",""
"","ISI","","html-keyboard-response","295","522400","0.0-1.0-399.0","0","0","13217","","null","","","null","44","NaN","","","","","","","","","","","","","","",""
"","S2","","html-keyboard-response","296","522561","0.0-1.0-400.0","0","0","13217","","null","","","null","44","","NaN","","","","","","","","","","","","","",""
"","response","","html-keyboard-response","297","523501","0.0-1.0-401.0-0.0","0","0","13217","","936","","","68","44","","","1","44","training","adjacent","EF","5","6","R.jpg","L.jpg","0","1","0","",""
"","feedback","","html-keyboard-response","298","524512","0.0-1.0-402.0-0.0","0","0","13217","","null","","","null","44","","","","","","","","","","","","","","","",""
"","time_out","","html-keyboard-response","299","526520","0.0-1.0-404.0-0.0","0","0","13217","","null","","","null","44","","","","","","","","","","","","","","","",""
"","ITI","","html-keyboard-response","300","527527","0.0-1.0-405.0","0","0","13217","","null","","","null","44","","","","","","","","","","","","","","","NaN",""
"","S1","","html-keyboard-response","301","527688","0.0-1.0-407.0","0","0","13217","","null","","","null","45","","","","","","","","","","","","","","","",""
"","ISI","","html-keyboard-response","302","529696","0.0-1.0-408.0","0","0","13217","","null","","","null","45","NaN","","","","","","","","","","","","","","",""
"","S2","","html-keyboard-response","303","529856","0.0-1.0-409.0","0","0","13217","","null","","","null","45","","NaN","","","","","","","","","","","","","",""
"","response","","html-keyboard-response","304","531043","0.0-1.0-410.0-0.0","0","0","13217","","1182","","","68","45","","","1","45","training","adjacent","ED","5","4","R.jpg","M.jpg","0","0","1","",""
"","feedback","","html-keyboard-response","305","532056","0.0-1.0-411.0-0.0","0","0","13217","","null","","","null","45","","","","","","","","","","","","","","","",""
"","ITI","","html-keyboard-response","306","533064","0.0-1.0-414.0","0","0","13217","","null","","","null","45","","","","","","","","","","","","","","","NaN",""
"","S1","","html-keyboard-response","307","533225","0.0-1.0-416.0","0","0","13217","","null","","","null","46","","","","","","","","","","","","","","","",""
"","ISI","","html-keyboard-response","308","535232","0.0-1.0-417.0","0","0","13217","","null","","","null","46","NaN","","","","","","","","","","","","","","",""
"","S2","","html-keyboard-response","309","535392","0.0-1.0-418.0","0","0","13217","","null","","","null","46","","NaN","","","","","","","","","","","","","",""
"","response","","html-keyboard-response","310","536914","0.0-1.0-419.0-0.0","0","0","13217","","1518","","","75","46","","","1","46","training","adjacent","DC","4","3","M.jpg","O.jpg","1","0","0","",""
"","feedback","","html-keyboard-response","311","537921","0.0-1.0-420.0-0.0","0","0","13217","","null","","","null","46","","","","","","","","","","","","","","","",""
"","time_out","","html-keyboard-response","312","539928","0.0-1.0-422.0-0.0","0","0","13217","","null","","","null","46","","","","","","","","","","","","","","","",""
"","ITI","","html-keyboard-response","313","540935","0.0-1.0-423.0","0","0","13217","","null","","","null","46","","","","","","","","","","","","","","","NaN",""
"","S1","","html-keyboard-response","314","541095","0.0-1.0-425.0","0","0","13217","","null","","","null","47","","","","","","","","","","","","","","","",""
"","ISI","","html-keyboard-response","315","543104","0.0-1.0-426.0","0","0","13217","","null","","","null","47","NaN","","","","","","","","","","","","","","",""
"","S2","","html-keyboard-response","316","543262","0.0-1.0-427.0","0","0","13217","","null","","","null","47","","NaN","","","","","","","","","","","","","",""
"","response","","html-keyboard-response","317","543953","0.0-1.0-428.0-0.0","0","0","13217","","687","","","68","47","","","1","47","training","adjacent","ED","5","4","R.jpg","M.jpg","0","0","1","",""
"","feedback","","html-keyboard-response","318","544960","0.0-1.0-429.0-0.0","0","0","13217","","null","","","null","47","","","","","","","","","","","","","","","",""
"","ITI","","html-keyboard-response","319","545967","0.0-1.0-432.0","0","0","13217","","null","","","null","47","","","","","","","","","","","","","","","NaN",""
"","block_over","","html-keyboard-response","320","576300","0.0-1.0-433.0-0.0","0","0","13217","","30327","","","32","47","","","","","","","","","","","","","","","",""
"","S1","","html-keyboard-response","321","576456","0.0-1.0-434.0","0","0","13217","","null","","","null","48","","","","","","","","","","","","","","","",""
"","ISI","","html-keyboard-response","322","578464","0.0-1.0-435.0","0","0","13217","","null","","","null","48","NaN","","","","","","","","","","","","","","",""
"","S2","","html-keyboard-response","323","578624","0.0-1.0-436.0","0","0","13217","","null","","","null","48","","NaN","","","","","","","","","","","","","",""
"","response","","html-keyboard-response","324","579322","0.0-1.0-437.0-0.0","0","0","13217","","694","","","68","48","","","2","48","training","adjacent","GF","7","6","Q.jpg","L.jpg","0","0","1","",""
"","feedback","","html-keyboard-response","325","580328","0.0-1.0-438.0-0.0","0","0","13217","","null","","","null","48","","","","","","","","","","","","","","","",""
"","ITI","","html-keyboard-response","326","581335","0.0-1.0-441.0","0","0","13217","","null","","","null","48","","","","","","","","","","","","","","","NaN",""
"","S1","","html-keyboard-response","327","581494","0.0-1.0-443.0","0","0","13217","","null","","","null","49","","","","","","","","","","","","","","","",""
"","ISI","","html-keyboard-response","328","583504","0.0-1.0-444.0","0","0","13217","","null","","","null","49","NaN","","","","","","","","","","","","","","",""
"","S2","","html-keyboard-response","329","583663","0.0-1.0-445.0","0","0","13217","","null","","","null","49","","NaN","","","","","","","","","","","","","",""
"","response","","html-keyboard-response","330","584197","0.0-1.0-446.0-0.0","0","0","13217","","529","","","75","49","","","2","49","training","adjacent","BA","2","1","N.jpg","P.jpg","1","0","0","",""
"","feedback","","html-keyboard-response","331","585208","0.0-1.0-447.0-0.0","0","0","13217","","null","","","null","49","","","","","","","","","","","","","","","",""
"","time_out","","html-keyboard-response","332","587215","0.0-1.0-449.0-0.0","0","0","13217","","null","","","null","49","","","","","","","","","","","","","","","",""
"","ITI","","html-keyboard-response","333","588223","0.0-1.0-450.0","0","0","13217","","null","","","null","49","","","","","","","","","","","","","","","NaN",""
"","S1","","html-keyboard-response","334","588383","0.0-1.0-452.0","0","0","13217","","null","","","null","50","","","","","","","","","","","","","","","",""
"","ISI","","html-keyboard-response","335","590391","0.0-1.0-453.0","0","0","13217","","null","","","null","50","NaN","","","","","","","","","","","","","","",""
"","S2","","html-keyboard-response","336","590552","0.0-1.0-454.0","0","0","13217","","null","","","null","50","","NaN","","","","","","","","","","","","","",""
"","response","","html-keyboard-response","337","590816","0.0-1.0-455.0-0.0","0","0","13217","","261","","","68","50","","","2","50","training","adjacent","FE","6","5","L.jpg","R.jpg","0","0","1","",""
"","feedback","","html-keyboard-response","338","591823","0.0-1.0-456.0-0.0","0","0","13217","","null","","","null","50","","","","","","","","","","","","","","","",""
"","ITI","","html-keyboard-response","339","592831","0.0-1.0-459.0","0","0","13217","","null","","","null","50","","","","","","","","","","","","","","","NaN",""
"","S1","","html-keyboard-response","340","592992","0.0-1.0-461.0","0","0","13217","","null","","","null","51","","","","","","","","","","","","","","","",""
"","ISI","","html-keyboard-response","341","594999","0.0-1.0-462.0","0","0","13217","","null","","","null","51","NaN","","","","","","","","","","","","","","",""
"","S2","","html-keyboard-response","342","595160","0.0-1.0-463.0","0","0","13217","","null","","","null","51","","NaN","","","","","","","","","","","","","",""
"","response","","html-keyboard-response","343","595751","0.0-1.0-464.0-0.0","0","0","13217","","588","","","68","51","","","2","51","training","adjacent","CB","3","2","O.jpg","N.jpg","0","0","1","",""
"","feedback","","html-keyboard-response","344","596759","0.0-1.0-465.0-0.0","0","0","13217","","null","","","null","51","","","","","","","","","","","","","","","",""
"","ITI","","html-keyboard-response","345","597767","0.0-1.0-468.0","0","0","13217","","null","","","null","51","","","","","","","","","","","","","","","NaN",""
"","S1","","html-keyboard-response","346","597928","0.0-1.0-470.0","0","0","13217","","null","","","null","52","","","","","","","","","","","","","","","",""
"","ISI","","html-keyboard-response","347","599935","0.0-1.0-471.0","0","0","13217","","null","","","null","52","NaN","","","","","","","","","","","","","","",""
"","S2","","html-keyboard-response","348","600096","0.0-1.0-472.0","0","0","13217","","null","","","null","52","","NaN","","","","","","","","","","","","","",""
"","response","","html-keyboard-response","349","600771","0.0-1.0-473.0-0.0","0","0","13217","","670","","","75","52","","","2","52","training","adjacent","DC","4","3","M.jpg","O.jpg","1","0","0","",""
"","feedback","","html-keyboard-response","350","601783","0.0-1.0-474.0-0.0","0","0","13217","","null","","","null","52","","","","","","","","","","","","","","","",""
"","time_out","","html-keyboard-response","351","603792","0.0-1.0-476.0-0.0","0","0","13217","","null","","","null","52","","","","","","","","","","","","","","","",""
"","ITI","","html-keyboard-response","352","604800","0.0-1.0-477.0","0","0","13217","","null","","","null","52","","","","","","","","","","","","","","","NaN",""
"","S1","","html-keyboard-response","353","604959","0.0-1.0-479.0","0","0","13217","","null","","","null","53","","","","","","","","","","","","","","","",""
"","ISI","","html-keyboard-response","354","606968","0.0-1.0-480.0","0","0","13217","","null","","","null","53","NaN","","","","","","","","","","","","","","",""
"","S2","","html-keyboard-response","355","607128","0.0-1.0-481.0","0","0","13217","","null","","","null","53","","NaN","","","","","","","","","","","","","",""
"","response","","html-keyboard-response","356","607904","0.0-1.0-482.0-0.0","0","0","13217","","772","","","68","53","","","2","53","training","adjacent","DE","4","5","M.jpg","R.jpg","0","1","0","",""
"","feedback","","html-keyboard-response","357","608911","0.0-1.0-483.0-0.0","0","0","13217","","null","","","null","53","","","","","","","","","","","","","","","",""
"","time_out","","html-keyboard-response","358","610920","0.0-1.0-485.0-0.0","0","0","13217","","null","","","null","53","","","","","","","","","","","","","","","",""
"","ITI","","html-keyboard-response","359","611928","0.0-1.0-486.0","0","0","13217","","null","","","null","53","","","","","","","","","","","","","","","NaN",""
"","S1","","html-keyboard-response","360","612088","0.0-1.0-488.0","0","0","13217","","null","","","null","54","","","","","","","","","","","","","","","",""
"","ISI","","html-keyboard-response","361","614096","0.0-1.0-489.0","0","0","13217","","null","","","null","54","NaN","","","","","","","","","","","","","","",""
"","S2","","html-keyboard-response","362","614255","0.0-1.0-490.0","0","0","13217","","null","","","null","54","","NaN","","","","","","","","","","","","","",""
"","response","","html-keyboard-response","363","614887","0.0-1.0-491.0-0.0","0","0","13217","","628","","","75","54","","","2","54","training","adjacent","GF","7","6","Q.jpg","L.jpg","1","0","0","",""
"","feedback","","html-keyboard-response","364","615896","0.0-1.0-492.0-0.0","0","0","13217","","null","","","null","54","","","","","","","","","","","","","","","",""
"","time_out","","html-keyboard-response","365","617904","0.0-1.0-494.0-0.0","0","0","13217","","null","","","null","54","","","","","","","","","","","","","","","",""
"","ITI","","html-keyboard-response","366","618913","0.0-1.0-495.0","0","0","13217","","null","","","null","54","","","","","","","","","","","","","","","NaN",""
"","S1","","html-keyboard-response","367","619072","0.0-1.0-497.0","0","0","13217","","null","","","null","55","","","","","","","","","","","","","","","",""
"","ISI","","html-keyboard-response","368","621081","0.0-1.0-498.0","0","0","13217","","null","","","null","55","NaN","","","","","","","","","","","","","","",""
"","S2","","html-keyboard-response","369","621240","0.0-1.0-499.0","0","0","13217","","null","","","null","55","","NaN","","","","","","","","","","","","","",""
"","response","","html-keyboard-response","370","621884","0.0-1.0-500.0-0.0","0","0","13217","","639","","","68","55","","","2","55","training","adjacent","CB","3","2","O.jpg","N.jpg","0","0","1","",""
"","feedback","","html-keyboard-response","371","622897","0.0-1.0-501.0-0.0","0","0","13217","","null","","","null","55","","","","","","","","","","","","","","","",""
"","ITI","","html-keyboard-response","372","623904","0.0-1.0-504.0","0","0","13217","","null","","","null","55","","","","","","","","","","","","","","","NaN",""
"","S1","","html-keyboard-response","373","624063","0.0-1.0-506.0","0","0","13217","","null","","","null","56","","","","","","","","","","","","","","","",""
"","ISI","","html-keyboard-response","374","626072","0.0-1.0-507.0","0","0","13217","","null","","","null","56","NaN","","","","","","","","","","","","","","",""
"","S2","","html-keyboard-response","375","626232","0.0-1.0-508.0","0","0","13217","","null","","","null","56","","NaN","","","","","","","","","","","","","",""
"","response","","html-keyboard-response","376","626948","0.0-1.0-509.0-0.0","0","0","13217","","711","","","68","56","","","2","56","training","adjacent","EF","5","6","R.jpg","L.jpg","0","1","0","",""
"","feedback","","html-keyboard-response","377","627960","0.0-1.0-510.0-0.0","0","0","13217","","null","","","null","56","","","","","","","","","","","","","","","",""
"","time_out","","html-keyboard-response","378","629968","0.0-1.0-512.0-0.0","0","0","13217","","null","","","null","56","","","","","","","","","","","","","","","",""
"","ITI","","html-keyboard-response","379","630977","0.0-1.0-513.0","0","0","13217","","null","","","null","56","","","","","","","","","","","","","","","NaN",""
"","S1","","html-keyboard-response","380","631136","0.0-1.0-515.0","0","0","13217","","null","","","null","57","","","","","","","","","","","","","","","",""
"","ISI","","html-keyboard-response","381","633144","0.0-1.0-516.0","0","0","13217","","null","","","null","57","NaN","","","","","","","","","","","","","","",""
"","S2","","html-keyboard-response","382","633304","0.0-1.0-517.0","0","0","13217","","null","","","null","57","","NaN","","","","","","","","","","","","","",""
"","response","","html-keyboard-response","383","633892","0.0-1.0-518.0-0.0","0","0","13217","","584","","","75","57","","","2","57","training","adjacent","FG","6","7","L.jpg","Q.jpg","1","1","1","",""
"","feedback","","html-keyboard-response","384","634904","0.0-1.0-519.0-0.0","0","0","13217","","null","","","null","57","","","","","","","","","","","","","","","",""
"","ITI","","html-keyboard-response","385","635913","0.0-1.0-522.0","0","0","13217","","null","","","null","57","","","","","","","","","","","","","","","NaN",""
"","S1","","html-keyboard-response","386","636072","0.0-1.0-524.0","0","0","13217","","null","","","null","58","","","","","","","","","","","","","","","",""
"","ISI","","html-keyboard-response","387","638081","0.0-1.0-525.0","0","0","13217","","null","","","null","58","NaN","","","","","","","","","","","","","","",""
"","S2","","html-keyboard-response","388","638240","0.0-1.0-526.0","0","0","13217","","null","","","null","58","","NaN","","","","","","","","","","","","","",""
"","response","","html-keyboard-response","389","639107","0.0-1.0-527.0-0.0","0","0","13217","","862","","","75","58","","","2","58","training","adjacent","FE","6","5","L.jpg","R.jpg","1","0","0","",""
"","feedback","","html-keyboard-response","390","640120","0.0-1.0-528.0-0.0","0","0","13217","","null","","","null","58","","","","","","","","","","","","","","","",""
"","time_out","","html-keyboard-response","391","642128","0.0-1.0-530.0-0.0","0","0","13217","","null","","","null","58","","","","","","","","","","","","","","","",""
"","ITI","","html-keyboard-response","392","643136","0.0-1.0-531.0","0","0","13217","","null","","","null","58","","","","","","","","","","","","","","","NaN",""
"","S1","","html-keyboard-response","393","643295","0.0-1.0-533.0","0","0","13217","","null","","","null","59","","","","","","","","","","","","","","","",""
"","ISI","","html-keyboard-response","394","645304","0.0-1.0-534.0","0","0","13217","","null","","","null","59","NaN","","","","","","","","","","","","","","",""
"","S2","","html-keyboard-response","395","645463","0.0-1.0-535.0","0","0","13217","","null","","","null","59","","NaN","","","","","","","","","","","","","",""
"","response","","html-keyboard-response","396","646353","0.0-1.0-536.0-0.0","0","0","13217","","886","","","75","59","","","2","59","training","adjacent","GF","7","6","Q.jpg","L.jpg","1","0","0","",""
"","feedback","","html-keyboard-response","397","647361","0.0-1.0-537.0-0.0","0","0","13217","","null","","","null","59","","","","","","","","","","","","","","","",""
"","time_out","","html-keyboard-response","398","649368","0.0-1.0-539.0-0.0","0","0","13217","","null","","","null","59","","","","","","","","","","","","","","","",""
"","ITI","","html-keyboard-response","399","650376","0.0-1.0-540.0","0","0","13217","","null","","","null","59","","","","","","","","","","","","","","","NaN",""
"","S1","","html-keyboard-response","400","650536","0.0-1.0-542.0","0","0","13217","","null","","","null","60","","","","","","","","","","","","","","","",""
"","ISI","","html-keyboard-response","401","652544","0.0-1.0-543.0","0","0","13217","","null","","","null","60","NaN","","","","","","","","","","","","","","",""
"","S2","","html-keyboard-response","402","652704","0.0-1.0-544.0","0","0","13217","","null","","","null","60","","NaN","","","","","","","","","","","","","",""
"","response","","html-keyboard-response","403","653629","0.0-1.0-545.0-0.0","0","0","13217","","921","","","68","60","","","2","60","training","adjacent","EF","5","6","R.jpg","L.jpg","0","1","0","",""
"","feedback","","html-keyboard-response","404","654640","0.0-1.0-546.0-0.0","0","0","13217","","null","","","null","60","","","","","","","","","","","","","","","",""
"","time_out","","html-keyboard-response","405","656648","0.0-1.0-548.0-0.0","0","0","13217","","null","","","null","60","","","","","","","","","","","","","","","",""
"","ITI","","html-keyboard-response","406","657657","0.0-1.0-549.0","0","0","13217","","null","","","null","60","","","","","","","","","","","","","","","NaN",""
"","S1","","html-keyboard-response","407","657816","0.0-1.0-551.0","0","0","13217","","null","","","null","61","","","","","","","","","","","","","","","",""
"","ISI","","html-keyboard-response","408","659824","0.0-1.0-552.0","0","0","13217","","null","","","null","61","NaN","","","","","","","","","","","","","","",""
"","S2","","html-keyboard-response","409","659984","0.0-1.0-553.0","0","0","13217","","null","","","null","61","","NaN","","","","","","","","","","","","","",""
"","response","","html-keyboard-response","410","660915","0.0-1.0-554.0-0.0","0","0","13217","","926","","","68","61","","","2","61","training","adjacent","FE","6","5","L.jpg","R.jpg","0","0","1","",""
"","feedback","","html-keyboard-response","411","661928","0.0-1.0-555.0-0.0","0","0","13217","","null","","","null","61","","","","","","","","","","","","","","","",""
"","ITI","","html-keyboard-response","412","662935","0.0-1.0-558.0","0","0","13217","","null","","","null","61","","","","","","","","","","","","","","","NaN",""
"","S1","","html-keyboard-response","413","663096","0.0-1.0-560.0","0","0","13217","","null","","","null","62","","","","","","","","","","","","","","","",""
"","ISI","","html-keyboard-response","414","665104","0.0-1.0-561.0","0","0","13217","","null","","","null","62","NaN","","","","","","","","","","","","","","",""
"","S2","","html-keyboard-response","415","665263","0.0-1.0-562.0","0","0","13217","","null","","","null","62","","NaN","","","","","","","","","","","","","",""
"","response","","html-keyboard-response","416","666297","0.0-1.0-563.0-0.0","0","0","13217","","1032","","","68","62","","","2","62","training","adjacent","BA","2","1","N.jpg","P.jpg","0","0","1","",""
"","feedback","","html-keyboard-response","417","667304","0.0-1.0-564.0-0.0","0","0","13217","","null","","","null","62","","","","","","","","","","","","","","","",""
"","ITI","","html-keyboard-response","418","668312","0.0-1.0-567.0","0","0","13217","","null","","","null","62","","","","","","","","","","","","","","","NaN",""
"","S1","","html-keyboard-response","419","668473","0.0-1.0-569.0","0","0","13217","","null","","","null","63","","","","","","","","","","","","","","","",""
"","ISI","","html-keyboard-response","420","670480","0.0-1.0-570.0","0","0","13217","","null","","","null","63","NaN","","","","","","","","","","","","","","",""
"","S2","","html-keyboard-response","421","670641","0.0-1.0-571.0","0","0","13217","","null","","","null","63","","NaN","","","","","","","","","","","","","",""
"","response","","html-keyboard-response","422","671627","0.0-1.0-572.0-0.0","0","0","13217","","981","","","68","63","","","2","63","training","adjacent","AB","1","2","P.jpg","N.jpg","0","1","0","",""
"","feedback","","html-keyboard-response","423","672641","0.0-1.0-573.0-0.0","0","0","13217","","null","","","null","63","","","","","","","","","","","","","","","",""
"","time_out","","html-keyboard-response","424","674648","0.0-1.0-575.0-0.0","0","0","13217","","null","","","null","63","","","","","","","","","","","","","","","",""
"","ITI","","html-keyboard-response","425","675655","0.0-1.0-576.0","0","0","13217","","null","","","null","63","","","","","","","","","","","","","","","NaN",""
"","S1","","html-keyboard-response","426","675816","0.0-1.0-578.0","0","0","13217","","null","","","null","64","","","","","","","","","","","","","","","",""
"","ISI","","html-keyboard-response","427","677824","0.0-1.0-579.0","0","0","13217","","null","","","null","64","NaN","","","","","","","","","","","","","","",""
"","S2","","html-keyboard-response","428","677984","0.0-1.0-580.0","0","0","13217","","null","","","null","64","","NaN","","","","","","","","","","","","","",""
"","response","","html-keyboard-response","429","679033","0.0-1.0-581.0-0.0","0","0","13217","","1045","","","75","64","","","2","64","training","adjacent","BA","2","1","N.jpg","P.jpg","1","0","0","",""
"","feedback","","html-keyboard-response","430","680039","0.0-1.0-582.0-0.0","0","0","13217","","null","","","null","64","","","","","","","","","","","","","","","",""
"","time_out","","html-keyboard-response","431","682048","0.0-1.0-584.0-0.0","0","0","13217","","null","","","null","64","","","","","","","","","","","","","","","",""
"","ITI","","html-keyboard-response","432","683056","0.0-1.0-585.0","0","0","13217","","null","","","null","64","","","","","","","","","","","","","","","NaN",""
"","S1","","html-keyboard-response","433","683216","0.0-1.0-587.0","0","0","13217","","null","","","null","65","","","","","","","","","","","","","","","",""
"","ISI","","html-keyboard-response","434","685225","0.0-1.0-588.0","0","0","13217","","null","","","null","65","NaN","","","","","","","","","","","","","","",""
"","S2","","html-keyboard-response","435","685384","0.0-1.0-589.0","0","0","13217","","null","","","null","65","","NaN","","","","","","","","","","","","","",""
"","response","","html-keyboard-response","436","686549","0.0-1.0-590.0-0.0","0","0","13217","","1162","","","68","65","","","2","65","training","adjacent","CD","3","4","O.jpg","M.jpg","0","1","0","",""
"","feedback","","html-keyboard-response","437","687560","0.0-1.0-591.0-0.0","0","0","13217","","null","","","null","65","","","","","","","","","","","","","","","",""
"","time_out","","html-keyboard-response","438","689568","0.0-1.0-593.0-0.0","0","0","13217","","null","","","null","65","","","","","","","","","","","","","","","",""
"","ITI","","html-keyboard-response","439","690576","0.0-1.0-594.0","0","0","13217","","null","","","null","65","","","","","","","","","","","","","","","NaN",""
"","S1","","html-keyboard-response","440","690736","0.0-1.0-596.0","0","0","13217","","null","","","null","66","","","","","","","","","","","","","","","",""
"","ISI","","html-keyboard-response","441","692744","0.0-1.0-597.0","0","0","13217","","null","","","null","66","NaN","","","","","","","","","","","","","","",""
"","S2","","html-keyboard-response","442","692905","0.0-1.0-598.0","0","0","13217","","null","","","null","66","","NaN","","","","","","","","","","","","","",""
"","response","","html-keyboard-response","443","693157","0.0-1.0-599.0-0.0","0","0","13217","","245","","","68","66","","","2","66","training","adjacent","ED","5","4","R.jpg","M.jpg","0","0","1","",""
"","feedback","","html-keyboard-response","444","694168","0.0-1.0-600.0-0.0","0","0","13217","","null","","","null","66","","","","","","","","","","","","","","","",""
"","ITI","","html-keyboard-response","445","695176","0.0-1.0-603.0","0","0","13217","","null","","","null","66","","","","","","","","","","","","","","","NaN",""
"","S1","","html-keyboard-response","446","695336","0.0-1.0-605.0","0","0","13217","","null","","","null","67","","","","","","","","","","","","","","","",""
"","ISI","","html-keyboard-response","447","697344","0.0-1.0-606.0","0","0","13217","","null","","","null","67","NaN","","","","","","","","","","","","","","",""
"","S2","","html-keyboard-response","448","697503","0.0-1.0-607.0","0","0","13217","","null","","","null","67","","NaN","","","","","","","","","","","","","",""
"","response","","html-keyboard-response","449","698133","0.0-1.0-608.0-0.0","0","0","13217","","627","","","75","67","","","2","67","training","adjacent","GF","7","6","Q.jpg","L.jpg","1","0","0","",""
"","feedback","","html-keyboard-response","450","699144","0.0-1.0-609.0-0.0","0","0","13217","","null","","","null","67","","","","","","","","","","","","","","","",""
"","time_out","","html-keyboard-response","451","701152","0.0-1.0-611.0-0.0","0","0","13217","","null","","","null","67","","","","","","","","","","","","","","","",""
"","ITI","","html-keyboard-response","452","702160","0.0-1.0-612.0","0","0","13217","","null","","","null","67","","","","","","","","","","","","","","","NaN",""
"","S1","","html-keyboard-response","453","702319","0.0-1.0-614.0","0","0","13217","","null","","","null","68","","","","","","","","","","","","","","","",""
"","ISI","","html-keyboard-response","454","704328","0.0-1.0-615.0","0","0","13217","","null","","","null","68","NaN","","","","","","","","","","","","","","",""
"","S2","","html-keyboard-response","455","704489","0.0-1.0-616.0","0","0","13217","","null","","","null","68","","NaN","","","","","","","","","","","","","",""
"","response","","html-keyboard-response","456","705346","0.0-1.0-617.0-0.0","0","0","13217","","852","","","68","68","","","2","68","training","adjacent","CD","3","4","O.jpg","M.jpg","0","1","0","",""
"","feedback","","html-keyboard-response","457","706353","0.0-1.0-618.0-0.0","0","0","13217","","null","","","null","68","","","","","","","","","","","","","","","",""
"","time_out","","html-keyboard-response","458","708360","0.0-1.0-620.0-0.0","0","0","13217","","null","","","null","68","","","","","","","","","","","","","","","",""
"","ITI","","html-keyboard-response","459","709369","0.0-1.0-621.0","0","0","13217","","null","","","null","68","","","","","","","","","","","","","","","NaN",""
"","S1","","html-keyboard-response","460","709528","0.0-1.0-623.0","0","0","13217","","null","","","null","69","","","","","","","","","","","","","","","",""
"","ISI","","html-keyboard-response","461","711535","0.0-1.0-624.0","0","0","13217","","null","","","null","69","NaN","","","","","","","","","","","","","","",""
"","S2","","html-keyboard-response","462","711695","0.0-1.0-625.0","0","0","13217","","null","","","null","69","","NaN","","","","","","","","","","","","","",""
"","response","","html-keyboard-response","463","712354","0.0-1.0-626.0-0.0","0","0","13217","","654","","","75","69","","","2","69","training","adjacent","BC","2","3","N.jpg","O.jpg","1","1","1","",""
"","feedback","","html-keyboard-response","464","713360","0.0-1.0-627.0-0.0","0","0","13217","","null","","","null","69","","","","","","","","","","","","","","","",""
"","ITI","","html-keyboard-response","465","714368","0.0-1.0-630.0","0","0","13217","","null","","","null","69","","","","","","","","","","","","","","","NaN",""
"","S1","","html-keyboard-response","466","714528","0.0-1.0-632.0","0","0","13217","","null","","","null","70","","","","","","","","","","","","","","","",""
"","ISI","","html-keyboard-response","467","716536","0.0-1.0-633.0","0","0","13217","","null","","","null","70","NaN","","","","","","","","","","","","","","",""
"","S2","","html-keyboard-response","468","716695","0.0-1.0-634.0","0","0","13217","","null","","","null","70","","NaN","","","","","","","","","","","","","",""
"","response","","html-keyboard-response","469","717679","0.0-1.0-635.0-0.0","0","0","13217","","981","","","75","70","","","2","70","training","adjacent","DE","4","5","M.jpg","R.jpg","1","1","1","",""
"","feedback","","html-keyboard-response","470","718688","0.0-1.0-636.0-0.0","0","0","13217","","null","","","null","70","","","","","","","","","","","","","","","",""
"","ITI","","html-keyboard-response","471","719696","0.0-1.0-639.0","0","0","13217","","null","","","null","70","","","","","","","","","","","","","","","NaN",""
"","S1","","html-keyboard-response","472","719856","0.0-1.0-641.0","0","0","13217","","null","","","null","71","","","","","","","","","","","","","","","",""
"","ISI","","html-keyboard-response","473","721864","0.0-1.0-642.0","0","0","13217","","null","","","null","71","NaN","","","","","","","","","","","","","","",""
"","S2","","html-keyboard-response","474","722024","0.0-1.0-643.0","0","0","13217","","null","","","null","71","","NaN","","","","","","","","","","","","","",""
"","response","","html-keyboard-response","475","722781","0.0-1.0-644.0-0.0","0","0","13217","","753","","","68","71","","","2","71","training","adjacent","EF","5","6","R.jpg","L.jpg","0","1","0","",""
"","feedback","","html-keyboard-response","476","723792","0.0-1.0-645.0-0.0","0","0","13217","","null","","","null","71","","","","","","","","","","","","","","","",""
"","time_out","","html-keyboard-response","477","725800","0.0-1.0-647.0-0.0","0","0","13217","","null","","","null","71","","","","","","","","","","","","","","","",""
"","ITI","","html-keyboard-response","478","726806","0.0-1.0-648.0","0","0","13217","","null","","","null","71","","","","","","","","","","","","","","","NaN",""
"","S1","","html-keyboard-response","479","726968","0.0-1.0-650.0","0","0","13217","","null","","","null","72","","","","","","","","","","","","","","","",""
"","ISI","","html-keyboard-response","480","728976","0.0-1.0-651.0","0","0","13217","","null","","","null","72","NaN","","","","","","","","","","","","","","",""
"","S2","","html-keyboard-response","481","729136","0.0-1.0-652.0","0","0","13217","","null","","","null","72","","NaN","","","","","","","","","","","","","",""
"","response","","html-keyboard-response","482","729966","0.0-1.0-653.0-0.0","0","0","13217","","825","","","75","72","","","2","72","training","adjacent","AB","1","2","P.jpg","N.jpg","1","1","1","",""
"","feedback","","html-keyboard-response","483","730974","0.0-1.0-654.0-0.0","0","0","13217","","null","","","null","72","","","","","","","","","","","","","","","",""
"","ITI","","html-keyboard-response","484","731983","0.0-1.0-657.0","0","0","13217","","null","","","null","72","","","","","","","","","","","","","","","NaN",""
"","S1","","html-keyboard-response","485","732143","0.0-1.0-659.0","0","0","13217","","null","","","null","73","","","","","","","","","","","","","","","",""
"","ISI","","html-keyboard-response","486","734151","0.0-1.0-660.0","0","0","13217","","null","","","null","73","NaN","","","","","","","","","","","","","","",""
"","S2","","html-keyboard-response","487","734312","0.0-1.0-661.0","0","0","13217","","null","","","null","73","","NaN","","","","","","","","","","","","","",""
"","response","","html-keyboard-response","488","734537","0.0-1.0-662.0-0.0","0","0","13217","","220","","","75","73","","","2","73","training","adjacent","AB","1","2","P.jpg","N.jpg","1","1","1","",""
"","feedback","","html-keyboard-response","489","735544","0.0-1.0-663.0-0.0","0","0","13217","","null","","","null","73","","","","","","","","","","","","","","","",""
"","ITI","","html-keyboard-response","490","736552","0.0-1.0-666.0","0","0","13217","","null","","","null","73","","","","","","","","","","","","","","","NaN",""
"","S1","","html-keyboard-response","491","736712","0.0-1.0-668.0","0","0","13217","","null","","","null","74","","","","","","","","","","","","","","","",""
"","ISI","","html-keyboard-response","492","738721","0.0-1.0-669.0","0","0","13217","","null","","","null","74","NaN","","","","","","","","","","","","","","",""
"","S2","","html-keyboard-response","493","738880","0.0-1.0-670.0","0","0","13217","","null","","","null","74","","NaN","","","","","","","","","","","","","",""
"","response","","html-keyboard-response","494","739892","0.0-1.0-671.0-0.0","0","0","13217","","1010","","","68","74","","","2","74","training","adjacent","CD","3","4","O.jpg","M.jpg","0","1","0","",""
"","feedback","","html-keyboard-response","495","740904","0.0-1.0-672.0-0.0","0","0","13217","","null","","","null","74","","","","","","","","","","","","","","","",""
"","time_out","","html-keyboard-response","496","742912","0.0-1.0-674.0-0.0","0","0","13217","","null","","","null","74","","","","","","","","","","","","","","","",""
"","ITI","","html-keyboard-response","497","743920","0.0-1.0-675.0","0","0","13217","","null","","","null","74","","","","","","","","","","","","","","","NaN",""
"","S1","","html-keyboard-response","498","744081","0.0-1.0-677.0","0","0","13217","","null","","","null","75","","","","","","","","","","","","","","","",""
"","ISI","","html-keyboard-response","499","746087","0.0-1.0-678.0","0","0","13217","","null","","","null","75","NaN","","","","","","","","","","","","","","",""
"","S2","","html-keyboard-response","500","746249","0.0-1.0-679.0","0","0","13217","","null","","","null","75","","NaN","","","","","","","","","","","","","",""
"","response","","html-keyboard-response","501","747365","0.0-1.0-680.0-0.0","0","0","13217","","1111","","","75","75","","","2","75","training","adjacent","DE","4","5","M.jpg","R.jpg","1","1","1","",""
"","feedback","","html-keyboard-response","502","748375","0.0-1.0-681.0-0.0","0","0","13217","","null","","","null","75","","","","","","","","","","","","","","","",""
"","ITI","","html-keyboard-response","503","749385","0.0-1.0-684.0","0","0","13217","","null","","","null","75","","","","","","","","","","","","","","","NaN",""
"","S1","","html-keyboard-response","504","749543","0.0-1.0-686.0","0","0","13217","","null","","","null","76","","","","","","","","","","","","","","","",""
"","ISI","","html-keyboard-response","505","751552","0.0-1.0-687.0","0","0","13217","","null","","","null","76","NaN","","","","","","","","","","","","","","",""
"","S2","","html-keyboard-response","506","751712","0.0-1.0-688.0","0","0","13217","","null","","","null","76","","NaN","","","","","","","","","","","","","",""
"","response","","html-keyboard-response","507","752770","0.0-1.0-689.0-0.0","0","0","13217","","1054","","","75","76","","","2","76","training","adjacent","EF","5","6","R.jpg","L.jpg","1","1","1","",""
"","feedback","","html-keyboard-response","508","753776","0.0-1.0-690.0-0.0","0","0","13217","","null","","","null","76","","","","","","","","","","","","","","","",""
"","ITI","","html-keyboard-response","509","754784","0.0-1.0-693.0","0","0","13217","","null","","","null","76","","","","","","","","","","","","","","","NaN",""
"","S1","","html-keyboard-response","510","754944","0.0-1.0-695.0","0","0","13217","","null","","","null","77","","","","","","","","","","","","","","","",""
"","ISI","","html-keyboard-response","511","756952","0.0-1.0-696.0","0","0","13217","","null","","","null","77","NaN","","","","","","","","","","","","","","",""
"","S2","","html-keyboard-response","512","757112","0.0-1.0-697.0","0","0","13217","","null","","","null","77","","NaN","","","","","","","","","","","","","",""
"","response","","html-keyboard-response","513","758029","0.0-1.0-698.0-0.0","0","0","13217","","912","","","75","77","","","2","77","training","adjacent","AB","1","2","P.jpg","N.jpg","1","1","1","",""
"","feedback","","html-keyboard-response","514","759040","0.0-1.0-699.0-0.0","0","0","13217","","null","","","null","77","","","","","","","","","","","","","","","",""
"","ITI","","html-keyboard-response","515","760048","0.0-1.0-702.0","0","0","13217","","null","","","null","77","","","","","","","","","","","","","","","NaN",""
"","S1","","html-keyboard-response","516","760208","0.0-1.0-704.0","0","0","13217","","null","","","null","78","","","","","","","","","","","","","","","",""
"","ISI","","html-keyboard-response","517","762216","0.0-1.0-705.0","0","0","13217","","null","","","null","78","NaN","","","","","","","","","","","","","","",""
"","S2","","html-keyboard-response","518","762376","0.0-1.0-706.0","0","0","13217","","null","","","null","78","","NaN","","","","","","","","","","","","","",""
"","response","","html-keyboard-response","519","763068","0.0-1.0-707.0-0.0","0","0","13217","","687","","","75","78","","","2","78","training","adjacent","CB","3","2","O.jpg","N.jpg","1","0","0","",""
"","feedback","","html-keyboard-response","520","764081","0.0-1.0-708.0-0.0","0","0","13217","","null","","","null","78","","","","","","","","","","","","","","","",""
"","time_out","","html-keyboard-response","521","766088","0.0-1.0-710.0-0.0","0","0","13217","","null","","","null","78","","","","","","","","","","","","","","","",""
"","ITI","","html-keyboard-response","522","767096","0.0-1.0-711.0","0","0","13217","","null","","","null","78","","","","","","","","","","","","","","","NaN",""
"","S1","","html-keyboard-response","523","767256","0.0-1.0-713.0","0","0","13217","","null","","","null","79","","","","","","","","","","","","","","","",""
"","ISI","","html-keyboard-response","524","769263","0.0-1.0-714.0","0","0","13217","","null","","","null","79","NaN","","","","","","","","","","","","","","",""
"","S2","","html-keyboard-response","525","769424","0.0-1.0-715.0","0","0","13217","","null","","","null","79","","NaN","","","","","","","","","","","","","",""
"","response","","html-keyboard-response","526","770321","0.0-1.0-716.0-0.0","0","0","13217","","892","","","68","79","","","2","79","training","adjacent","BC","2","3","N.jpg","O.jpg","0","1","0","",""
"","feedback","","html-keyboard-response","527","771327","0.0-1.0-717.0-0.0","0","0","13217","","null","","","null","79","","","","","","","","","","","","","","","",""
"","time_out","","html-keyboard-response","528","773336","0.0-1.0-719.0-0.0","0","0","13217","","null","","","null","79","","","","","","","","","","","","","","","",""
"","ITI","","html-keyboard-response","529","774344","0.0-1.0-720.0","0","0","13217","","null","","","null","79","","","","","","","","","","","","","","","NaN",""
"","S1","","html-keyboard-response","530","774503","0.0-1.0-722.0","0","0","13217","","null","","","null","80","","","","","","","","","","","","","","","",""
"","ISI","","html-keyboard-response","531","776512","0.0-1.0-723.0","0","0","13217","","null","","","null","80","NaN","","","","","","","","","","","","","","",""
"","S2","","html-keyboard-response","532","776672","0.0-1.0-724.0","0","0","13217","","null","","","null","80","","NaN","","","","","","","","","","","","","",""
"","response","","html-keyboard-response","533","777384","0.0-1.0-725.0-0.0","0","0","13217","","707","","","75","80","","","2","80","training","adjacent","DE","4","5","M.jpg","R.jpg","1","1","1","",""
"","feedback","","html-keyboard-response","534","778392","0.0-1.0-726.0-0.0","0","0","13217","","null","","","null","80","","","","","","","","","","","","","","","",""
"","ITI","","html-keyboard-response","535","779400","0.0-1.0-729.0","0","0","13217","","null","","","null","80","","","","","","","","","","","","","","","NaN",""
"","S1","","html-keyboard-response","536","779559","0.0-1.0-731.0","0","0","13217","","null","","","null","81","","","","","","","","","","","","","","","",""
"","ISI","","html-keyboard-response","537","781568","0.0-1.0-732.0","0","0","13217","","null","","","null","81","NaN","","","","","","","","","","","","","","",""
"","S2","","html-keyboard-response","538","781728","0.0-1.0-733.0","0","0","13217","","null","","","null","81","","NaN","","","","","","","","","","","","","",""
"","response","","html-keyboard-response","539","782318","0.0-1.0-734.0-0.0","0","0","13217","","585","","","68","81","","","2","81","training","adjacent","FE","6","5","L.jpg","R.jpg","0","0","1","",""
"","feedback","","html-keyboard-response","540","783327","0.0-1.0-735.0-0.0","0","0","13217","","null","","","null","81","","","","","","","","","","","","","","","",""
"","ITI","","html-keyboard-response","541","784336","0.0-1.0-738.0","0","0","13217","","null","","","null","81","","","","","","","","","","","","","","","NaN",""
"","S1","","html-keyboard-response","542","784497","0.0-1.0-740.0","0","0","13217","","null","","","null","82","","","","","","","","","","","","","","","",""
"","ISI","","html-keyboard-response","543","786504","0.0-1.0-741.0","0","0","13217","","null","","","null","82","NaN","","","","","","","","","","","","","","",""
"","S2","","html-keyboard-response","544","786663","0.0-1.0-742.0","0","0","13217","","null","","","null","82","","NaN","","","","","","","","","","","","","",""
"","response","","html-keyboard-response","545","787421","0.0-1.0-743.0-0.0","0","0","13217","","756","","","75","82","","","2","82","training","adjacent","DC","4","3","M.jpg","O.jpg","1","0","0","",""
"","feedback","","html-keyboard-response","546","788432","0.0-1.0-744.0-0.0","0","0","13217","","null","","","null","82","","","","","","","","","","","","","","","",""
"","time_out","","html-keyboard-response","547","790439","0.0-1.0-746.0-0.0","0","0","13217","","null","","","null","82","","","","","","","","","","","","","","","",""
"","ITI","","html-keyboard-response","548","791447","0.0-1.0-747.0","0","0","13217","","null","","","null","82","","","","","","","","","","","","","","","NaN",""
"","S1","","html-keyboard-response","549","791606","0.0-1.0-749.0","0","0","13217","","null","","","null","83","","","","","","","","","","","","","","","",""
"","ISI","","html-keyboard-response","550","793614","0.0-1.0-750.0","0","0","13217","","null","","","null","83","NaN","","","","","","","","","","","","","","",""
"","S2","","html-keyboard-response","551","793775","0.0-1.0-751.0","0","0","13217","","null","","","null","83","","NaN","","","","","","","","","","","","","",""
"","response","","html-keyboard-response","552","794535","0.0-1.0-752.0-0.0","0","0","13217","","755","","","75","83","","","2","83","training","adjacent","BC","2","3","N.jpg","O.jpg","1","1","1","",""
"","feedback","","html-keyboard-response","553","795543","0.0-1.0-753.0-0.0","0","0","13217","","null","","","null","83","","","","","","","","","","","","","","","",""
"","ITI","","html-keyboard-response","554","796552","0.0-1.0-756.0","0","0","13217","","null","","","null","83","","","","","","","","","","","","","","","NaN",""
"","S1","","html-keyboard-response","555","796711","0.0-1.0-758.0","0","0","13217","","null","","","null","84","","","","","","","","","","","","","","","",""
"","ISI","","html-keyboard-response","556","798720","0.0-1.0-759.0","0","0","13217","","null","","","null","84","NaN","","","","","","","","","","","","","","",""
"","S2","","html-keyboard-response","557","798879","0.0-1.0-760.0","0","0","13217","","null","","","null","84","","NaN","","","","","","","","","","","","","",""
"","response","","html-keyboard-response","558","799372","0.0-1.0-761.0-0.0","0","0","13217","","488","","","68","84","","","2","84","training","adjacent","CD","3","4","O.jpg","M.jpg","0","1","0","",""
"","feedback","","html-keyboard-response","559","800384","0.0-1.0-762.0-0.0","0","0","13217","","null","","","null","84","","","","","","","","","","","","","","","",""
"","time_out","","html-keyboard-response","560","802391","0.0-1.0-764.0-0.0","0","0","13217","","null","","","null","84","","","","","","","","","","","","","","","",""
"","ITI","","html-keyboard-response","561","803400","0.0-1.0-765.0","0","0","13217","","null","","","null","84","","","","","","","","","","","","","","","NaN",""
"","S1","","html-keyboard-response","562","803559","0.0-1.0-767.0","0","0","13217","","null","","","null","85","","","","","","","","","","","","","","","",""
"","ISI","","html-keyboard-response","563","805568","0.0-1.0-768.0","0","0","13217","","null","","","null","85","NaN","","","","","","","","","","","","","","",""
"","S2","","html-keyboard-response","564","805728","0.0-1.0-769.0","0","0","13217","","null","","","null","85","","NaN","","","","","","","","","","","","","",""
"","response","","html-keyboard-response","565","806603","0.0-1.0-770.0-0.0","0","0","13217","","870","","","68","85","","","2","85","training","adjacent","ED","5","4","R.jpg","M.jpg","0","0","1","",""
"","feedback","","html-keyboard-response","566","807616","0.0-1.0-771.0-0.0","0","0","13217","","null","","","null","85","","","","","","","","","","","","","","","",""
"","ITI","","html-keyboard-response","567","808623","0.0-1.0-774.0","0","0","13217","","null","","","null","85","","","","","","","","","","","","","","","NaN",""
"","S1","","html-keyboard-response","568","808784","0.0-1.0-776.0","0","0","13217","","null","","","null","86","","","","","","","","","","","","","","","",""
"","ISI","","html-keyboard-response","569","810792","0.0-1.0-777.0","0","0","13217","","null","","","null","86","NaN","","","","","","","","","","","","","","",""
"","S2","","html-keyboard-response","570","810951","0.0-1.0-778.0","0","0","13217","","null","","","null","86","","NaN","","","","","","","","","","","","","",""
"","response","","html-keyboard-response","571","811570","0.0-1.0-779.0-0.0","0","0","13217","","615","","","68","86","","","2","86","training","adjacent","BC","2","3","N.jpg","O.jpg","0","1","0","",""
"","feedback","","html-keyboard-response","572","812576","0.0-1.0-780.0-0.0","0","0","13217","","null","","","null","86","","","","","","","","","","","","","","","",""
"","time_out","","html-keyboard-response","573","814584","0.0-1.0-782.0-0.0","0","0","13217","","null","","","null","86","","","","","","","","","","","","","","","",""
"","ITI","","html-keyboard-response","574","815592","0.0-1.0-783.0","0","0","13217","","null","","","null","86","","","","","","","","","","","","","","","NaN",""
"","S1","","html-keyboard-response","575","815751","0.0-1.0-785.0","0","0","13217","","null","","","null","87","","","","","","","","","","","","","","","",""
"","ISI","","html-keyboard-response","576","817758","0.0-1.0-786.0","0","0","13217","","null","","","null","87","NaN","","","","","","","","","","","","","","",""
"","S2","","html-keyboard-response","577","817920","0.0-1.0-787.0","0","0","13217","","null","","","null","87","","NaN","","","","","","","","","","","","","",""
"","response","","html-keyboard-response","578","818960","0.0-1.0-788.0-0.0","0","0","13217","","1035","","","68","87","","","2","87","training","adjacent","BA","2","1","N.jpg","P.jpg","0","0","1","",""
