"success","ttype","start_time","trial_type","trial_index","time_elapsed","internal_node_id","warning","missed_checkup","PID","view_history","rt","responses","repeat_instructions","key_press","index","keypress_isi","keypress_S2","block","trial_num","phase","group_type","pair_type","S1_stim","S2_stim","S1_img","S2_img","S1_chosen","S1_higher","accuracy","keypress_iti","total_bonus_tally"
"true","full_screen","d04062023hr2102","fullscreen","0","50068","0.0-0.0","0","0","75931","","","","","","","","","","","","","","","","","","","","","",""
"","instructions","","instructions","1","131538","0.0-1.0-0.0-0.0","0","0","75931","[{""page_index"":0,""viewing_time"":11194},{""page_index"":1,""viewing_time"":56078},{""page_index"":2,""viewing_time"":11409},{""page_index"":3,""viewing_time"":2784}]","81467","","","","","","","","","","","","","","","","","","","",""
"","comprehension_check","","survey-multi-choice","2","161456","0.0-1.0-0.0-1.0","0","0","75931","","29909","{""Q0"":""True"",""Q1"":""K"",""Q2"":""Only when the screen 'MAKE A CHOICE' is shown"",""Q3"":""Green mark"",""Q4"":""either D or K""}","1","","","","","","","","","","","","","","","","","",""
"","missed_instruction_checkup","","html-keyboard-response","3","165062","0.0-1.0-0.0-2.0-0.0","0","1","75931","","3598","","","32","","","","","","","","","","","","","","","","",""
"","instructions","","instructions","4","273932","0.0-1.0-0.1-0.1","0","0","75931","[{""page_index"":0,""viewing_time"":25087},{""page_index"":1,""viewing_time"":71456},{""page_index"":2,""viewing_time"":10578},{""page_index"":3,""viewing_time"":1744}]","108865","","","","","","","","","","","","","","","","","","","",""
"","comprehension_check","","survey-multi-choice","5","294725","0.0-1.0-0.1-1.1","0","0","75931","","20787","{""Q0"":""True"",""Q1"":""K"",""Q2"":""Once the second image appears and while the screen 'MAKE A CHOICE' is shown"",""Q3"":""Green mark"",""Q4"":""either D or K""}","0","","","","","","","","","","","","","","","","","",""
"","start_exp","","html-keyboard-response","6","299380","0.0-1.0-1.0","0","0","75931","","4651","","","32","","","","","","","","","","","","","","","","",""
"","S1","","html-keyboard-response","7","299534","0.0-1.0-2.0","0","0","75931","","null","","","null","0","","","","","","","","","","","","","","","",""
"","ISI","","html-keyboard-response","8","301539","0.0-1.0-3.0","0","0","75931","","411","","","75","0","k","","","","","","","","","","","","","","",""
"","S2","","html-keyboard-response","9","301694","0.0-1.0-4.0","0","0","75931","","null","","","null","0","","NaN","","","","","","","","","","","","","",""
"","response","","html-keyboard-response","10","302525","0.0-1.0-5.0-0.0","0","0","75931","","827","","","75","0","","","1","0","training","adjacent","FE","6","5","M.jpg","N.jpg","1","0","0","",""
"","feedback","","html-keyboard-response","11","303530","0.0-1.0-6.0-0.0","0","0","75931","","null","","","null","0","","","","","","","","","","","","","","","",""
"","time_out","","html-keyboard-response","12","305535","0.0-1.0-8.0-0.0","0","0","75931","","null","","","null","0","","","","","","","","","","","","","","","",""
"","ITI","","html-keyboard-response","13","306538","0.0-1.0-9.0","0","0","75931","","null","","","null","0","","","","","","","","","","","","","","","NaN",""
"","S1","","html-keyboard-response","14","306692","0.0-1.0-11.0","0","0","75931","","null","","","null","1","","","","","","","","","","","","","","","",""
"","ISI","","html-keyboard-response","15","308696","0.0-1.0-12.0","0","0","75931","","null","","","null","1","NaN","","","","","","","","","","","","","","",""
"","S2","","html-keyboard-response","16","308850","0.0-1.0-13.0","0","0","75931","","null","","","null","1","","NaN","","","","","","","","","","","","","",""
"","response","","html-keyboard-response","17","310030","0.0-1.0-14.0-0.0","0","0","75931","","1176","","","75","1","","","1","1","training","adjacent","DE","4","5","R.jpg","N.jpg","1","1","1","",""
"","feedback","","html-keyboard-response","18","311034","0.0-1.0-15.0-0.0","0","0","75931","","null","","","null","1","","","","","","","","","","","","","","","",""
"","ITI","","html-keyboard-response","19","312038","0.0-1.0-18.0","0","0","75931","","null","","","null","1","","","","","","","","","","","","","","","NaN",""
"","S1","","html-keyboard-response","20","312193","0.0-1.0-20.0","0","0","75931","","null","","","null","2","","","","","","","","","","","","","","","",""
"","ISI","","html-keyboard-response","21","314197","0.0-1.0-21.0","0","0","75931","","null","","","null","2","NaN","","","","","","","","","","","","","","",""
"","S2","","html-keyboard-response","22","314351","0.0-1.0-22.0","0","0","75931","","null","","","null","2","","NaN","","","","","","","","","","","","","",""
"","response","","html-keyboard-response","23","315254","0.0-1.0-23.0-0.0","0","0","75931","","900","","","68","2","","","1","2","training","adjacent","CD","3","4","O.jpg","R.jpg","0","1","0","",""
"","feedback","","html-keyboard-response","24","316258","0.0-1.0-24.0-0.0","0","0","75931","","null","","","null","2","","","","","","","","","","","","","","","",""
"","time_out","","html-keyboard-response","25","318262","0.0-1.0-26.0-0.0","0","0","75931","","null","","","null","2","","","","","","","","","","","","","","","",""
"","ITI","","html-keyboard-response","26","319265","0.0-1.0-27.0","0","0","75931","","null","","","null","2","","","","","","","","","","","","","","","NaN",""
"","S1","","html-keyboard-response","27","319419","0.0-1.0-29.0","0","0","75931","","null","","","null","3","","","","","","","","","","","","","","","",""
"","ISI","","html-keyboard-response","28","321423","0.0-1.0-30.0","0","0","75931","","null","","","null","3","NaN","","","","","","","","","","","","","","",""
"","S2","","html-keyboard-response","29","321577","0.0-1.0-31.0","0","0","75931","","null","","","null","3","","NaN","","","","","","","","","","","","","",""
"","response","","html-keyboard-response","30","322575","0.0-1.0-32.0-0.0","0","0","75931","","994","","","68","3","","","1","3","training","adjacent","EF","5","6","N.jpg","M.jpg","0","1","0","",""
"","feedback","","html-keyboard-response","31","323579","0.0-1.0-33.0-0.0","0","0","75931","","null","","","null","3","","","","","","","","","","","","","","","",""
"","time_out","","html-keyboard-response","32","325583","0.0-1.0-35.0-0.0","0","0","75931","","null","","","null","3","","","","","","","","","","","","","","","",""
"","ITI","","html-keyboard-response","33","326586","0.0-1.0-36.0","0","0","75931","","null","","","null","3","","","","","","","","","","","","","","","NaN",""
"","S1","","html-keyboard-response","34","326741","0.0-1.0-38.0","0","0","75931","","null","","","null","4","","","","","","","","","","","","","","","",""
"","ISI","","html-keyboard-response","35","328744","0.0-1.0-39.0","0","0","75931","","null","","","null","4","NaN","","","","","","","","","","","","","","",""
"","S2","","html-keyboard-response","36","328899","0.0-1.0-40.0","0","0","75931","","null","","","null","4","","NaN","","","","","","","","","","","","","",""
"","response","","html-keyboard-response","37","329647","0.0-1.0-41.0-0.0","0","0","75931","","746","","","75","4","","","1","4","training","adjacent","GF","7","6","L.jpg","M.jpg","1","0","0","",""
"","feedback","","html-keyboard-response","38","330651","0.0-1.0-42.0-0.0","0","0","75931","","null","","","null","4","","","","","","","","","","","","","","","",""
"","time_out","","html-keyboard-response","39","332667","0.0-1.0-44.0-0.0","0","0","75931","","null","","","null","4","","","","","","","","","","","","","","","",""
"","ITI","","html-keyboard-response","40","333670","0.0-1.0-45.0","0","0","75931","","null","","","null","4","","","","","","","","","","","","","","","NaN",""
"","S1","","html-keyboard-response","41","333825","0.0-1.0-47.0","0","0","75931","","null","","","null","5","","","","","","","","","","","","","","","",""
"","ISI","","html-keyboard-response","42","335828","0.0-1.0-48.0","0","0","75931","","null","","","null","5","NaN","","","","","","","","","","","","","","",""
"","S2","","html-keyboard-response","43","335982","0.0-1.0-49.0","0","0","75931","","null","","","null","5","","NaN","","","","","","","","","","","","","",""
"","response","","html-keyboard-response","44","336984","0.0-1.0-50.0-0.0","0","0","75931","","999","","","75","5","","","1","5","training","adjacent","AB","1","2","P.jpg","Q.jpg","1","1","1","",""
"","feedback","","html-keyboard-response","45","337988","0.0-1.0-51.0-0.0","0","0","75931","","null","","","null","5","","","","","","","","","","","","","","","",""
"","ITI","","html-keyboard-response","46","338991","0.0-1.0-54.0","0","0","75931","","null","","","null","5","","","","","","","","","","","","","","","NaN",""
"","S1","","html-keyboard-response","47","339145","0.0-1.0-56.0","0","0","75931","","null","","","null","6","","","","","","","","","","","","","","","",""
"","ISI","","html-keyboard-response","48","341159","0.0-1.0-57.0","0","0","75931","","null","","","null","6","NaN","","","","","","","","","","","","","","",""
"","S2","","html-keyboard-response","49","341314","0.0-1.0-58.0","0","0","75931","","null","","","null","6","","NaN","","","","","","","","","","","","","",""
"","response","","html-keyboard-response","50","342137","0.0-1.0-59.0-0.0","0","0","75931","","820","","","75","6","","","1","6","training","adjacent","DE","4","5","R.jpg","N.jpg","1","1","1","",""
"","feedback","","html-keyboard-response","51","343141","0.0-1.0-60.0-0.0","0","0","75931","","null","","","null","6","","","","","","","","","","","","","","","",""
"","ITI","","html-keyboard-response","52","344145","0.0-1.0-63.0","0","0","75931","","null","","","null","6","","","","","","","","","","","","","","","NaN",""
"","S1","","html-keyboard-response","53","344300","0.0-1.0-65.0","0","0","75931","","null","","","null","7","","","","","","","","","","","","","","","",""
"","ISI","","html-keyboard-response","54","346304","0.0-1.0-66.0","0","0","75931","","null","","","null","7","NaN","","","","","","","","","","","","","","",""
"","S2","","html-keyboard-response","55","346457","0.0-1.0-67.0","0","0","75931","","null","","","null","7","","NaN","","","","","","","","","","","","","",""
"","response","","html-keyboard-response","56","347426","0.0-1.0-68.0-0.0","0","0","75931","","965","","","75","7","","","1","7","training","adjacent","FE","6","5","M.jpg","N.jpg","1","0","0","",""
"","feedback","","html-keyboard-response","57","348430","0.0-1.0-69.0-0.0","0","0","75931","","null","","","null","7","","","","","","","","","","","","","","","",""
"","time_out","","html-keyboard-response","58","350434","0.0-1.0-71.0-0.0","0","0","75931","","null","","","null","7","","","","","","","","","","","","","","","",""
"","ITI","","html-keyboard-response","59","351437","0.0-1.0-72.0","0","0","75931","","null","","","null","7","","","","","","","","","","","","","","","NaN",""
"","S1","","html-keyboard-response","60","351591","0.0-1.0-74.0","0","0","75931","","null","","","null","8","","","","","","","","","","","","","","","",""
"","ISI","","html-keyboard-response","61","353595","0.0-1.0-75.0","0","0","75931","","null","","","null","8","NaN","","","","","","","","","","","","","","",""
"","S2","","html-keyboard-response","62","353748","0.0-1.0-76.0","0","0","75931","","null","","","null","8","","NaN","","","","","","","","","","","","","",""
"","response","","html-keyboard-response","63","354962","0.0-1.0-77.0-0.0","0","0","75931","","1211","","","75","8","","","1","8","training","adjacent","EF","5","6","N.jpg","M.jpg","1","1","1","",""
"","feedback","","html-keyboard-response","64","355968","0.0-1.0-78.0-0.0","0","0","75931","","null","","","null","8","","","","","","","","","","","","","","","",""
"","ITI","","html-keyboard-response","65","356973","0.0-1.0-81.0","0","0","75931","","null","","","null","8","","","","","","","","","","","","","","","NaN",""
"","S1","","html-keyboard-response","66","357128","0.0-1.0-83.0","0","0","75931","","null","","","null","9","","","","","","","","","","","","","","","",""
"","ISI","","html-keyboard-response","67","359145","0.0-1.0-84.0","0","0","75931","","null","","","null","9","NaN","","","","","","","","","","","","","","",""
"","S2","","html-keyboard-response","68","359299","0.0-1.0-85.0","0","0","75931","","null","","","null","9","","NaN","","","","","","","","","","","","","",""
"","response","","html-keyboard-response","69","360091","0.0-1.0-86.0-0.0","0","0","75931","","789","","","68","9","","","1","9","training","adjacent","DE","4","5","R.jpg","N.jpg","0","1","0","",""
"","feedback","","html-keyboard-response","70","361094","0.0-1.0-87.0-0.0","0","0","75931","","null","","","null","9","","","","","","","","","","","","","","","",""
"","time_out","","html-keyboard-response","71","363103","0.0-1.0-89.0-0.0","0","0","75931","","null","","","null","9","","","","","","","","","","","","","","","",""
"","ITI","","html-keyboard-response","72","364106","0.0-1.0-90.0","0","0","75931","","null","","","null","9","","","","","","","","","","","","","","","NaN",""
"","S1","","html-keyboard-response","73","364259","0.0-1.0-92.0","0","0","75931","","null","","","null","10","","","","","","","","","","","","","","","",""
"","ISI","","html-keyboard-response","74","366263","0.0-1.0-93.0","0","0","75931","","null","","","null","10","NaN","","","","","","","","","","","","","","",""
"","S2","","html-keyboard-response","75","366417","0.0-1.0-94.0","0","0","75931","","null","","","null","10","","NaN","","","","","","","","","","","","","",""
"","response","","html-keyboard-response","76","367499","0.0-1.0-95.0-0.0","0","0","75931","","1080","","","68","10","","","1","10","training","adjacent","CD","3","4","O.jpg","R.jpg","0","1","0","",""
"","feedback","","html-keyboard-response","77","368503","0.0-1.0-96.0-0.0","0","0","75931","","null","","","null","10","","","","","","","","","","","","","","","",""
"","time_out","","html-keyboard-response","78","370515","0.0-1.0-98.0-0.0","0","0","75931","","null","","","null","10","","","","","","","","","","","","","","","",""
"","ITI","","html-keyboard-response","79","371518","0.0-1.0-99.0","0","0","75931","","null","","","null","10","","","","","","","","","","","","","","","NaN",""
"","S1","","html-keyboard-response","80","371672","0.0-1.0-101.0","0","0","75931","","null","","","null","11","","","","","","","","","","","","","","","",""
"","ISI","","html-keyboard-response","81","373676","0.0-1.0-102.0","0","0","75931","","null","","","null","11","NaN","","","","","","","","","","","","","","",""
"","S2","","html-keyboard-response","82","373830","0.0-1.0-103.0","0","0","75931","","null","","","null","11","","NaN","","","","","","","","","","","","","",""
"","response","","html-keyboard-response","83","375020","0.0-1.0-104.0-0.0","0","0","75931","","1187","","","68","11","","","1","11","training","adjacent","BC","2","3","Q.jpg","O.jpg","0","1","0","",""
"","feedback","","html-keyboard-response","84","376036","0.0-1.0-105.0-0.0","0","0","75931","","null","","","null","11","","","","","","","","","","","","","","","",""
"","time_out","","html-keyboard-response","85","378041","0.0-1.0-107.0-0.0","0","0","75931","","null","","","null","11","","","","","","","","","","","","","","","",""
"","ITI","","html-keyboard-response","86","379045","0.0-1.0-108.0","0","0","75931","","null","","","null","11","","","","","","","","","","","","","","","NaN",""
"","S1","","html-keyboard-response","87","379199","0.0-1.0-110.0","0","0","75931","","null","","","null","12","","","","","","","","","","","","","","","",""
"","ISI","","html-keyboard-response","88","381202","0.0-1.0-111.0","0","0","75931","","null","","","null","12","NaN","","","","","","","","","","","","","","",""
"","S2","","html-keyboard-response","89","381360","0.0-1.0-112.0","0","0","75931","","null","","","null","12","","NaN","","","","","","","","","","","","","",""
"","response","","html-keyboard-response","90","382604","0.0-1.0-113.0-0.0","0","0","75931","","1242","","","75","12","","","1","12","training","adjacent","DC","4","3","R.jpg","O.jpg","1","0","0","",""
"","feedback","","html-keyboard-response","91","383611","0.0-1.0-114.0-0.0","0","0","75931","","null","","","null","12","","","","","","","","","","","","","","","",""
"","time_out","","html-keyboard-response","92","385615","0.0-1.0-116.0-0.0","0","0","75931","","null","","","null","12","","","","","","","","","","","","","","","",""
"","ITI","","html-keyboard-response","93","386619","0.0-1.0-117.0","0","0","75931","","null","","","null","12","","","","","","","","","","","","","","","NaN",""
"","S1","","html-keyboard-response","94","386775","0.0-1.0-119.0","0","0","75931","","null","","","null","13","","","","","","","","","","","","","","","",""
"","ISI","","html-keyboard-response","95","388778","0.0-1.0-120.0","0","0","75931","","null","","","null","13","NaN","","","","","","","","","","","","","","",""
"","S2","","html-keyboard-response","96","388931","0.0-1.0-121.0","0","0","75931","","null","","","null","13","","NaN","","","","","","","","","","","","","",""
"","response","","html-keyboard-response","97","389398","0.0-1.0-122.0-0.0","0","0","75931","","464","","","75","13","","","1","13","training","adjacent","FE","6","5","M.jpg","N.jpg","1","0","0","",""
"","feedback","","html-keyboard-response","98","390402","0.0-1.0-123.0-0.0","0","0","75931","","null","","","null","13","","","","","","","","","","","","","","","",""
"","time_out","","html-keyboard-response","99","392406","0.0-1.0-125.0-0.0","0","0","75931","","null","","","null","13","","","","","","","","","","","","","","","",""
"","ITI","","html-keyboard-response","100","393409","0.0-1.0-126.0","0","0","75931","","null","","","null","13","","","","","","","","","","","","","","","NaN",""
"","S1","","html-keyboard-response","101","393563","0.0-1.0-128.0","0","0","75931","","null","","","null","14","","","","","","","","","","","","","","","",""
"","ISI","","html-keyboard-response","102","395566","0.0-1.0-129.0","0","0","75931","","null","","","null","14","NaN","","","","","","","","","","","","","","",""
"","S2","","html-keyboard-response","103","395720","0.0-1.0-130.0","0","0","75931","","null","","","null","14","","NaN","","","","","","","","","","","","","",""
"","response","","html-keyboard-response","104","396463","0.0-1.0-131.0-0.0","0","0","75931","","739","","","68","14","","","1","14","training","adjacent","CB","3","2","O.jpg","Q.jpg","0","0","1","",""
"","feedback","","html-keyboard-response","105","397467","0.0-1.0-132.0-0.0","0","0","75931","","null","","","null","14","","","","","","","","","","","","","","","",""
"","ITI","","html-keyboard-response","106","398470","0.0-1.0-135.0","0","0","75931","","null","","","null","14","","","","","","","","","","","","","","","NaN",""
"","S1","","html-keyboard-response","107","398624","0.0-1.0-137.0","0","0","75931","","null","","","null","15","","","","","","","","","","","","","","","",""
"","ISI","","html-keyboard-response","108","400628","0.0-1.0-138.0","0","0","75931","","null","","","null","15","NaN","","","","","","","","","","","","","","",""
"","S2","","html-keyboard-response","109","400781","0.0-1.0-139.0","0","0","75931","","null","","","null","15","","NaN","","","","","","","","","","","","","",""
"","response","","html-keyboard-response","110","401671","0.0-1.0-140.0-0.0","0","0","75931","","887","","","75","15","","","1","15","training","adjacent","FG","6","7","M.jpg","L.jpg","1","1","1","",""
"","feedback","","html-keyboard-response","111","402675","0.0-1.0-141.0-0.0","0","0","75931","","null","","","null","15","","","","","","","","","","","","","","","",""
"","ITI","","html-keyboard-response","112","403679","0.0-1.0-144.0","0","0","75931","","null","","","null","15","","","","","","","","","","","","","","","NaN",""
"","S1","","html-keyboard-response","113","403836","0.0-1.0-146.0","0","0","75931","","null","","","null","16","","","","","","","","","","","","","","","",""
"","ISI","","html-keyboard-response","114","405840","0.0-1.0-147.0","0","0","75931","","null","","","null","16","NaN","","","","","","","","","","","","","","",""
"","S2","","html-keyboard-response","115","405993","0.0-1.0-148.0","0","0","75931","","null","","","null","16","","NaN","","","","","","","","","","","","","",""
"","response","","html-keyboard-response","116","406744","0.0-1.0-149.0-0.0","0","0","75931","","747","","","75","16","","","1","16","training","adjacent","DC","4","3","R.jpg","O.jpg","1","0","0","",""
"","feedback","","html-keyboard-response","117","407748","0.0-1.0-150.0-0.0","0","0","75931","","null","","","null","16","","","","","","","","","","","","","","","",""
"","time_out","","html-keyboard-response","118","409752","0.0-1.0-152.0-0.0","0","0","75931","","null","","","null","16","","","","","","","","","","","","","","","",""
"","ITI","","html-keyboard-response","119","410757","0.0-1.0-153.0","0","0","75931","","null","","","null","16","","","","","","","","","","","","","","","NaN",""
"","S1","","html-keyboard-response","120","410910","0.0-1.0-155.0","0","0","75931","","null","","","null","17","","","","","","","","","","","","","","","",""
"","ISI","","html-keyboard-response","121","412914","0.0-1.0-156.0","0","0","75931","","null","","","null","17","NaN","","","","","","","","","","","","","","",""
"","S2","","html-keyboard-response","122","413069","0.0-1.0-157.0","0","0","75931","","null","","","null","17","","NaN","","","","","","","","","","","","","",""
"","response","","html-keyboard-response","123","413320","0.0-1.0-158.0-0.0","0","0","75931","","249","","","68","17","","","1","17","training","adjacent","CB","3","2","O.jpg","Q.jpg","0","0","1","",""
"","feedback","","html-keyboard-response","124","414324","0.0-1.0-159.0-0.0","0","0","75931","","null","","","null","17","","","","","","","","","","","","","","","",""
"","ITI","","html-keyboard-response","125","415328","0.0-1.0-162.0","0","0","75931","","null","","","null","17","","","","","","","","","","","","","","","NaN",""
"","S1","","html-keyboard-response","126","415481","0.0-1.0-164.0","0","0","75931","","null","","","null","18","","","","","","","","","","","","","","","",""
"","ISI","","html-keyboard-response","127","417486","0.0-1.0-165.0","0","0","75931","","null","","","null","18","NaN","","","","","","","","","","","","","","",""
"","S2","","html-keyboard-response","128","417639","0.0-1.0-166.0","0","0","75931","","null","","","null","18","","NaN","","","","","","","","","","","","","",""
"","response","","html-keyboard-response","129","418297","0.0-1.0-167.0-0.0","0","0","75931","","655","","","68","18","","","1","18","training","adjacent","ED","5","4","N.jpg","R.jpg","0","0","1","",""
"","feedback","","html-keyboard-response","130","419301","0.0-1.0-168.0-0.0","0","0","75931","","null","","","null","18","","","","","","","","","","","","","","","",""
"","ITI","","html-keyboard-response","131","420304","0.0-1.0-171.0","0","0","75931","","null","","","null","18","","","","","","","","","","","","","","","NaN",""
"","S1","","html-keyboard-response","132","420458","0.0-1.0-173.0","0","0","75931","","null","","","null","19","","","","","","","","","","","","","","","",""
"","ISI","","html-keyboard-response","133","422465","0.0-1.0-174.0","0","0","75931","","null","","","null","19","NaN","","","","","","","","","","","","","","",""
"","S2","","html-keyboard-response","134","422618","0.0-1.0-175.0","0","0","75931","","null","","","null","19","","NaN","","","","","","","","","","","","","",""
"","response","","html-keyboard-response","135","423521","0.0-1.0-176.0-0.0","0","0","75931","","900","","","68","19","","","1","19","training","adjacent","BA","2","1","Q.jpg","P.jpg","0","0","1","",""
"","feedback","","html-keyboard-response","136","424526","0.0-1.0-177.0-0.0","0","0","75931","","null","","","null","19","","","","","","","","","","","","","","","",""
"","ITI","","html-keyboard-response","137","425530","0.0-1.0-180.0","0","0","75931","","null","","","null","19","","","","","","","","","","","","","","","NaN",""
"","S1","","html-keyboard-response","138","425684","0.0-1.0-182.0","0","0","75931","","null","","","null","20","","","","","","","","","","","","","","","",""
"","ISI","","html-keyboard-response","139","427687","0.0-1.0-183.0","0","0","75931","","null","","","null","20","NaN","","","","","","","","","","","","","","",""
"","S2","","html-keyboard-response","140","427841","0.0-1.0-184.0","0","0","75931","","null","","","null","20","","NaN","","","","","","","","","","","","","",""
"","response","","html-keyboard-response","141","428754","0.0-1.0-185.0-0.0","0","0","75931","","910","","","68","20","","","1","20","training","adjacent","FG","6","7","M.jpg","L.jpg","0","1","0","",""
"","feedback","","html-keyboard-response","142","429761","0.0-1.0-186.0-0.0","0","0","75931","","null","","","null","20","","","","","","","","","","","","","","","",""
"","time_out","","html-keyboard-response","143","431765","0.0-1.0-188.0-0.0","0","0","75931","","null","","","null","20","","","","","","","","","","","","","","","",""
"","ITI","","html-keyboard-response","144","432769","0.0-1.0-189.0","0","0","75931","","null","","","null","20","","","","","","","","","","","","","","","NaN",""
"","S1","","html-keyboard-response","145","432923","0.0-1.0-191.0","0","0","75931","","null","","","null","21","","","","","","","","","","","","","","","",""
"","ISI","","html-keyboard-response","146","434928","0.0-1.0-192.0","0","0","75931","","null","","","null","21","NaN","","","","","","","","","","","","","","",""
"","S2","","html-keyboard-response","147","435082","0.0-1.0-193.0","0","0","75931","","null","","","null","21","","NaN","","","","","","","","","","","","","",""
"","response","","html-keyboard-response","148","435619","0.0-1.0-194.0-0.0","0","0","75931","","534","","","75","21","","","1","21","training","adjacent","FG","6","7","M.jpg","L.jpg","1","1","1","",""
"","feedback","","html-keyboard-response","149","436623","0.0-1.0-195.0-0.0","0","0","75931","","null","","","null","21","","","","","","","","","","","","","","","",""
"","ITI","","html-keyboard-response","150","437628","0.0-1.0-198.0","0","0","75931","","null","","","null","21","","","","","","","","","","","","","","","NaN",""
"","S1","","html-keyboard-response","151","437781","0.0-1.0-200.0","0","0","75931","","null","","","null","22","","","","","","","","","","","","","","","",""
"","ISI","","html-keyboard-response","152","439785","0.0-1.0-201.0","0","0","75931","","null","","","null","22","NaN","","","","","","","","","","","","","","",""
"","S2","","html-keyboard-response","153","439939","0.0-1.0-202.0","0","0","75931","","null","","","null","22","","NaN","","","","","","","","","","","","","",""
"","response","","html-keyboard-response","154","440604","0.0-1.0-203.0-0.0","0","0","75931","","662","","","68","22","","","1","22","training","adjacent","CB","3","2","O.jpg","Q.jpg","0","0","1","",""
"","feedback","","html-keyboard-response","155","441607","0.0-1.0-204.0-0.0","0","0","75931","","null","","","null","22","","","","","","","","","","","","","","","",""
"","ITI","","html-keyboard-response","156","442621","0.0-1.0-207.0","0","0","75931","","null","","","null","22","","","","","","","","","","","","","","","NaN",""
"","S1","","html-keyboard-response","157","442776","0.0-1.0-209.0","0","0","75931","","null","","","null","23","","","","","","","","","","","","","","","",""
"","ISI","","html-keyboard-response","158","444779","0.0-1.0-210.0","0","0","75931","","null","","","null","23","NaN","","","","","","","","","","","","","","",""
"","S2","","html-keyboard-response","159","444934","0.0-1.0-211.0","0","0","75931","","null","","","null","23","","NaN","","","","","","","","","","","","","",""
"","response","","html-keyboard-response","160","445956","0.0-1.0-212.0-0.0","0","0","75931","","1020","","","75","23","","","1","23","training","adjacent","BA","2","1","Q.jpg","P.jpg","1","0","0","",""
"","feedback","","html-keyboard-response","161","446960","0.0-1.0-213.0-0.0","0","0","75931","","null","","","null","23","","","","","","","","","","","","","","","",""
"","time_out","","html-keyboard-response","162","448964","0.0-1.0-215.0-0.0","0","0","75931","","null","","","null","23","","","","","","","","","","","","","","","",""
"","ITI","","html-keyboard-response","163","449966","0.0-1.0-216.0","0","0","75931","","null","","","null","23","","","","","","","","","","","","","","","NaN",""
"","S1","","html-keyboard-response","164","450120","0.0-1.0-218.0","0","0","75931","","null","","","null","24","","","","","","","","","","","","","","","",""
"","ISI","","html-keyboard-response","165","452123","0.0-1.0-219.0","0","0","75931","","null","","","null","24","NaN","","","","","","","","","","","","","","",""
"","S2","","html-keyboard-response","166","452278","0.0-1.0-220.0","0","0","75931","","null","","","null","24","","NaN","","","","","","","","","","","","","",""
"","response","","html-keyboard-response","167","452925","0.0-1.0-221.0-0.0","0","0","75931","","644","","","75","24","","","1","24","training","adjacent","BC","2","3","Q.jpg","O.jpg","1","1","1","",""
"","feedback","","html-keyboard-response","168","453930","0.0-1.0-222.0-0.0","0","0","75931","","null","","","null","24","","","","","","","","","","","","","","","",""
"","ITI","","html-keyboard-response","169","454933","0.0-1.0-225.0","0","0","75931","","null","","","null","24","","","","","","","","","","","","","","","NaN",""
"","S1","","html-keyboard-response","170","455087","0.0-1.0-227.0","0","0","75931","","null","","","null","25","","","","","","","","","","","","","","","",""
"","ISI","","html-keyboard-response","171","457091","0.0-1.0-228.0","0","0","75931","","null","","","null","25","NaN","","","","","","","","","","","","","","",""
"","S2","","html-keyboard-response","172","457245","0.0-1.0-229.0","0","0","75931","","null","","","null","25","","NaN","","","","","","","","","","","","","",""
"","response","","html-keyboard-response","173","458269","0.0-1.0-230.0-0.0","0","0","75931","","1021","","","68","25","","","1","25","training","adjacent","DE","4","5","R.jpg","N.jpg","0","1","0","",""
"","feedback","","html-keyboard-response","174","459274","0.0-1.0-231.0-0.0","0","0","75931","","null","","","null","25","","","","","","","","","","","","","","","",""
"","time_out","","html-keyboard-response","175","461277","0.0-1.0-233.0-0.0","0","0","75931","","null","","","null","25","","","","","","","","","","","","","","","",""
"","ITI","","html-keyboard-response","176","462290","0.0-1.0-234.0","0","0","75931","","null","","","null","25","","","","","","","","","","","","","","","NaN",""
"","S1","","html-keyboard-response","177","462444","0.0-1.0-236.0","0","0","75931","","null","","","null","26","","","","","","","","","","","","","","","",""
"","ISI","","html-keyboard-response","178","464448","0.0-1.0-237.0","0","0","75931","","null","","","null","26","NaN","","","","","","","","","","","","","","",""
"","S2","","html-keyboard-response","179","464602","0.0-1.0-238.0","0","0","75931","","null","","","null","26","","NaN","","","","","","","","","","","","","",""
"","response","","html-keyboard-response","180","465470","0.0-1.0-239.0-0.0","0","0","75931","","865","","","68","26","","","1","26","training","adjacent","EF","5","6","N.jpg","M.jpg","0","1","0","",""
"","feedback","","html-keyboard-response","181","466473","0.0-1.0-240.0-0.0","0","0","75931","","null","","","null","26","","","","","","","","","","","","","","","",""
"","time_out","","html-keyboard-response","182","468477","0.0-1.0-242.0-0.0","0","0","75931","","null","","","null","26","","","","","","","","","","","","","","","",""
"","ITI","","html-keyboard-response","183","469481","0.0-1.0-243.0","0","0","75931","","null","","","null","26","","","","","","","","","","","","","","","NaN",""
"","S1","","html-keyboard-response","184","469635","0.0-1.0-245.0","0","0","75931","","null","","","null","27","","","","","","","","","","","","","","","",""
"","ISI","","html-keyboard-response","185","471639","0.0-1.0-246.0","0","0","75931","","null","","","null","27","NaN","","","","","","","","","","","","","","",""
"","S2","","html-keyboard-response","186","471794","0.0-1.0-247.0","0","0","75931","","null","","","null","27","","NaN","","","","","","","","","","","","","",""
"","response","","html-keyboard-response","187","472503","0.0-1.0-248.0-0.0","0","0","75931","","706","","","75","27","","","1","27","training","adjacent","AB","1","2","P.jpg","Q.jpg","1","1","1","",""
"","feedback","","html-keyboard-response","188","473509","0.0-1.0-249.0-0.0","0","0","75931","","null","","","null","27","","","","","","","","","","","","","","","",""
"","ITI","","html-keyboard-response","189","474513","0.0-1.0-252.0","0","0","75931","","null","","","null","27","","","","","","","","","","","","","","","NaN",""
"","S1","","html-keyboard-response","190","474667","0.0-1.0-254.0","0","0","75931","","null","","","null","28","","","","","","","","","","","","","","","",""
"","ISI","","html-keyboard-response","191","476671","0.0-1.0-255.0","0","0","75931","","null","","","null","28","NaN","","","","","","","","","","","","","","",""
"","S2","","html-keyboard-response","192","476825","0.0-1.0-256.0","0","0","75931","","null","","","null","28","","NaN","","","","","","","","","","","","","",""
"","response","","html-keyboard-response","193","477759","0.0-1.0-257.0-0.0","0","0","75931","","931","","","68","28","","","1","28","training","adjacent","FE","6","5","M.jpg","N.jpg","0","0","1","",""
"","feedback","","html-keyboard-response","194","478764","0.0-1.0-258.0-0.0","0","0","75931","","null","","","null","28","","","","","","","","","","","","","","","",""
"","ITI","","html-keyboard-response","195","479769","0.0-1.0-261.0","0","0","75931","","null","","","null","28","","","","","","","","","","","","","","","NaN",""
"","S1","","html-keyboard-response","196","479922","0.0-1.0-263.0","0","0","75931","","null","","","null","29","","","","","","","","","","","","","","","",""
"","ISI","","html-keyboard-response","197","481926","0.0-1.0-264.0","0","0","75931","","null","","","null","29","NaN","","","","","","","","","","","","","","",""
"","S2","","html-keyboard-response","198","482081","0.0-1.0-265.0","0","0","75931","","null","","","null","29","","NaN","","","","","","","","","","","","","",""
"","response","","html-keyboard-response","199","482961","0.0-1.0-266.0-0.0","0","0","75931","","876","","","68","29","","","1","29","training","adjacent","AB","1","2","P.jpg","Q.jpg","0","1","0","",""
"","feedback","","html-keyboard-response","200","483966","0.0-1.0-267.0-0.0","0","0","75931","","null","","","null","29","","","","","","","","","","","","","","","",""
"","time_out","","html-keyboard-response","201","485969","0.0-1.0-269.0-0.0","0","0","75931","","null","","","null","29","","","","","","","","","","","","","","","",""
"","ITI","","html-keyboard-response","202","486987","0.0-1.0-270.0","0","0","75931","","null","","","null","29","","","","","","","","","","","","","","","NaN",""
"","S1","","html-keyboard-response","203","487140","0.0-1.0-272.0","0","0","75931","","null","","","null","30","","","","","","","","","","","","","","","",""
"","ISI","","html-keyboard-response","204","489143","0.0-1.0-273.0","0","0","75931","","null","","","null","30","NaN","","","","","","","","","","","","","","",""
"","S2","","html-keyboard-response","205","489301","0.0-1.0-274.0","0","0","75931","","null","","","null","30","","NaN","","","","","","","","","","","","","",""
"","response","","html-keyboard-response","206","490737","0.0-1.0-275.0-0.0","0","0","75931","","1432","","","68","30","","","1","30","training","adjacent","ED","5","4","N.jpg","R.jpg","0","0","1","",""
"","feedback","","html-keyboard-response","207","491741","0.0-1.0-276.0-0.0","0","0","75931","","null","","","null","30","","","","","","","","","","","","","","","",""
"","ITI","","html-keyboard-response","208","492746","0.0-1.0-279.0","0","0","75931","","null","","","null","30","","","","","","","","","","","","","","","NaN",""
"","S1","","html-keyboard-response","209","492900","0.0-1.0-281.0","0","0","75931","","null","","","null","31","","","","","","","","","","","","","","","",""
"","ISI","","html-keyboard-response","210","494903","0.0-1.0-282.0","0","0","75931","","null","","","null","31","NaN","","","","","","","","","","","","","","",""
"","S2","","html-keyboard-response","211","495058","0.0-1.0-283.0","0","0","75931","","null","","","null","31","","NaN","","","","","","","","","","","","","",""
"","response","","html-keyboard-response","212","496234","0.0-1.0-284.0-0.0","0","0","75931","","1173","","","75","31","","","1","31","training","adjacent","CD","3","4","O.jpg","R.jpg","1","1","1","",""
"","feedback","","html-keyboard-response","213","497238","0.0-1.0-285.0-0.0","0","0","75931","","null","","","null","31","","","","","","","","","","","","","","","",""
"","ITI","","html-keyboard-response","214","498242","0.0-1.0-288.0","0","0","75931","","null","","","null","31","","","","","","","","","","","","","","","NaN",""
"","S1","","html-keyboard-response","215","498397","0.0-1.0-290.0","0","0","75931","","null","","","null","32","","","","","","","","","","","","","","","",""
"","ISI","","html-keyboard-response","216","500400","0.0-1.0-291.0","0","0","75931","","null","","","null","32","NaN","","","","","","","","","","","","","","",""
"","S2","","html-keyboard-response","217","500553","0.0-1.0-292.0","0","0","75931","","null","","","null","32","","NaN","","","","","","","","","","","","","",""
"","response","","html-keyboard-response","218","501410","0.0-1.0-293.0-0.0","0","0","75931","","854","","","75","32","","","1","32","training","adjacent","EF","5","6","N.jpg","M.jpg","1","1","1","",""
"","feedback","","html-keyboard-response","219","502414","0.0-1.0-294.0-0.0","0","0","75931","","null","","","null","32","","","","","","","","","","","","","","","",""
"","ITI","","html-keyboard-response","220","503418","0.0-1.0-297.0","0","0","75931","","null","","","null","32","","","","","","","","","","","","","","","NaN",""
"","S1","","html-keyboard-response","221","503572","0.0-1.0-299.0","0","0","75931","","null","","","null","33","","","","","","","","","","","","","","","",""
"","ISI","","html-keyboard-response","222","505576","0.0-1.0-300.0","0","0","75931","","null","","","null","33","NaN","","","","","","","","","","","","","","",""
"","S2","","html-keyboard-response","223","505731","0.0-1.0-301.0","0","0","75931","","null","","","null","33","","NaN","","","","","","","","","","","","","",""
"","response","","html-keyboard-response","224","506291","0.0-1.0-302.0-0.0","0","0","75931","","557","","","68","33","","","1","33","training","adjacent","GF","7","6","L.jpg","M.jpg","0","0","1","",""
"","feedback","","html-keyboard-response","225","507295","0.0-1.0-303.0-0.0","0","0","75931","","null","","","null","33","","","","","","","","","","","","","","","",""
"","ITI","","html-keyboard-response","226","508299","0.0-1.0-306.0","0","0","75931","","null","","","null","33","","","","","","","","","","","","","","","NaN",""
"","S1","","html-keyboard-response","227","508453","0.0-1.0-308.0","0","0","75931","","null","","","null","34","","","","","","","","","","","","","","","",""
"","ISI","","html-keyboard-response","228","510457","0.0-1.0-309.0","0","0","75931","","null","","","null","34","NaN","","","","","","","","","","","","","","",""
"","S2","","html-keyboard-response","229","510613","0.0-1.0-310.0","0","0","75931","","null","","","null","34","","NaN","","","","","","","","","","","","","",""
"","response","","html-keyboard-response","230","511363","0.0-1.0-311.0-0.0","0","0","75931","","748","","","68","34","","","1","34","training","adjacent","BA","2","1","Q.jpg","P.jpg","0","0","1","",""
"","feedback","","html-keyboard-response","231","512375","0.0-1.0-312.0-0.0","0","0","75931","","null","","","null","34","","","","","","","","","","","","","","","",""
"","ITI","","html-keyboard-response","232","513393","0.0-1.0-315.0","0","0","75931","","null","","","null","34","","","","","","","","","","","","","","","NaN",""
"","S1","","html-keyboard-response","233","513547","0.0-1.0-317.0","0","0","75931","","null","","","null","35","","","","","","","","","","","","","","","",""
"","ISI","","html-keyboard-response","234","515550","0.0-1.0-318.0","0","0","75931","","null","","","null","35","NaN","","","","","","","","","","","","","","",""
"","S2","","html-keyboard-response","235","515704","0.0-1.0-319.0","0","0","75931","","null","","","null","35","","NaN","","","","","","","","","","","","","",""
"","response","","html-keyboard-response","236","517005","0.0-1.0-320.0-0.0","0","0","75931","","1297","","","75","35","","","1","35","training","adjacent","GF","7","6","L.jpg","M.jpg","1","0","0","",""
"","feedback","","html-keyboard-response","237","518009","0.0-1.0-321.0-0.0","0","0","75931","","null","","","null","35","","","","","","","","","","","","","","","",""
"","time_out","","html-keyboard-response","238","520013","0.0-1.0-323.0-0.0","0","0","75931","","null","","","null","35","","","","","","","","","","","","","","","",""
"","ITI","","html-keyboard-response","239","521017","0.0-1.0-324.0","0","0","75931","","null","","","null","35","","","","","","","","","","","","","","","NaN",""
"","S1","","html-keyboard-response","240","521171","0.0-1.0-326.0","0","0","75931","","null","","","null","36","","","","","","","","","","","","","","","",""
"","ISI","","html-keyboard-response","241","523174","0.0-1.0-327.0","0","0","75931","","null","","","null","36","NaN","","","","","","","","","","","","","","",""
"","S2","","html-keyboard-response","242","523328","0.0-1.0-328.0","0","0","75931","","null","","","null","36","","NaN","","","","","","","","","","","","","",""
"","response","","html-keyboard-response","243","523653","0.0-1.0-329.0-0.0","0","0","75931","","321","","","68","36","","","1","36","training","adjacent","BA","2","1","Q.jpg","P.jpg","0","0","1","",""
"","feedback","","html-keyboard-response","244","524658","0.0-1.0-330.0-0.0","0","0","75931","","null","","","null","36","","","","","","","","","","","","","","","",""
"","ITI","","html-keyboard-response","245","525662","0.0-1.0-333.0","0","0","75931","","null","","","null","36","","","","","","","","","","","","","","","NaN",""
"","S1","","html-keyboard-response","246","525817","0.0-1.0-335.0","0","0","75931","","null","","","null","37","","","","","","","","","","","","","","","",""
"","ISI","","html-keyboard-response","247","527820","0.0-1.0-336.0","0","0","75931","","null","","","null","37","NaN","","","","","","","","","","","","","","",""
"","S2","","html-keyboard-response","248","527974","0.0-1.0-337.0","0","0","75931","","null","","","null","37","","NaN","","","","","","","","","","","","","",""
"","response","","html-keyboard-response","249","528277","0.0-1.0-338.0-0.0","0","0","75931","","300","","","68","37","","","1","37","training","adjacent","BC","2","3","Q.jpg","O.jpg","0","1","0","",""
"","feedback","","html-keyboard-response","250","529293","0.0-1.0-339.0-0.0","0","0","75931","","null","","","null","37","","","","","","","","","","","","","","","",""
"","time_out","","html-keyboard-response","251","531297","0.0-1.0-341.0-0.0","0","0","75931","","null","","","null","37","","","","","","","","","","","","","","","",""
"","ITI","","html-keyboard-response","252","532301","0.0-1.0-342.0","0","0","75931","","null","","","null","37","","","","","","","","","","","","","","","NaN",""
"","S1","","html-keyboard-response","253","532454","0.0-1.0-344.0","0","0","75931","","null","","","null","38","","","","","","","","","","","","","","","",""
"","ISI","","html-keyboard-response","254","534458","0.0-1.0-345.0","0","0","75931","","null","","","null","38","NaN","","","","","","","","","","","","","","",""
"","S2","","html-keyboard-response","255","534611","0.0-1.0-346.0","0","0","75931","","null","","","null","38","","NaN","","","","","","","","","","","","","",""
"","response","","html-keyboard-response","256","535086","0.0-1.0-347.0-0.0","0","0","75931","","472","","","68","38","","","1","38","training","adjacent","CB","3","2","O.jpg","Q.jpg","0","0","1","",""
"","feedback","","html-keyboard-response","257","536090","0.0-1.0-348.0-0.0","0","0","75931","","null","","","null","38","","","","","","","","","","","","","","","",""
"","ITI","","html-keyboard-response","258","537094","0.0-1.0-351.0","0","0","75931","","null","","","null","38","","","","","","","","","","","","","","","NaN",""
"","S1","","html-keyboard-response","259","537249","0.0-1.0-353.0","0","0","75931","","null","","","null","39","","","","","","","","","","","","","","","",""
"","ISI","","html-keyboard-response","260","539252","0.0-1.0-354.0","0","0","75931","","null","","","null","39","NaN","","","","","","","","","","","","","","",""
"","S2","","html-keyboard-response","261","539407","0.0-1.0-355.0","0","0","75931","","null","","","null","39","","NaN","","","","","","","","","","","","","",""
"","response","","html-keyboard-response","262","540287","0.0-1.0-356.0-0.0","0","0","75931","","877","","","68","39","","","1","39","training","adjacent","AB","1","2","P.jpg","Q.jpg","0","1","0","",""
"","feedback","","html-keyboard-response","263","541291","0.0-1.0-357.0-0.0","0","0","75931","","null","","","null","39","","","","","","","","","","","","","","","",""
"","time_out","","html-keyboard-response","264","543294","0.0-1.0-359.0-0.0","0","0","75931","","null","","","null","39","","","","","","","","","","","","","","","",""
"","ITI","","html-keyboard-response","265","544299","0.0-1.0-360.0","0","0","75931","","null","","","null","39","","","","","","","","","","","","","","","NaN",""
"","S1","","html-keyboard-response","266","544453","0.0-1.0-362.0","0","0","75931","","null","","","null","40","","","","","","","","","","","","","","","",""
"","ISI","","html-keyboard-response","267","546457","0.0-1.0-363.0","0","0","75931","","null","","","null","40","NaN","","","","","","","","","","","","","","",""
"","S2","","html-keyboard-response","268","546610","0.0-1.0-364.0","0","0","75931","","null","","","null","40","","NaN","","","","","","","","","","","","","",""
"","response","","html-keyboard-response","269","547039","0.0-1.0-365.0-0.0","0","0","75931","","426","","","75","40","","","1","40","training","adjacent","BC","2","3","Q.jpg","O.jpg","1","1","1","",""
"","feedback","","html-keyboard-response","270","548044","0.0-1.0-366.0-0.0","0","0","75931","","null","","","null","40","","","","","","","","","","","","","","","",""
"","ITI","","html-keyboard-response","271","549048","0.0-1.0-369.0","0","0","75931","","null","","","null","40","","","","","","","","","","","","","","","NaN",""
"","S1","","html-keyboard-response","272","549202","0.0-1.0-371.0","0","0","75931","","null","","","null","41","","","","","","","","","","","","","","","",""
"","ISI","","html-keyboard-response","273","551206","0.0-1.0-372.0","0","0","75931","","null","","","null","41","NaN","","","","","","","","","","","","","","",""
"","S2","","html-keyboard-response","274","551360","0.0-1.0-373.0","0","0","75931","","null","","","null","41","","NaN","","","","","","","","","","","","","",""
"","response","","html-keyboard-response","275","553213","0.0-1.0-374.0-0.0","0","0","75931","","null","","","null","41","","","1","41","training","adjacent","ED","5","4","N.jpg","R.jpg","NaN","0","0","",""
"","too_slow_prompt","","html-keyboard-response","276","554217","0.0-1.0-376.0-0.0","1","0","75931","","null","","","null","","","","","","","","","","","","","","","","",""
"","time_out","","html-keyboard-response","277","556234","0.0-1.0-377.0-0.0","0","0","75931","","null","","","null","41","","","","","","","","","","","","","","","",""
"","ITI","","html-keyboard-response","278","557238","0.0-1.0-378.0","0","0","75931","","null","","","null","41","","","","","","","","","","","","","","","NaN",""
"","S1","","html-keyboard-response","279","557392","0.0-1.0-380.0","0","0","75931","","null","","","null","42","","","","","","","","","","","","","","","",""
"","ISI","","html-keyboard-response","280","559395","0.0-1.0-381.0","0","0","75931","","null","","","null","42","NaN","","","","","","","","","","","","","","",""
"","S2","","html-keyboard-response","281","559549","0.0-1.0-382.0","0","0","75931","","null","","","null","42","","NaN","","","","","","","","","","","","","",""
"","response","","html-keyboard-response","282","559956","0.0-1.0-383.0-0.0","0","0","75931","","402","","","68","42","","","1","42","training","adjacent","CD","3","4","O.jpg","R.jpg","0","1","0","",""
"","feedback","","html-keyboard-response","283","560961","0.0-1.0-384.0-0.0","0","0","75931","","null","","","null","42","","","","","","","","","","","","","","","",""
"","time_out","","html-keyboard-response","284","562965","0.0-1.0-386.0-0.0","0","0","75931","","null","","","null","42","","","","","","","","","","","","","","","",""
"","ITI","","html-keyboard-response","285","563969","0.0-1.0-387.0","0","0","75931","","null","","","null","42","","","","","","","","","","","","","","","NaN",""
"","S1","","html-keyboard-response","286","564122","0.0-1.0-389.0","0","0","75931","","null","","","null","43","","","","","","","","","","","","","","","",""
"","ISI","","html-keyboard-response","287","566126","0.0-1.0-390.0","0","0","75931","","null","","","null","43","NaN","","","","","","","","","","","","","","",""
"","S2","","html-keyboard-response","288","566280","0.0-1.0-391.0","0","0","75931","","null","","","null","43","","NaN","","","","","","","","","","","","","",""
"","response","","html-keyboard-response","289","567178","0.0-1.0-392.0-0.0","0","0","75931","","894","","","68","43","","","1","43","training","adjacent","FG","6","7","M.jpg","L.jpg","0","1","0","",""
"","feedback","","html-keyboard-response","290","568182","0.0-1.0-393.0-0.0","0","0","75931","","null","","","null","43","","","","","","","","","","","","","","","",""
"","time_out","","html-keyboard-response","291","570185","0.0-1.0-395.0-0.0","0","0","75931","","null","","","null","43","","","","","","","","","","","","","","","",""
"","ITI","","html-keyboard-response","292","571189","0.0-1.0-396.0","0","0","75931","","null","","","null","43","","","","","","","","","","","","","","","NaN",""
"","S1","","html-keyboard-response","293","571342","0.0-1.0-398.0","0","0","75931","","null","","","null","44","","","","","","","","","","","","","","","",""
"","ISI","","html-keyboard-response","294","573347","0.0-1.0-399.0","0","0","75931","","null","","","null","44","NaN","","","","","","","","","","","","","","",""
"","S2","","html-keyboard-response","295","573501","0.0-1.0-400.0","0","0","75931","","null","","","null","44","","NaN","","","","","","","","","","","","","",""
"","response","","html-keyboard-response","296","573850","0.0-1.0-401.0-0.0","0","0","75931","","347","","","68","44","","","1","44","training","adjacent","GF","7","6","L.jpg","M.jpg","0","0","1","",""
"","feedback","","html-keyboard-response","297","574855","0.0-1.0-402.0-0.0","0","0","75931","","null","","","null","44","","","","","","","","","","","","","","","",""
"","ITI","","html-keyboard-response","298","575858","0.0-1.0-405.0","0","0","75931","","null","","","null","44","","","","","","","","","","","","","","","NaN",""
"","S1","","html-keyboard-response","299","576012","0.0-1.0-407.0","0","0","75931","","null","","","null","45","","","","","","","","","","","","","","","",""
"","ISI","","html-keyboard-response","300","578016","0.0-1.0-408.0","0","0","75931","","null","","","null","45","NaN","","","","","","","","","","","","","","",""
"","S2","","html-keyboard-response","301","578171","0.0-1.0-409.0","0","0","75931","","null","","","null","45","","NaN","","","","","","","","","","","","","",""
"","response","","html-keyboard-response","302","578867","0.0-1.0-410.0-0.0","0","0","75931","","694","","","75","45","","","1","45","training","adjacent","DC","4","3","R.jpg","O.jpg","1","0","0","",""
"","feedback","","html-keyboard-response","303","579871","0.0-1.0-411.0-0.0","0","0","75931","","null","","","null","45","","","","","","","","","","","","","","","",""
"","time_out","","html-keyboard-response","304","581876","0.0-1.0-413.0-0.0","0","0","75931","","null","","","null","45","","","","","","","","","","","","","","","",""
"","ITI","","html-keyboard-response","305","582880","0.0-1.0-414.0","0","0","75931","","null","","","null","45","","","","","","","","","","","","","","","NaN",""
"","S1","","html-keyboard-response","306","583034","0.0-1.0-416.0","0","0","75931","","null","","","null","46","","","","","","","","","","","","","","","",""
"","ISI","","html-keyboard-response","307","585038","0.0-1.0-417.0","0","0","75931","","1431","","","68","46","d","","","","","","","","","","","","","","",""
"","S2","","html-keyboard-response","308","585191","0.0-1.0-418.0","0","0","75931","","null","","","null","46","","NaN","","","","","","","","","","","","","",""
"","response","","html-keyboard-response","309","585475","0.0-1.0-419.0-0.0","0","0","75931","","281","","","68","46","","","1","46","training","adjacent","DC","4","3","R.jpg","O.jpg","0","0","1","",""
"","feedback","","html-keyboard-response","310","586480","0.0-1.0-420.0-0.0","0","0","75931","","null","","","null","46","","","","","","","","","","","","","","","",""
"","ITI","","html-keyboard-response","311","587484","0.0-1.0-423.0","0","0","75931","","null","","","null","46","","","","","","","","","","","","","","","NaN",""
"","S1","","html-keyboard-response","312","587638","0.0-1.0-425.0","0","0","75931","","null","","","null","47","","","","","","","","","","","","","","","",""
"","ISI","","html-keyboard-response","313","589642","0.0-1.0-426.0","0","0","75931","","null","","","null","47","NaN","","","","","","","","","","","","","","",""
"","S2","","html-keyboard-response","314","589796","0.0-1.0-427.0","0","0","75931","","null","","","null","47","","NaN","","","","","","","","","","","","","",""
"","response","","html-keyboard-response","315","591005","0.0-1.0-428.0-0.0","0","0","75931","","1205","","","75","47","","","1","47","training","adjacent","ED","5","4","N.jpg","R.jpg","1","0","0","",""
"","feedback","","html-keyboard-response","316","592009","0.0-1.0-429.0-0.0","0","0","75931","","null","","","null","47","","","","","","","","","","","","","","","",""
"","time_out","","html-keyboard-response","317","594012","0.0-1.0-431.0-0.0","0","0","75931","","null","","","null","47","","","","","","","","","","","","","","","",""
"","ITI","","html-keyboard-response","318","595017","0.0-1.0-432.0","0","0","75931","","null","","","null","47","","","","","","","","","","","","","","","NaN",""
"","block_over","","html-keyboard-response","319","631753","0.0-1.0-433.0-0.0","0","0","75931","","36733","","","32","47","","","","","","","","","","","","","","","",""
"","S1","","html-keyboard-response","320","631909","0.0-1.0-434.0","0","0","75931","","null","","","null","48","","","","","","","","","","","","","","","",""
"","ISI","","html-keyboard-response","321","633913","0.0-1.0-435.0","0","0","75931","","null","","","null","48","NaN","","","","","","","","","","","","","","",""
"","S2","","html-keyboard-response","322","634070","0.0-1.0-436.0","0","0","75931","","null","","","null","48","","NaN","","","","","","","","","","","","","",""
"","response","","html-keyboard-response","323","634609","0.0-1.0-437.0-0.0","0","0","75931","","536","","","75","48","","","2","48","training","adjacent","BA","2","1","Q.jpg","P.jpg","1","0","0","",""
"","feedback","","html-keyboard-response","324","635614","0.0-1.0-438.0-0.0","0","0","75931","","null","","","null","48","","","","","","","","","","","","","","","",""
"","time_out","","html-keyboard-response","325","637618","0.0-1.0-440.0-0.0","0","0","75931","","null","","","null","48","","","","","","","","","","","","","","","",""
"","ITI","","html-keyboard-response","326","638621","0.0-1.0-441.0","0","0","75931","","null","","","null","48","","","","","","","","","","","","","","","NaN",""
"","S1","","html-keyboard-response","327","638776","0.0-1.0-443.0","0","0","75931","","null","","","null","49","","","","","","","","","","","","","","","",""
"","ISI","","html-keyboard-response","328","640780","0.0-1.0-444.0","0","0","75931","","null","","","null","49","NaN","","","","","","","","","","","","","","",""
"","S2","","html-keyboard-response","329","640934","0.0-1.0-445.0","0","0","75931","","null","","","null","49","","NaN","","","","","","","","","","","","","",""
"","response","","html-keyboard-response","330","641658","0.0-1.0-446.0-0.0","0","0","75931","","721","","","68","49","","","2","49","training","adjacent","BC","2","3","Q.jpg","O.jpg","0","1","0","",""
"","feedback","","html-keyboard-response","331","642663","0.0-1.0-447.0-0.0","0","0","75931","","null","","","null","49","","","","","","","","","","","","","","","",""
"","time_out","","html-keyboard-response","332","644676","0.0-1.0-449.0-0.0","0","0","75931","","null","","","null","49","","","","","","","","","","","","","","","",""
"","ITI","","html-keyboard-response","333","645688","0.0-1.0-450.0","0","0","75931","","null","","","null","49","","","","","","","","","","","","","","","NaN",""
"","S1","","html-keyboard-response","334","645842","0.0-1.0-452.0","0","0","75931","","null","","","null","50","","","","","","","","","","","","","","","",""
"","ISI","","html-keyboard-response","335","647845","0.0-1.0-453.0","0","0","75931","","null","","","null","50","NaN","","","","","","","","","","","","","","",""
"","S2","","html-keyboard-response","336","648000","0.0-1.0-454.0","0","0","75931","","null","","","null","50","","NaN","","","","","","","","","","","","","",""
"","response","","html-keyboard-response","337","649379","0.0-1.0-455.0-0.0","0","0","75931","","1376","","","75","50","","","2","50","training","adjacent","CB","3","2","O.jpg","Q.jpg","1","0","0","",""
"","feedback","","html-keyboard-response","338","650383","0.0-1.0-456.0-0.0","0","0","75931","","null","","","null","50","","","","","","","","","","","","","","","",""
"","time_out","","html-keyboard-response","339","652387","0.0-1.0-458.0-0.0","0","0","75931","","null","","","null","50","","","","","","","","","","","","","","","",""
"","ITI","","html-keyboard-response","340","653391","0.0-1.0-459.0","0","0","75931","","null","","","null","50","","","","","","","","","","","","","","","NaN",""
"","S1","","html-keyboard-response","341","653545","0.0-1.0-461.0","0","0","75931","","null","","","null","51","","","","","","","","","","","","","","","",""
"","ISI","","html-keyboard-response","342","655549","0.0-1.0-462.0","0","0","75931","","null","","","null","51","NaN","","","","","","","","","","","","","","",""
"","S2","","html-keyboard-response","343","655703","0.0-1.0-463.0","0","0","75931","","null","","","null","51","","NaN","","","","","","","","","","","","","",""
"","response","","html-keyboard-response","344","656316","0.0-1.0-464.0-0.0","0","0","75931","","609","","","68","51","","","2","51","training","adjacent","CD","3","4","O.jpg","R.jpg","0","1","0","",""
"","feedback","","html-keyboard-response","345","657320","0.0-1.0-465.0-0.0","0","0","75931","","null","","","null","51","","","","","","","","","","","","","","","",""
"","time_out","","html-keyboard-response","346","659324","0.0-1.0-467.0-0.0","0","0","75931","","null","","","null","51","","","","","","","","","","","","","","","",""
"","ITI","","html-keyboard-response","347","660336","0.0-1.0-468.0","0","0","75931","","null","","","null","51","","","","","","","","","","","","","","","NaN",""
"","S1","","html-keyboard-response","348","660490","0.0-1.0-470.0","0","0","75931","","null","","","null","52","","","","","","","","","","","","","","","",""
"","ISI","","html-keyboard-response","349","662493","0.0-1.0-471.0","0","0","75931","","null","","","null","52","NaN","","","","","","","","","","","","","","",""
"","S2","","html-keyboard-response","350","662647","0.0-1.0-472.0","0","0","75931","","null","","","null","52","","NaN","","","","","","","","","","","","","",""
"","response","","html-keyboard-response","351","663621","0.0-1.0-473.0-0.0","0","0","75931","","970","","","68","52","","","2","52","training","adjacent","FG","6","7","M.jpg","L.jpg","0","1","0","",""
"","feedback","","html-keyboard-response","352","664625","0.0-1.0-474.0-0.0","0","0","75931","","null","","","null","52","","","","","","","","","","","","","","","",""
"","time_out","","html-keyboard-response","353","666628","0.0-1.0-476.0-0.0","0","0","75931","","null","","","null","52","","","","","","","","","","","","","","","",""
"","ITI","","html-keyboard-response","354","667633","0.0-1.0-477.0","0","0","75931","","null","","","null","52","","","","","","","","","","","","","","","NaN",""
"","S1","","html-keyboard-response","355","667787","0.0-1.0-479.0","0","0","75931","","null","","","null","53","","","","","","","","","","","","","","","",""
"","ISI","","html-keyboard-response","356","669791","0.0-1.0-480.0","0","0","75931","","null","","","null","53","NaN","","","","","","","","","","","","","","",""
"","S2","","html-keyboard-response","357","669945","0.0-1.0-481.0","0","0","75931","","null","","","null","53","","NaN","","","","","","","","","","","","","",""
"","response","","html-keyboard-response","358","670133","0.0-1.0-482.0-0.0","0","0","75931","","185","","","68","53","","","2","53","training","adjacent","EF","5","6","N.jpg","M.jpg","0","1","0","",""
"","feedback","","html-keyboard-response","359","671137","0.0-1.0-483.0-0.0","0","0","75931","","null","","","null","53","","","","","","","","","","","","","","","",""
"","time_out","","html-keyboard-response","360","673141","0.0-1.0-485.0-0.0","0","0","75931","","null","","","null","53","","","","","","","","","","","","","","","",""
"","ITI","","html-keyboard-response","361","674146","0.0-1.0-486.0","0","0","75931","","null","","","null","53","","","","","","","","","","","","","","","NaN",""
"","S1","","html-keyboard-response","362","674300","0.0-1.0-488.0","0","0","75931","","null","","","null","54","","","","","","","","","","","","","","","",""
"","ISI","","html-keyboard-response","363","676305","0.0-1.0-489.0","0","0","75931","","null","","","null","54","NaN","","","","","","","","","","","","","","",""
"","S2","","html-keyboard-response","364","676459","0.0-1.0-490.0","0","0","75931","","null","","","null","54","","NaN","","","","","","","","","","","","","",""
"","response","","html-keyboard-response","365","676694","0.0-1.0-491.0-0.0","0","0","75931","","232","","","75","54","","","2","54","training","adjacent","AB","1","2","P.jpg","Q.jpg","1","1","1","",""
"","feedback","","html-keyboard-response","366","677697","0.0-1.0-492.0-0.0","0","0","75931","","null","","","null","54","","","","","","","","","","","","","","","",""
"","ITI","","html-keyboard-response","367","678701","0.0-1.0-495.0","0","0","75931","","null","","","null","54","","","","","","","","","","","","","","","NaN",""
"","S1","","html-keyboard-response","368","678855","0.0-1.0-497.0","0","0","75931","","null","","","null","55","","","","","","","","","","","","","","","",""
"","ISI","","html-keyboard-response","369","680858","0.0-1.0-498.0","0","0","75931","","null","","","null","55","NaN","","","","","","","","","","","","","","",""
"","S2","","html-keyboard-response","370","681012","0.0-1.0-499.0","0","0","75931","","null","","","null","55","","NaN","","","","","","","","","","","","","",""
"","response","","html-keyboard-response","371","681430","0.0-1.0-500.0-0.0","0","0","75931","","415","","","75","55","","","2","55","training","adjacent","BC","2","3","Q.jpg","O.jpg","1","1","1","",""
"","feedback","","html-keyboard-response","372","682435","0.0-1.0-501.0-0.0","0","0","75931","","null","","","null","55","","","","","","","","","","","","","","","",""
"","ITI","","html-keyboard-response","373","683439","0.0-1.0-504.0","0","0","75931","","null","","","null","55","","","","","","","","","","","","","","","NaN",""
"","S1","","html-keyboard-response","374","683593","0.0-1.0-506.0","0","0","75931","","null","","","null","56","","","","","","","","","","","","","","","",""
"","ISI","","html-keyboard-response","375","685611","0.0-1.0-507.0","0","0","75931","","null","","","null","56","NaN","","","","","","","","","","","","","","",""
"","S2","","html-keyboard-response","376","685765","0.0-1.0-508.0","0","0","75931","","null","","","null","56","","NaN","","","","","","","","","","","","","",""
"","response","","html-keyboard-response","377","686567","0.0-1.0-509.0-0.0","0","0","75931","","798","","","68","56","","","2","56","training","adjacent","BA","2","1","Q.jpg","P.jpg","0","0","1","",""
"","feedback","","html-keyboard-response","378","687570","0.0-1.0-510.0-0.0","0","0","75931","","null","","","null","56","","","","","","","","","","","","","","","",""
"","ITI","","html-keyboard-response","379","688583","0.0-1.0-513.0","0","0","75931","","null","","","null","56","","","","","","","","","","","","","","","NaN",""
"","S1","","html-keyboard-response","380","688737","0.0-1.0-515.0","0","0","75931","","null","","","null","57","","","","","","","","","","","","","","","",""
"","ISI","","html-keyboard-response","381","690741","0.0-1.0-516.0","0","0","75931","","null","","","null","57","NaN","","","","","","","","","","","","","","",""
"","S2","","html-keyboard-response","382","690895","0.0-1.0-517.0","0","0","75931","","null","","","null","57","","NaN","","","","","","","","","","","","","",""
"","response","","html-keyboard-response","383","691488","0.0-1.0-518.0-0.0","0","0","75931","","589","","","68","57","","","2","57","training","adjacent","GF","7","6","L.jpg","M.jpg","0","0","1","",""
"","feedback","","html-keyboard-response","384","692492","0.0-1.0-519.0-0.0","0","0","75931","","null","","","null","57","","","","","","","","","","","","","","","",""
"","ITI","","html-keyboard-response","385","693497","0.0-1.0-522.0","0","0","75931","","null","","","null","57","","","","","","","","","","","","","","","NaN",""
"","S1","","html-keyboard-response","386","693651","0.0-1.0-524.0","0","0","75931","","null","","","null","58","","","","","","","","","","","","","","","",""
"","ISI","","html-keyboard-response","387","695656","0.0-1.0-525.0","0","0","75931","","null","","","null","58","NaN","","","","","","","","","","","","","","",""
"","S2","","html-keyboard-response","388","695810","0.0-1.0-526.0","0","0","75931","","null","","","null","58","","NaN","","","","","","","","","","","","","",""
"","response","","html-keyboard-response","389","696472","0.0-1.0-527.0-0.0","0","0","75931","","659","","","75","58","","","2","58","training","adjacent","BC","2","3","Q.jpg","O.jpg","1","1","1","",""
"","feedback","","html-keyboard-response","390","697476","0.0-1.0-528.0-0.0","0","0","75931","","null","","","null","58","","","","","","","","","","","","","","","",""
"","ITI","","html-keyboard-response","391","698480","0.0-1.0-531.0","0","0","75931","","null","","","null","58","","","","","","","","","","","","","","","NaN",""
"","S1","","html-keyboard-response","392","698634","0.0-1.0-533.0","0","0","75931","","null","","","null","59","","","","","","","","","","","","","","","",""
"","ISI","","html-keyboard-response","393","700639","0.0-1.0-534.0","0","0","75931","","null","","","null","59","NaN","","","","","","","","","","","","","","",""
"","S2","","html-keyboard-response","394","700792","0.0-1.0-535.0","0","0","75931","","null","","","null","59","","NaN","","","","","","","","","","","","","",""
"","response","","html-keyboard-response","395","701200","0.0-1.0-536.0-0.0","0","0","75931","","405","","","68","59","","","2","59","training","adjacent","ED","5","4","N.jpg","R.jpg","0","0","1","",""
"","feedback","","html-keyboard-response","396","702205","0.0-1.0-537.0-0.0","0","0","75931","","null","","","null","59","","","","","","","","","","","","","","","",""
"","ITI","","html-keyboard-response","397","703210","0.0-1.0-540.0","0","0","75931","","null","","","null","59","","","","","","","","","","","","","","","NaN",""
"","S1","","html-keyboard-response","398","703363","0.0-1.0-542.0","0","0","75931","","null","","","null","60","","","","","","","","","","","","","","","",""
"","ISI","","html-keyboard-response","399","705367","0.0-1.0-543.0","0","0","75931","","null","","","null","60","NaN","","","","","","","","","","","","","","",""
"","S2","","html-keyboard-response","400","705521","0.0-1.0-544.0","0","0","75931","","null","","","null","60","","NaN","","","","","","","","","","","","","",""
"","response","","html-keyboard-response","401","705890","0.0-1.0-545.0-0.0","0","0","75931","","365","","","68","60","","","2","60","training","adjacent","CD","3","4","O.jpg","R.jpg","0","1","0","",""
"","feedback","","html-keyboard-response","402","706894","0.0-1.0-546.0-0.0","0","0","75931","","null","","","null","60","","","","","","","","","","","","","","","",""
"","time_out","","html-keyboard-response","403","708897","0.0-1.0-548.0-0.0","0","0","75931","","null","","","null","60","","","","","","","","","","","","","","","",""
"","ITI","","html-keyboard-response","404","709902","0.0-1.0-549.0","0","0","75931","","null","","","null","60","","","","","","","","","","","","","","","NaN",""
"","S1","","html-keyboard-response","405","710056","0.0-1.0-551.0","0","0","75931","","null","","","null","61","","","","","","","","","","","","","","","",""
"","ISI","","html-keyboard-response","406","712060","0.0-1.0-552.0","0","0","75931","","null","","","null","61","NaN","","","","","","","","","","","","","","",""
"","S2","","html-keyboard-response","407","712215","0.0-1.0-553.0","0","0","75931","","null","","","null","61","","NaN","","","","","","","","","","","","","",""
"","response","","html-keyboard-response","408","712754","0.0-1.0-554.0-0.0","0","0","75931","","537","","","75","61","","","2","61","training","adjacent","BA","2","1","Q.jpg","P.jpg","1","0","0","",""
"","feedback","","html-keyboard-response","409","713758","0.0-1.0-555.0-0.0","0","0","75931","","null","","","null","61","","","","","","","","","","","","","","","",""
"","time_out","","html-keyboard-response","410","715775","0.0-1.0-557.0-0.0","0","0","75931","","null","","","null","61","","","","","","","","","","","","","","","",""
"","ITI","","html-keyboard-response","411","716780","0.0-1.0-558.0","0","0","75931","","null","","","null","61","","","","","","","","","","","","","","","NaN",""
"","S1","","html-keyboard-response","412","716935","0.0-1.0-560.0","0","0","75931","","null","","","null","62","","","","","","","","","","","","","","","",""
"","ISI","","html-keyboard-response","413","718938","0.0-1.0-561.0","0","0","75931","","null","","","null","62","NaN","","","","","","","","","","","","","","",""
"","S2","","html-keyboard-response","414","719093","0.0-1.0-562.0","0","0","75931","","null","","","null","62","","NaN","","","","","","","","","","","","","",""
"","response","","html-keyboard-response","415","719628","0.0-1.0-563.0-0.0","0","0","75931","","532","","","68","62","","","2","62","training","adjacent","FE","6","5","M.jpg","N.jpg","0","0","1","",""
"","feedback","","html-keyboard-response","416","720632","0.0-1.0-564.0-0.0","0","0","75931","","null","","","null","62","","","","","","","","","","","","","","","",""
"","ITI","","html-keyboard-response","417","721638","0.0-1.0-567.0","0","0","75931","","null","","","null","62","","","","","","","","","","","","","","","NaN",""
"","S1","","html-keyboard-response","418","721791","0.0-1.0-569.0","0","0","75931","","null","","","null","63","","","","","","","","","","","","","","","",""
"","ISI","","html-keyboard-response","419","723794","0.0-1.0-570.0","0","0","75931","","null","","","null","63","NaN","","","","","","","","","","","","","","",""
"","S2","","html-keyboard-response","420","723948","0.0-1.0-571.0","0","0","75931","","null","","","null","63","","NaN","","","","","","","","","","","","","",""
"","response","","html-keyboard-response","421","724620","0.0-1.0-572.0-0.0","0","0","75931","","669","","","68","63","","","2","63","training","adjacent","ED","5","4","N.jpg","R.jpg","0","0","1","",""
"","feedback","","html-keyboard-response","422","725624","0.0-1.0-573.0-0.0","0","0","75931","","null","","","null","63","","","","","","","","","","","","","","","",""
"","ITI","","html-keyboard-response","423","726628","0.0-1.0-576.0","0","0","75931","","null","","","null","63","","","","","","","","","","","","","","","NaN",""
"","S1","","html-keyboard-response","424","726783","0.0-1.0-578.0","0","0","75931","","null","","","null","64","","","","","","","","","","","","","","","",""
"","ISI","","html-keyboard-response","425","728790","0.0-1.0-579.0","0","0","75931","","null","","","null","64","NaN","","","","","","","","","","","","","","",""
"","S2","","html-keyboard-response","426","728945","0.0-1.0-580.0","0","0","75931","","null","","","null","64","","NaN","","","","","","","","","","","","","",""
"","response","","html-keyboard-response","427","729805","0.0-1.0-581.0-0.0","0","0","75931","","857","","","75","64","","","2","64","training","adjacent","FG","6","7","M.jpg","L.jpg","1","1","1","",""
"","feedback","","html-keyboard-response","428","730809","0.0-1.0-582.0-0.0","0","0","75931","","null","","","null","64","","","","","","","","","","","","","","","",""
"","ITI","","html-keyboard-response","429","731812","0.0-1.0-585.0","0","0","75931","","null","","","null","64","","","","","","","","","","","","","","","NaN",""
"","S1","","html-keyboard-response","430","731967","0.0-1.0-587.0","0","0","75931","","null","","","null","65","","","","","","","","","","","","","","","",""
"","ISI","","html-keyboard-response","431","733971","0.0-1.0-588.0","0","0","75931","","null","","","null","65","NaN","","","","","","","","","","","","","","",""
"","S2","","html-keyboard-response","432","734124","0.0-1.0-589.0","0","0","75931","","null","","","null","65","","NaN","","","","","","","","","","","","","",""
"","response","","html-keyboard-response","433","735045","0.0-1.0-590.0-0.0","0","0","75931","","917","","","75","65","","","2","65","training","adjacent","DC","4","3","R.jpg","O.jpg","1","0","0","",""
"","feedback","","html-keyboard-response","434","736049","0.0-1.0-591.0-0.0","0","0","75931","","null","","","null","65","","","","","","","","","","","","","","","",""
"","time_out","","html-keyboard-response","435","738052","0.0-1.0-593.0-0.0","0","0","75931","","null","","","null","65","","","","","","","","","","","","","","","",""
"","ITI","","html-keyboard-response","436","739057","0.0-1.0-594.0","0","0","75931","","null","","","null","65","","","","","","","","","","","","","","","NaN",""
"","S1","","html-keyboard-response","437","739211","0.0-1.0-596.0","0","0","75931","","null","","","null","66","","","","","","","","","","","","","","","",""
"","ISI","","html-keyboard-response","438","741215","0.0-1.0-597.0","0","0","75931","","null","","","null","66","NaN","","","","","","","","","","","","","","",""
"","S2","","html-keyboard-response","439","741369","0.0-1.0-598.0","0","0","75931","","null","","","null","66","","NaN","","","","","","","","","","","","","",""
"","response","","html-keyboard-response","440","741894","0.0-1.0-599.0-0.0","0","0","75931","","521","","","68","66","","","2","66","training","adjacent","CD","3","4","O.jpg","R.jpg","0","1","0","",""
"","feedback","","html-keyboard-response","441","742899","0.0-1.0-600.0-0.0","0","0","75931","","null","","","null","66","","","","","","","","","","","","","","","",""
"","time_out","","html-keyboard-response","442","744903","0.0-1.0-602.0-0.0","0","0","75931","","null","","","null","66","","","","","","","","","","","","","","","",""
"","ITI","","html-keyboard-response","443","745906","0.0-1.0-603.0","0","0","75931","","null","","","null","66","","","","","","","","","","","","","","","NaN",""
"","S1","","html-keyboard-response","444","746071","0.0-1.0-605.0","0","0","75931","","null","","","null","67","","","","","","","","","","","","","","","",""
"","ISI","","html-keyboard-response","445","748081","0.0-1.0-606.0","0","0","75931","","null","","","null","67","NaN","","","","","","","","","","","","","","",""
"","S2","","html-keyboard-response","446","748237","0.0-1.0-607.0","0","0","75931","","null","","","null","67","","NaN","","","","","","","","","","","","","",""
"","response","","html-keyboard-response","447","748590","0.0-1.0-608.0-0.0","0","0","75931","","351","","","75","67","","","2","67","training","adjacent","FE","6","5","M.jpg","N.jpg","1","0","0","",""
"","feedback","","html-keyboard-response","448","749595","0.0-1.0-609.0-0.0","0","0","75931","","null","","","null","67","","","","","","","","","","","","","","","",""
"","time_out","","html-keyboard-response","449","751600","0.0-1.0-611.0-0.0","0","0","75931","","null","","","null","67","","","","","","","","","","","","","","","",""
"","ITI","","html-keyboard-response","450","752603","0.0-1.0-612.0","0","0","75931","","null","","","null","67","","","","","","","","","","","","","","","NaN",""
"","S1","","html-keyboard-response","451","752762","0.0-1.0-614.0","0","0","75931","","null","","","null","68","","","","","","","","","","","","","","","",""
"","ISI","","html-keyboard-response","452","754766","0.0-1.0-615.0","0","0","75931","","null","","","null","68","NaN","","","","","","","","","","","","","","",""
"","S2","","html-keyboard-response","453","754921","0.0-1.0-616.0","0","0","75931","","null","","","null","68","","NaN","","","","","","","","","","","","","",""
"","response","","html-keyboard-response","454","755351","0.0-1.0-617.0-0.0","0","0","75931","","428","","","68","68","","","2","68","training","adjacent","CB","3","2","O.jpg","Q.jpg","0","0","1","",""
"","feedback","","html-keyboard-response","455","756356","0.0-1.0-618.0-0.0","0","0","75931","","null","","","null","68","","","","","","","","","","","","","","","",""
"","ITI","","html-keyboard-response","456","757359","0.0-1.0-621.0","0","0","75931","","null","","","null","68","","","","","","","","","","","","","","","NaN",""
"","S1","","html-keyboard-response","457","757512","0.0-1.0-623.0","0","0","75931","","null","","","null","69","","","","","","","","","","","","","","","",""
"","ISI","","html-keyboard-response","458","759516","0.0-1.0-624.0","0","0","75931","","null","","","null","69","NaN","","","","","","","","","","","","","","",""
"","S2","","html-keyboard-response","459","759671","0.0-1.0-625.0","0","0","75931","","null","","","null","69","","NaN","","","","","","","","","","","","","",""
"","response","","html-keyboard-response","460","760015","0.0-1.0-626.0-0.0","0","0","75931","","342","","","68","69","","","2","69","training","adjacent","ED","5","4","N.jpg","R.jpg","0","0","1","",""
"","feedback","","html-keyboard-response","461","761021","0.0-1.0-627.0-0.0","0","0","75931","","null","","","null","69","","","","","","","","","","","","","","","",""
"","ITI","","html-keyboard-response","462","762026","0.0-1.0-630.0","0","0","75931","","null","","","null","69","","","","","","","","","","","","","","","NaN",""
"","S1","","html-keyboard-response","463","762180","0.0-1.0-632.0","0","0","75931","","null","","","null","70","","","","","","","","","","","","","","","",""
"","ISI","","html-keyboard-response","464","764184","0.0-1.0-633.0","0","0","75931","","null","","","null","70","NaN","","","","","","","","","","","","","","",""
"","S2","","html-keyboard-response","465","764339","0.0-1.0-634.0","0","0","75931","","null","","","null","70","","NaN","","","","","","","","","","","","","",""
"","response","","html-keyboard-response","466","764624","0.0-1.0-635.0-0.0","0","0","75931","","282","","","75","70","","","2","70","training","adjacent","DC","4","3","R.jpg","O.jpg","1","0","0","",""
"","feedback","","html-keyboard-response","467","765628","0.0-1.0-636.0-0.0","0","0","75931","","null","","","null","70","","","","","","","","","","","","","","","",""
"","time_out","","html-keyboard-response","468","767632","0.0-1.0-638.0-0.0","0","0","75931","","null","","","null","70","","","","","","","","","","","","","","","",""
"","ITI","","html-keyboard-response","469","768636","0.0-1.0-639.0","0","0","75931","","null","","","null","70","","","","","","","","","","","","","","","NaN",""
"","S1","","html-keyboard-response","470","768790","0.0-1.0-641.0","0","0","75931","","null","","","null","71","","","","","","","","","","","","","","","",""
"","ISI","","html-keyboard-response","471","770793","0.0-1.0-642.0","0","0","75931","","null","","","null","71","NaN","","","","","","","","","","","","","","",""
"","S2","","html-keyboard-response","472","770949","0.0-1.0-643.0","0","0","75931","","null","","","null","71","","NaN","","","","","","","","","","","","","",""
"","response","","html-keyboard-response","473","771281","0.0-1.0-644.0-0.0","0","0","75931","","328","","","68","71","","","2","71","training","adjacent","DE","4","5","R.jpg","N.jpg","0","1","0","",""
"","feedback","","html-keyboard-response","474","772285","0.0-1.0-645.0-0.0","0","0","75931","","null","","","null","71","","","","","","","","","","","","","","","",""
"","time_out","","html-keyboard-response","475","774289","0.0-1.0-647.0-0.0","0","0","75931","","null","","","null","71","","","","","","","","","","","","","","","",""
"","ITI","","html-keyboard-response","476","775293","0.0-1.0-648.0","0","0","75931","","null","","","null","71","","","","","","","","","","","","","","","NaN",""
"","S1","","html-keyboard-response","477","775446","0.0-1.0-650.0","0","0","75931","","null","","","null","72","","","","","","","","","","","","","","","",""
"","ISI","","html-keyboard-response","478","777450","0.0-1.0-651.0","0","0","75931","","null","","","null","72","NaN","","","","","","","","","","","","","","",""
"","S2","","html-keyboard-response","479","777603","0.0-1.0-652.0","0","0","75931","","null","","","null","72","","NaN","","","","","","","","","","","","","",""
"","response","","html-keyboard-response","480","778209","0.0-1.0-653.0-0.0","0","0","75931","","603","","","75","72","","","2","72","training","adjacent","EF","5","6","N.jpg","M.jpg","1","1","1","",""
"","feedback","","html-keyboard-response","481","779213","0.0-1.0-654.0-0.0","0","0","75931","","null","","","null","72","","","","","","","","","","","","","","","",""
"","ITI","","html-keyboard-response","482","780217","0.0-1.0-657.0","0","0","75931","","null","","","null","72","","","","","","","","","","","","","","","NaN",""
"","S1","","html-keyboard-response","483","780372","0.0-1.0-659.0","0","0","75931","","null","","","null","73","","","","","","","","","","","","","","","",""
"","ISI","","html-keyboard-response","484","782376","0.0-1.0-660.0","0","0","75931","","null","","","null","73","NaN","","","","","","","","","","","","","","",""
"","S2","","html-keyboard-response","485","782530","0.0-1.0-661.0","0","0","75931","","null","","","null","73","","NaN","","","","","","","","","","","","","",""
"","response","","html-keyboard-response","486","782954","0.0-1.0-662.0-0.0","0","0","75931","","421","","","68","73","","","2","73","training","adjacent","CD","3","4","O.jpg","R.jpg","0","1","0","",""
"","feedback","","html-keyboard-response","487","783958","0.0-1.0-663.0-0.0","0","0","75931","","null","","","null","73","","","","","","","","","","","","","","","",""
"","time_out","","html-keyboard-response","488","785962","0.0-1.0-665.0-0.0","0","0","75931","","null","","","null","73","","","","","","","","","","","","","","","",""
"","ITI","","html-keyboard-response","489","786969","0.0-1.0-666.0","0","0","75931","","null","","","null","73","","","","","","","","","","","","","","","NaN",""
"","S1","","html-keyboard-response","490","787123","0.0-1.0-668.0","0","0","75931","","null","","","null","74","","","","","","","","","","","","","","","",""
"","ISI","","html-keyboard-response","491","789127","0.0-1.0-669.0","0","0","75931","","1206","","","75","74","k","","","","","","","","","","","","","","",""
"","S2","","html-keyboard-response","492","789281","0.0-1.0-670.0","0","0","75931","","null","","","null","74","","NaN","","","","","","","","","","","","","",""
"","response","","html-keyboard-response","493","789387","0.0-1.0-671.0-0.0","0","0","75931","","103","","","75","74","","","2","74","training","adjacent","DE","4","5","R.jpg","N.jpg","1","1","1","",""
"","feedback","","html-keyboard-response","494","790405","0.0-1.0-672.0-0.0","0","0","75931","","null","","","null","74","","","","","","","","","","","","","","","",""
"","ITI","","html-keyboard-response","495","791409","0.0-1.0-675.0","0","0","75931","","null","","","null","74","","","","","","","","","","","","","","","NaN",""
"","S1","","html-keyboard-response","496","791564","0.0-1.0-677.0","0","0","75931","","null","","","null","75","","","","","","","","","","","","","","","",""
"","ISI","","html-keyboard-response","497","793568","0.0-1.0-678.0","0","0","75931","","null","","","null","75","NaN","","","","","","","","","","","","","","",""
"","S2","","html-keyboard-response","498","793723","0.0-1.0-679.0","0","0","75931","","null","","","null","75","","NaN","","","","","","","","","","","","","",""
"","response","","html-keyboard-response","499","794220","0.0-1.0-680.0-0.0","0","0","75931","","494","","","68","75","","","2","75","training","adjacent","AB","1","2","P.jpg","Q.jpg","0","1","0","",""
"","feedback","","html-keyboard-response","500","795224","0.0-1.0-681.0-0.0","0","0","75931","","null","","","null","75","","","","","","","","","","","","","","","",""
"","time_out","","html-keyboard-response","501","797228","0.0-1.0-683.0-0.0","0","0","75931","","null","","","null","75","","","","","","","","","","","","","","","",""
"","ITI","","html-keyboard-response","502","798238","0.0-1.0-684.0","0","0","75931","","null","","","null","75","","","","","","","","","","","","","","","NaN",""
"","S1","","html-keyboard-response","503","798392","0.0-1.0-686.0","0","0","75931","","null","","","null","76","","","","","","","","","","","","","","","",""
"","ISI","","html-keyboard-response","504","800395","0.0-1.0-687.0","0","0","75931","","null","","","null","76","NaN","","","","","","","","","","","","","","",""
"","S2","","html-keyboard-response","505","800550","0.0-1.0-688.0","0","0","75931","","null","","","null","76","","NaN","","","","","","","","","","","","","",""
"","response","","html-keyboard-response","506","800924","0.0-1.0-689.0-0.0","0","0","75931","","371","","","75","76","","","2","76","training","adjacent","DC","4","3","R.jpg","O.jpg","1","0","0","",""
"","feedback","","html-keyboard-response","507","801928","0.0-1.0-690.0-0.0","0","0","75931","","null","","","null","76","","","","","","","","","","","","","","","",""
"","time_out","","html-keyboard-response","508","803932","0.0-1.0-692.0-0.0","0","0","75931","","null","","","null","76","","","","","","","","","","","","","","","",""
"","ITI","","html-keyboard-response","509","804936","0.0-1.0-693.0","0","0","75931","","null","","","null","76","","","","","","","","","","","","","","","NaN",""
"","S1","","html-keyboard-response","510","805090","0.0-1.0-695.0","0","0","75931","","null","","","null","77","","","","","","","","","","","","","","","",""
"","ISI","","html-keyboard-response","511","807094","0.0-1.0-696.0","0","0","75931","","null","","","null","77","NaN","","","","","","","","","","","","","","",""
"","S2","","html-keyboard-response","512","807248","0.0-1.0-697.0","0","0","75931","","null","","","null","77","","NaN","","","","","","","","","","","","","",""
"","response","","html-keyboard-response","513","807941","0.0-1.0-698.0-0.0","0","0","75931","","689","","","75","77","","","2","77","training","adjacent","DC","4","3","R.jpg","O.jpg","1","0","0","",""
"","feedback","","html-keyboard-response","514","808945","0.0-1.0-699.0-0.0","0","0","75931","","null","","","null","77","","","","","","","","","","","","","","","",""
"","time_out","","html-keyboard-response","515","810949","0.0-1.0-701.0-0.0","0","0","75931","","null","","","null","77","","","","","","","","","","","","","","","",""
"","ITI","","html-keyboard-response","516","811952","0.0-1.0-702.0","0","0","75931","","null","","","null","77","","","","","","","","","","","","","","","NaN",""
"","S1","","html-keyboard-response","517","812107","0.0-1.0-704.0","0","0","75931","","null","","","null","78","","","","","","","","","","","","","","","",""
"","ISI","","html-keyboard-response","518","814110","0.0-1.0-705.0","0","0","75931","","null","","","null","78","NaN","","","","","","","","","","","","","","",""
"","S2","","html-keyboard-response","519","814264","0.0-1.0-706.0","0","0","75931","","null","","","null","78","","NaN","","","","","","","","","","","","","",""
"","response","","html-keyboard-response","520","814845","0.0-1.0-707.0-0.0","0","0","75931","","579","","","75","78","","","2","78","training","adjacent","EF","5","6","N.jpg","M.jpg","1","1","1","",""
"","feedback","","html-keyboard-response","521","815850","0.0-1.0-708.0-0.0","0","0","75931","","null","","","null","78","","","","","","","","","","","","","","","",""
"","ITI","","html-keyboard-response","522","816858","0.0-1.0-711.0","0","0","75931","","null","","","null","78","","","","","","","","","","","","","","","NaN",""
"","S1","","html-keyboard-response","523","817012","0.0-1.0-713.0","0","0","75931","","null","","","null","79","","","","","","","","","","","","","","","",""
"","ISI","","html-keyboard-response","524","819026","0.0-1.0-714.0","0","0","75931","","null","","","null","79","NaN","","","","","","","","","","","","","","",""
"","S2","","html-keyboard-response","525","819182","0.0-1.0-715.0","0","0","75931","","null","","","null","79","","NaN","","","","","","","","","","","","","",""
"","response","","html-keyboard-response","526","819966","0.0-1.0-716.0-0.0","0","0","75931","","782","","","68","79","","","2","79","training","adjacent","BA","2","1","Q.jpg","P.jpg","0","0","1","",""
"","feedback","","html-keyboard-response","527","820971","0.0-1.0-717.0-0.0","0","0","75931","","null","","","null","79","","","","","","","","","","","","","","","",""
"","ITI","","html-keyboard-response","528","821975","0.0-1.0-720.0","0","0","75931","","null","","","null","79","","","","","","","","","","","","","","","NaN",""
"","S1","","html-keyboard-response","529","822130","0.0-1.0-722.0","0","0","75931","","null","","","null","80","","","","","","","","","","","","","","","",""
"","ISI","","html-keyboard-response","530","824134","0.0-1.0-723.0","0","0","75931","","null","","","null","80","NaN","","","","","","","","","","","","","","",""
"","S2","","html-keyboard-response","531","824288","0.0-1.0-724.0","0","0","75931","","null","","","null","80","","NaN","","","","","","","","","","","","","",""
"","response","","html-keyboard-response","532","824719","0.0-1.0-725.0-0.0","0","0","75931","","427","","","75","80","","","2","80","training","adjacent","EF","5","6","N.jpg","M.jpg","1","1","1","",""
"","feedback","","html-keyboard-response","533","825723","0.0-1.0-726.0-0.0","0","0","75931","","null","","","null","80","","","","","","","","","","","","","","","",""
"","ITI","","html-keyboard-response","534","826726","0.0-1.0-729.0","0","0","75931","","null","","","null","80","","","","","","","","","","","","","","","NaN",""
"","S1","","html-keyboard-response","535","826880","0.0-1.0-731.0","0","0","75931","","null","","","null","81","","","","","","","","","","","","","","","",""
"","ISI","","html-keyboard-response","536","828884","0.0-1.0-732.0","0","0","75931","","null","","","null","81","NaN","","","","","","","","","","","","","","",""
"","S2","","html-keyboard-response","537","829038","0.0-1.0-733.0","0","0","75931","","null","","","null","81","","NaN","","","","","","","","","","","","","",""
"","response","","html-keyboard-response","538","829511","0.0-1.0-734.0-0.0","0","0","75931","","469","","","68","81","","","2","81","training","adjacent","BC","2","3","Q.jpg","O.jpg","0","1","0","",""
"","feedback","","html-keyboard-response","539","830516","0.0-1.0-735.0-0.0","0","0","75931","","null","","","null","81","","","","","","","","","","","","","","","",""
"","time_out","","html-keyboard-response","540","832525","0.0-1.0-737.0-0.0","0","0","75931","","null","","","null","81","","","","","","","","","","","","","","","",""
"","ITI","","html-keyboard-response","541","833529","0.0-1.0-738.0","0","0","75931","","null","","","null","81","","","","","","","","","","","","","","","NaN",""
"","S1","","html-keyboard-response","542","833682","0.0-1.0-740.0","0","0","75931","","null","","","null","82","","","","","","","","","","","","","","","",""
"","ISI","","html-keyboard-response","543","835687","0.0-1.0-741.0","0","0","75931","","null","","","null","82","NaN","","","","","","","","","","","","","","",""
"","S2","","html-keyboard-response","544","835841","0.0-1.0-742.0","0","0","75931","","null","","","null","82","","NaN","","","","","","","","","","","","","",""
"","response","","html-keyboard-response","545","836464","0.0-1.0-743.0-0.0","0","0","75931","","621","","","75","82","","","2","82","training","adjacent","AB","1","2","P.jpg","Q.jpg","1","1","1","",""
"","feedback","","html-keyboard-response","546","837467","0.0-1.0-744.0-0.0","0","0","75931","","null","","","null","82","","","","","","","","","","","","","","","",""
"","ITI","","html-keyboard-response","547","838471","0.0-1.0-747.0","0","0","75931","","null","","","null","82","","","","","","","","","","","","","","","NaN",""
"","S1","","html-keyboard-response","548","838627","0.0-1.0-749.0","0","0","75931","","null","","","null","83","","","","","","","","","","","","","","","",""
"","ISI","","html-keyboard-response","549","840641","0.0-1.0-750.0","0","0","75931","","null","","","null","83","NaN","","","","","","","","","","","","","","",""
"","S2","","html-keyboard-response","550","840795","0.0-1.0-751.0","0","0","75931","","null","","","null","83","","NaN","","","","","","","","","","","","","",""
"","response","","html-keyboard-response","551","841352","0.0-1.0-752.0-0.0","0","0","75931","","554","","","68","83","","","2","83","training","adjacent","FG","6","7","M.jpg","L.jpg","0","1","0","",""
"","feedback","","html-keyboard-response","552","842357","0.0-1.0-753.0-0.0","0","0","75931","","null","","","null","83","","","","","","","","","","","","","","","",""
"","time_out","","html-keyboard-response","553","844361","0.0-1.0-755.0-0.0","0","0","75931","","null","","","null","83","","","","","","","","","","","","","","","",""
"","ITI","","html-keyboard-response","554","845365","0.0-1.0-756.0","0","0","75931","","null","","","null","83","","","","","","","","","","","","","","","NaN",""
"","S1","","html-keyboard-response","555","845520","0.0-1.0-758.0","0","0","75931","","null","","","null","84","","","","","","","","","","","","","","","",""
"","ISI","","html-keyboard-response","556","847524","0.0-1.0-759.0","0","0","75931","","null","","","null","84","NaN","","","","","","","","","","","","","","",""
"","S2","","html-keyboard-response","557","847678","0.0-1.0-760.0","0","0","75931","","null","","","null","84","","NaN","","","","","","","","","","","","","",""
"","response","","html-keyboard-response","558","848409","0.0-1.0-761.0-0.0","0","0","75931","","729","","","68","84","","","2","84","training","adjacent","GF","7","6","L.jpg","M.jpg","0","0","1","",""
"","feedback","","html-keyboard-response","559","849425","0.0-1.0-762.0-0.0","0","0","75931","","null","","","null","84","","","","","","","","","","","","","","","",""
"","ITI","","html-keyboard-response","560","850430","0.0-1.0-765.0","0","0","75931","","null","","","null","84","","","","","","","","","","","","","","","NaN",""
"","S1","","html-keyboard-response","561","850587","0.0-1.0-767.0","0","0","75931","","null","","","null","85","","","","","","","","","","","","","","","",""
"","ISI","","html-keyboard-response","562","852591","0.0-1.0-768.0","0","0","75931","","null","","","null","85","NaN","","","","","","","","","","","","","","",""
"","S2","","html-keyboard-response","563","852746","0.0-1.0-769.0","0","0","75931","","null","","","null","85","","NaN","","","","","","","","","","","","","",""
"","response","","html-keyboard-response","564","853322","0.0-1.0-770.0-0.0","0","0","75931","","573","","","75","85","","","2","85","training","adjacent","CB","3","2","O.jpg","Q.jpg","1","0","0","",""
"","feedback","","html-keyboard-response","565","854326","0.0-1.0-771.0-0.0","0","0","75931","","null","","","null","85","","","","","","","","","","","","","","","",""
"","time_out","","html-keyboard-response","566","856330","0.0-1.0-773.0-0.0","0","0","75931","","null","","","null","85","","","","","","","","","","","","","","","",""
"","ITI","","html-keyboard-response","567","857334","0.0-1.0-774.0","0","0","75931","","null","","","null","85","","","","","","","","","","","","","","","NaN",""
"","S1","","html-keyboard-response","568","857489","0.0-1.0-776.0","0","0","75931","","null","","","null","86","","","","","","","","","","","","","","","",""
"","ISI","","html-keyboard-response","569","859492","0.0-1.0-777.0","0","0","75931","","null","","","null","86","NaN","","","","","","","","","","","","","","",""
"","S2","","html-keyboard-response","570","859647","0.0-1.0-778.0","0","0","75931","","null","","","null","86","","NaN","","","","","","","","","","","","","",""
"","response","","html-keyboard-response","571","859859","0.0-1.0-779.0-0.0","0","0","75931","","208","","","68","86","","","2","86","training","adjacent","FE","6","5","M.jpg","N.jpg","0","0","1","",""
"","feedback","","html-keyboard-response","572","860863","0.0-1.0-780.0-0.0","0","0","75931","","null","","","null","86","","","","","","","","","","","","","","","",""
"","ITI","","html-keyboard-response","573","861868","0.0-1.0-783.0","0","0","75931","","null","","","null","86","","","","","","","","","","","","","","","NaN",""
"","S1","","html-keyboard-response","574","862021","0.0-1.0-785.0","0","0","75931","","null","","","null","87","","","","","","","","","","","","","","","",""
"","ISI","","html-keyboard-response","575","864025","0.0-1.0-786.0","0","0","75931","","null","","","null","87","NaN","","","","","","","","","","","","","","",""
"","S2","","html-keyboard-response","576","864179","0.0-1.0-787.0","0","0","75931","","null","","","null","87","","NaN","","","","","","","","","","","","","",""
"","response","","html-keyboard-response","577","864779","0.0-1.0-788.0-0.0","0","0","75931","","597","","","68","87","","","2","87","training","adjacent","GF","7","6","L.jpg","M.jpg","0","0","1","",""
"","feedback","","html-keyboard-response","578","865784","0.0-1.0-789.0-0.0","0","0","75931","","null","","","null","87","","","","","","","","","","","","","","","",""
"","ITI","","html-keyboard-response","579","866788","0.0-1.0-792.0","0","0","75931","","null","","","null","87","","","","","","","","","","","","","","","NaN",""
"","S1","","html-keyboard-response","580","866942","0.0-1.0-794.0","0","0","75931","","null","","","null","88","","","","","","","","","","","","","","","",""
