"success","ttype","start_time","trial_type","trial_index","time_elapsed","internal_node_id","warning","missed_checkup","PID","view_history","rt","responses","repeat_instructions","key_press","index","keypress_isi","keypress_S2","block","trial_num","phase","group_type","pair_type","S1_stim","S2_stim","S1_img","S2_img","S1_chosen","S1_higher","accuracy","keypress_iti","total_bonus_tally"
"true","full_screen","d07282022hr2010","fullscreen","0","2269","0.0-0.0","0","0","89854","","","","","","","","","","","","","","","","","","","","","",""
"","instructions","","instructions","1","17758","0.0-1.0-0.0-0.0","0","0","89854","[{""page_index"":0,""viewing_time"":3024},{""page_index"":1,""viewing_time"":7216},{""page_index"":2,""viewing_time"":3125},{""page_index"":3,""viewing_time"":2120}]","15487","","","","","","","","","","","","","","","","","","","",""
"","comprehension_check","","survey-multi-choice","2","30708","0.0-1.0-0.0-1.0","0","0","89854","","12939","{""Q0"":""True"",""Q1"":""True"",""Q2"":""While the images are shown"",""Q3"":""Red cross"",""Q4"":""either D or K""}","1","","","","","","","","","","","","","","","","","",""
"","missed_instruction_checkup","","html-keyboard-response","3","32728","0.0-1.0-0.0-2.0-0.0","0","1","89854","","2013","","","32","","","","","","","","","","","","","","","","",""
"","instructions","","instructions","4","54054","0.0-1.0-0.1-0.1","0","0","89854","[{""page_index"":0,""viewing_time"":3007},{""page_index"":1,""viewing_time"":7968},{""page_index"":2,""viewing_time"":8728},{""page_index"":3,""viewing_time"":1619}]","21322","","","","","","","","","","","","","","","","","","","",""
"","comprehension_check","","survey-multi-choice","5","72430","0.0-1.0-0.1-1.1","0","0","89854","","18365","{""Q0"":""True"",""Q1"":""False"",""Q2"":""While the images are shown"",""Q3"":""Green mark"",""Q4"":""either D or K""}","1","","","","","","","","","","","","","","","","","",""
"","missed_instruction_checkup","","html-keyboard-response","6","74331","0.0-1.0-0.1-2.1-0.1","0","1","89854","","1897","","","32","","","","","","","","","","","","","","","","",""
"","instructions","","instructions","7","88384","0.0-1.0-0.2-0.2","0","0","89854","[{""page_index"":0,""viewing_time"":3157},{""page_index"":1,""viewing_time"":8656},{""page_index"":2,""viewing_time"":1696},{""page_index"":3,""viewing_time"":541}]","14050","","","","","","","","","","","","","","","","","","","",""
"","comprehension_check","","survey-multi-choice","8","96768","0.0-1.0-0.2-1.2","0","0","89854","","8374","{""Q0"":""True"",""Q1"":""False"",""Q2"":""When you see the prompt 'MAKE A CHOICE' after the second image was presented"",""Q3"":""Green mark"",""Q4"":""either D or K""}","1","","","","","","","","","","","","","","","","","",""
"","missed_instruction_checkup","","html-keyboard-response","9","98533","0.0-1.0-0.2-2.2-0.2","0","1","89854","","1761","","","32","","","","","","","","","","","","","","","","",""
"","instructions","","instructions","10","101172","0.0-1.0-0.3-0.3","0","0","89854","[{""page_index"":0,""viewing_time"":928},{""page_index"":1,""viewing_time"":314},{""page_index"":2,""viewing_time"":449},{""page_index"":3,""viewing_time"":945}]","2636","","","","","","","","","","","","","","","","","","","",""
"","comprehension_check","","survey-multi-choice","11","114758","0.0-1.0-0.3-1.3","0","0","89854","","13572","{""Q0"":""True"",""Q1"":""True"",""Q2"":""When you see the prompt 'MAKE A CHOICE' after the second image was presented"",""Q3"":""Green mark"",""Q4"":""either D or K""}","0","","","","","","","","","","","","","","","","","",""
"","start_exp","","html-keyboard-response","12","119273","0.0-1.0-1.0","0","0","89854","","4511","","","32","","","","","","","","","","","","","","","","",""
"","S1","","html-keyboard-response","13","119528","0.0-1.0-2.0","0","0","89854","","null","","","null","0","","","","","","","","","","","","","","","",""
"","ISI","","html-keyboard-response","14","121532","0.0-1.0-3.0","0","0","89854","","1757","","","68","0","d","","","","","","","","","","","","","","",""
"","S2","","html-keyboard-response","15","121787","0.0-1.0-4.0","0","0","89854","","null","","","null","0","","NaN","","","","","","","","","","","","","",""
"","response","","html-keyboard-response","16","122548","0.0-1.0-5.0","0","0","89854","","757","","","75","0","","","1","0","training","adjacent","GF","7","6","N.jpg","M.jpg","0","0","1","",""
"","feedback","","html-keyboard-response","17","123552","0.0-1.0-6.0-0.0","0","0","89854","","null","","","null","0","","","","","","","","","","","","","","","",""
"","ITI","","html-keyboard-response","18","124555","0.0-1.0-9.0","0","0","89854","","null","","","null","0","","","","","","","","","","","","","","","NaN",""
"","S1","","html-keyboard-response","19","124809","0.0-1.0-11.0","0","0","89854","","null","","","null","1","","","","","","","","","","","","","","","",""
"","ISI","","html-keyboard-response","20","126812","0.0-1.0-12.0","0","0","89854","","null","","","null","1","NaN","","","","","","","","","","","","","","",""
"","S2","","html-keyboard-response","21","127065","0.0-1.0-13.0","0","0","89854","","null","","","null","1","","NaN","","","","","","","","","","","","","",""
"","response","","html-keyboard-response","22","127146","0.0-1.0-14.0","0","0","89854","","77","","","75","1","","","1","1","training","adjacent","FE","6","5","M.jpg","R.jpg","0","0","1","",""
"","feedback","","html-keyboard-response","23","128150","0.0-1.0-15.0-0.0","0","0","89854","","null","","","null","1","","","","","","","","","","","","","","","",""
"","ITI","","html-keyboard-response","24","129164","0.0-1.0-18.0","0","0","89854","","null","","","null","1","","","","","","","","","","","","","","","NaN",""
"","S1","","html-keyboard-response","25","129417","0.0-1.0-20.0","0","0","89854","","null","","","null","2","","","","","","","","","","","","","","","",""
"","ISI","","html-keyboard-response","26","131419","0.0-1.0-21.0","0","0","89854","","98","","","68","2","d","","","","","","","","","","","","","","",""
"","S2","","html-keyboard-response","27","131673","0.0-1.0-22.0","0","0","89854","","151","","","68","2","","d","","","","","","","","","","","","","",""
"","response","","html-keyboard-response","28","131780","0.0-1.0-23.0","0","0","89854","","104","","","68","2","","","1","2","training","adjacent","CB","3","2","Q.jpg","P.jpg","1","0","0","",""
"","feedback","","html-keyboard-response","29","132783","0.0-1.0-24.0-0.0","0","0","89854","","null","","","null","2","","","","","","","","","","","","","","","",""
"","time_out","","html-keyboard-response","30","134802","0.0-1.0-26.0-0.0","0","0","89854","","null","","","null","2","","","","","","","","","","","","","","","",""
"","ITI","","html-keyboard-response","31","135818","0.0-1.0-27.0","0","0","89854","","null","","","null","2","","","","","","","","","","","","","","","NaN",""
"","S1","","html-keyboard-response","32","136072","0.0-1.0-29.0","0","0","89854","","null","","","null","3","","","","","","","","","","","","","","","",""
"","ISI","","html-keyboard-response","33","138074","0.0-1.0-30.0","0","0","89854","","null","","","null","3","NaN","","","","","","","","","","","","","","",""
"","S2","","html-keyboard-response","34","138328","0.0-1.0-31.0","0","0","89854","","null","","","null","3","","NaN","","","","","","","","","","","","","",""
"","response","","html-keyboard-response","35","138333","0.0-1.0-32.0","0","0","89854","","2","","","75","3","","","1","3","training","adjacent","BC","2","3","P.jpg","Q.jpg","0","1","0","",""
"","feedback","","html-keyboard-response","36","139338","0.0-1.0-33.0-0.0","0","0","89854","","null","","","null","3","","","","","","","","","","","","","","","",""
"","time_out","","html-keyboard-response","37","141342","0.0-1.0-35.0-0.0","0","0","89854","","null","","","null","3","","","","","","","","","","","","","","","",""
"","ITI","","html-keyboard-response","38","142346","0.0-1.0-36.0","0","0","89854","","703","","","68","3","","","","","","","","","","","","","","","d",""
"","S1","","html-keyboard-response","39","142600","0.0-1.0-38.0","0","0","89854","","null","","","null","4","","","","","","","","","","","","","","","",""
"","ISI","","html-keyboard-response","40","144602","0.0-1.0-39.0","0","0","89854","","1649","","","68","4","d","","","","","","","","","","","","","","",""
"","S2","","html-keyboard-response","41","144856","0.0-1.0-40.0","0","0","89854","","151","","","68","4","","d","","","","","","","","","","","","","",""
"","response","","html-keyboard-response","42","145039","0.0-1.0-41.0","0","0","89854","","181","","","68","4","","","1","4","training","adjacent","BA","2","1","P.jpg","O.jpg","1","0","0","",""
"","feedback","","html-keyboard-response","43","146042","0.0-1.0-42.0-0.0","0","0","89854","","null","","","null","4","","","","","","","","","","","","","","","",""
"","time_out","","html-keyboard-response","44","148045","0.0-1.0-44.0-0.0","0","0","89854","","null","","","null","4","","","","","","","","","","","","","","","",""
"","ITI","","html-keyboard-response","45","149049","0.0-1.0-45.0","0","0","89854","","null","","","null","4","","","","","","","","","","","","","","","NaN",""
"","S1","","html-keyboard-response","46","149303","0.0-1.0-47.0","0","0","89854","","null","","","null","5","","","","","","","","","","","","","","","",""
"","ISI","","html-keyboard-response","47","151307","0.0-1.0-48.0","0","0","89854","","null","","","null","5","NaN","","","","","","","","","","","","","","",""
"","S2","","html-keyboard-response","48","151561","0.0-1.0-49.0","0","0","89854","","null","","","null","5","","NaN","","","","","","","","","","","","","",""
"","response","","html-keyboard-response","49","151729","0.0-1.0-50.0","0","0","89854","","165","","","75","5","","","1","5","training","adjacent","ED","5","4","R.jpg","L.jpg","0","0","1","",""
"","feedback","","html-keyboard-response","50","152733","0.0-1.0-51.0-0.0","0","0","89854","","null","","","null","5","","","","","","","","","","","","","","","",""
"","ITI","","html-keyboard-response","51","153779","0.0-1.0-54.0","0","0","89854","","null","","","null","5","","","","","","","","","","","","","","","NaN",""
"","S1","","html-keyboard-response","52","154032","0.0-1.0-56.0","0","0","89854","","null","","","null","6","","","","","","","","","","","","","","","",""
"","ISI","","html-keyboard-response","53","156035","0.0-1.0-57.0","0","0","89854","","null","","","null","6","NaN","","","","","","","","","","","","","","",""
"","S2","","html-keyboard-response","54","156289","0.0-1.0-58.0","0","0","89854","","null","","","null","6","","NaN","","","","","","","","","","","","","",""
"","response","","html-keyboard-response","55","156310","0.0-1.0-59.0","0","0","89854","","18","","","75","6","","","1","6","training","adjacent","DC","4","3","L.jpg","Q.jpg","0","0","1","",""
"","feedback","","html-keyboard-response","56","157314","0.0-1.0-60.0-0.0","0","0","89854","","null","","","null","6","","","","","","","","","","","","","","","",""
"","ITI","","html-keyboard-response","57","158318","0.0-1.0-63.0","0","0","89854","","null","","","null","6","","","","","","","","","","","","","","","NaN",""
"","S1","","html-keyboard-response","58","158573","0.0-1.0-65.0","0","0","89854","","null","","","null","7","","","","","","","","","","","","","","","",""
"","ISI","","html-keyboard-response","59","160577","0.0-1.0-66.0","0","0","89854","","null","","","null","7","NaN","","","","","","","","","","","","","","",""
"","S2","","html-keyboard-response","60","160830","0.0-1.0-67.0","0","0","89854","","null","","","null","7","","NaN","","","","","","","","","","","","","",""
"","response","","html-keyboard-response","61","161178","0.0-1.0-68.0","0","0","89854","","344","","","68","7","","","1","7","training","adjacent","GF","7","6","N.jpg","M.jpg","1","0","0","",""
"","feedback","","html-keyboard-response","62","162182","0.0-1.0-69.0-0.0","0","0","89854","","null","","","null","7","","","","","","","","","","","","","","","",""
"","time_out","","html-keyboard-response","63","164187","0.0-1.0-71.0-0.0","0","0","89854","","null","","","null","7","","","","","","","","","","","","","","","",""
"","ITI","","html-keyboard-response","64","165191","0.0-1.0-72.0","0","0","89854","","null","","","null","7","","","","","","","","","","","","","","","NaN",""
"","S1","","html-keyboard-response","65","165444","0.0-1.0-74.0","0","0","89854","","null","","","null","8","","","","","","","","","","","","","","","",""
"","ISI","","html-keyboard-response","66","167447","0.0-1.0-75.0","0","0","89854","","null","","","null","8","NaN","","","","","","","","","","","","","","",""
"","S2","","html-keyboard-response","67","167700","0.0-1.0-76.0","0","0","89854","","null","","","null","8","","NaN","","","","","","","","","","","","","",""
"","response","","html-keyboard-response","68","167730","0.0-1.0-77.0","0","0","89854","","27","","","75","8","","","1","8","training","adjacent","DE","4","5","L.jpg","R.jpg","0","1","0","",""
"","feedback","","html-keyboard-response","69","168749","0.0-1.0-78.0-0.0","0","0","89854","","null","","","null","8","","","","","","","","","","","","","","","",""
"","time_out","","html-keyboard-response","70","170761","0.0-1.0-80.0-0.0","0","0","89854","","null","","","null","8","","","","","","","","","","","","","","","",""
"","ITI","","html-keyboard-response","71","171764","0.0-1.0-81.0","0","0","89854","","null","","","null","8","","","","","","","","","","","","","","","NaN",""
"","S1","","html-keyboard-response","72","172022","0.0-1.0-83.0","0","0","89854","","null","","","null","9","","","","","","","","","","","","","","","",""
"","ISI","","html-keyboard-response","73","174026","0.0-1.0-84.0","0","0","89854","","null","","","null","9","NaN","","","","","","","","","","","","","","",""
"","S2","","html-keyboard-response","74","174279","0.0-1.0-85.0","0","0","89854","","233","","","75","9","","k","","","","","","","","","","","","","",""
"","response","","html-keyboard-response","75","174827","0.0-1.0-86.0","0","0","89854","","546","","","75","9","","","1","9","training","adjacent","DC","4","3","L.jpg","Q.jpg","0","0","1","",""
"","feedback","","html-keyboard-response","76","175830","0.0-1.0-87.0-0.0","0","0","89854","","null","","","null","9","","","","","","","","","","","","","","","",""
"","ITI","","html-keyboard-response","77","176833","0.0-1.0-90.0","0","0","89854","","null","","","null","9","","","","","","","","","","","","","","","NaN",""
"","S1","","html-keyboard-response","78","177086","0.0-1.0-92.0","0","0","89854","","null","","","null","10","","","","","","","","","","","","","","","",""
"","ISI","","html-keyboard-response","79","179089","0.0-1.0-93.0","0","0","89854","","null","","","null","10","NaN","","","","","","","","","","","","","","",""
"","S2","","html-keyboard-response","80","179343","0.0-1.0-94.0","0","0","89854","","null","","","null","10","","NaN","","","","","","","","","","","","","",""
"","response","","html-keyboard-response","81","179789","0.0-1.0-95.0","0","0","89854","","443","","","68","10","","","1","10","training","adjacent","FG","6","7","M.jpg","N.jpg","1","1","1","",""
"","feedback","","html-keyboard-response","82","180810","0.0-1.0-96.0-0.0","0","0","89854","","null","","","null","10","","","","","","","","","","","","","","","",""
"","ITI","","html-keyboard-response","83","181813","0.0-1.0-99.0","0","0","89854","","null","","","null","10","","","","","","","","","","","","","","","NaN",""
"","S1","","html-keyboard-response","84","182066","0.0-1.0-101.0","0","0","89854","","null","","","null","11","","","","","","","","","","","","","","","",""
"","ISI","","html-keyboard-response","85","184069","0.0-1.0-102.0","0","0","89854","","null","","","null","11","NaN","","","","","","","","","","","","","","",""
"","S2","","html-keyboard-response","86","184323","0.0-1.0-103.0","0","0","89854","","null","","","null","11","","NaN","","","","","","","","","","","","","",""
"","response","","html-keyboard-response","87","184600","0.0-1.0-104.0","0","0","89854","","273","","","68","11","","","1","11","training","adjacent","AB","1","2","O.jpg","P.jpg","1","1","1","",""
"","feedback","","html-keyboard-response","88","185603","0.0-1.0-105.0-0.0","0","0","89854","","null","","","null","11","","","","","","","","","","","","","","","",""
"","ITI","","html-keyboard-response","89","186606","0.0-1.0-108.0","0","0","89854","","null","","","null","11","","","","","","","","","","","","","","","NaN",""
"","S1","","html-keyboard-response","90","186861","0.0-1.0-110.0","0","0","89854","","null","","","null","12","","","","","","","","","","","","","","","",""
"","ISI","","html-keyboard-response","91","188867","0.0-1.0-111.0","0","0","89854","","null","","","null","12","NaN","","","","","","","","","","","","","","",""
"","S2","","html-keyboard-response","92","189121","0.0-1.0-112.0","0","0","89854","","null","","","null","12","","NaN","","","","","","","","","","","","","",""
"","response","","html-keyboard-response","93","189245","0.0-1.0-113.0","0","0","89854","","121","","","68","12","","","1","12","training","adjacent","BC","2","3","P.jpg","Q.jpg","1","1","1","",""
"","feedback","","html-keyboard-response","94","190249","0.0-1.0-114.0-0.0","0","0","89854","","null","","","null","12","","","","","","","","","","","","","","","",""
"","ITI","","html-keyboard-response","95","191253","0.0-1.0-117.0","0","0","89854","","null","","","null","12","","","","","","","","","","","","","","","NaN",""
"","S1","","html-keyboard-response","96","191507","0.0-1.0-119.0","0","0","89854","","null","","","null","13","","","","","","","","","","","","","","","",""
"","ISI","","html-keyboard-response","97","193510","0.0-1.0-120.0","0","0","89854","","null","","","null","13","NaN","","","","","","","","","","","","","","",""
"","S2","","html-keyboard-response","98","193763","0.0-1.0-121.0","0","0","89854","","null","","","null","13","","NaN","","","","","","","","","","","","","",""
"","response","","html-keyboard-response","99","194106","0.0-1.0-122.0","0","0","89854","","340","","","75","13","","","1","13","training","adjacent","BA","2","1","P.jpg","O.jpg","0","0","1","",""
"","feedback","","html-keyboard-response","100","195110","0.0-1.0-123.0-0.0","0","0","89854","","null","","","null","13","","","","","","","","","","","","","","","",""
"","ITI","","html-keyboard-response","101","196114","0.0-1.0-126.0","0","0","89854","","null","","","null","13","","","","","","","","","","","","","","","NaN",""
"","S1","","html-keyboard-response","102","196367","0.0-1.0-128.0","0","0","89854","","null","","","null","14","","","","","","","","","","","","","","","",""
"","ISI","","html-keyboard-response","103","198370","0.0-1.0-129.0","0","0","89854","","null","","","null","14","NaN","","","","","","","","","","","","","","",""
"","S2","","html-keyboard-response","104","198624","0.0-1.0-130.0","0","0","89854","","null","","","null","14","","NaN","","","","","","","","","","","","","",""
"","response","","html-keyboard-response","105","198669","0.0-1.0-131.0","0","0","89854","","41","","","75","14","","","1","14","training","adjacent","CD","3","4","Q.jpg","L.jpg","0","1","0","",""
"","feedback","","html-keyboard-response","106","199673","0.0-1.0-132.0-0.0","0","0","89854","","null","","","null","14","","","","","","","","","","","","","","","",""
"","time_out","","html-keyboard-response","107","201677","0.0-1.0-134.0-0.0","0","0","89854","","null","","","null","14","","","","","","","","","","","","","","","",""
"","ITI","","html-keyboard-response","108","202681","0.0-1.0-135.0","0","0","89854","","null","","","null","14","","","","","","","","","","","","","","","NaN",""
"","S1","","html-keyboard-response","109","202934","0.0-1.0-137.0","0","0","89854","","null","","","null","15","","","","","","","","","","","","","","","",""
"","ISI","","html-keyboard-response","110","204944","0.0-1.0-138.0","0","0","89854","","null","","","null","15","NaN","","","","","","","","","","","","","","",""
"","S2","","html-keyboard-response","111","205198","0.0-1.0-139.0","0","0","89854","","null","","","null","15","","NaN","","","","","","","","","","","","","",""
"","response","","html-keyboard-response","112","205506","0.0-1.0-140.0","0","0","89854","","304","","","68","15","","","1","15","training","adjacent","AB","1","2","O.jpg","P.jpg","1","1","1","",""
"","feedback","","html-keyboard-response","113","206510","0.0-1.0-141.0-0.0","0","0","89854","","null","","","null","15","","","","","","","","","","","","","","","",""
"","ITI","","html-keyboard-response","114","207514","0.0-1.0-144.0","0","0","89854","","216","","","75","15","","","","","","","","","","","","","","","k",""
"","S1","","html-keyboard-response","115","207768","0.0-1.0-146.0","0","0","89854","","null","","","null","16","","","","","","","","","","","","","","","",""
"","ISI","","html-keyboard-response","116","209770","0.0-1.0-147.0","0","0","89854","","null","","","null","16","NaN","","","","","","","","","","","","","","",""
"","S2","","html-keyboard-response","117","210024","0.0-1.0-148.0","0","0","89854","","68","","","68","16","","d","","","","","","","","","","","","","",""
"","response","","html-keyboard-response","118","210111","0.0-1.0-149.0","0","0","89854","","85","","","68","16","","","1","16","training","adjacent","EF","5","6","R.jpg","M.jpg","1","1","1","",""
"","feedback","","html-keyboard-response","119","211115","0.0-1.0-150.0-0.0","0","0","89854","","null","","","null","16","","","","","","","","","","","","","","","",""
"","ITI","","html-keyboard-response","120","212118","0.0-1.0-153.0","0","0","89854","","null","","","null","16","","","","","","","","","","","","","","","NaN",""
"","S1","","html-keyboard-response","121","212371","0.0-1.0-155.0","0","0","89854","","null","","","null","17","","","","","","","","","","","","","","","",""
"","ISI","","html-keyboard-response","122","214375","0.0-1.0-156.0","0","0","89854","","null","","","null","17","NaN","","","","","","","","","","","","","","",""
"","S2","","html-keyboard-response","123","214629","0.0-1.0-157.0","0","0","89854","","239","","","75","17","","k","","","","","","","","","","","","","",""
"","response","","html-keyboard-response","124","215092","0.0-1.0-158.0","0","0","89854","","460","","","75","17","","","1","17","training","adjacent","ED","5","4","R.jpg","L.jpg","0","0","1","",""
"","feedback","","html-keyboard-response","125","216096","0.0-1.0-159.0-0.0","0","0","89854","","null","","","null","17","","","","","","","","","","","","","","","",""
"","ITI","","html-keyboard-response","126","217099","0.0-1.0-162.0","0","0","89854","","null","","","null","17","","","","","","","","","","","","","","","NaN",""
"","S1","","html-keyboard-response","127","217354","0.0-1.0-164.0","0","0","89854","","null","","","null","18","","","","","","","","","","","","","","","",""
"","ISI","","html-keyboard-response","128","219357","0.0-1.0-165.0","0","0","89854","","null","","","null","18","NaN","","","","","","","","","","","","","","",""
"","S2","","html-keyboard-response","129","219610","0.0-1.0-166.0","0","0","89854","","null","","","null","18","","NaN","","","","","","","","","","","","","",""
"","response","","html-keyboard-response","130","219898","0.0-1.0-167.0","0","0","89854","","285","","","68","18","","","1","18","training","adjacent","CD","3","4","Q.jpg","L.jpg","1","1","1","",""
"","feedback","","html-keyboard-response","131","220901","0.0-1.0-168.0-0.0","0","0","89854","","null","","","null","18","","","","","","","","","","","","","","","",""
"","ITI","","html-keyboard-response","132","221905","0.0-1.0-171.0","0","0","89854","","null","","","null","18","","","","","","","","","","","","","","","NaN",""
"","S1","","html-keyboard-response","133","222159","0.0-1.0-173.0","0","0","89854","","null","","","null","19","","","","","","","","","","","","","","","",""
"","ISI","","html-keyboard-response","134","224162","0.0-1.0-174.0","0","0","89854","","null","","","null","19","NaN","","","","","","","","","","","","","","",""
"","S2","","html-keyboard-response","135","224417","0.0-1.0-175.0","0","0","89854","","null","","","null","19","","NaN","","","","","","","","","","","","","",""
"","response","","html-keyboard-response","136","224609","0.0-1.0-176.0","0","0","89854","","189","","","68","19","","","1","19","training","adjacent","FE","6","5","M.jpg","R.jpg","1","0","0","",""
"","feedback","","html-keyboard-response","137","225613","0.0-1.0-177.0-0.0","0","0","89854","","null","","","null","19","","","","","","","","","","","","","","","",""
"","time_out","","html-keyboard-response","138","227616","0.0-1.0-179.0-0.0","0","0","89854","","null","","","null","19","","","","","","","","","","","","","","","",""
"","ITI","","html-keyboard-response","139","228620","0.0-1.0-180.0","0","0","89854","","755","","","75","19","","","","","","","","","","","","","","","k",""
"","S1","","html-keyboard-response","140","228873","0.0-1.0-182.0","0","0","89854","","null","","","null","20","","","","","","","","","","","","","","","",""
"","ISI","","html-keyboard-response","141","230876","0.0-1.0-183.0","0","0","89854","","null","","","null","20","NaN","","","","","","","","","","","","","","",""
"","S2","","html-keyboard-response","142","231129","0.0-1.0-184.0","0","0","89854","","null","","","null","20","","NaN","","","","","","","","","","","","","",""
"","response","","html-keyboard-response","143","231479","0.0-1.0-185.0","0","0","89854","","347","","","75","20","","","1","20","training","adjacent","AB","1","2","O.jpg","P.jpg","0","1","0","",""
"","feedback","","html-keyboard-response","144","232484","0.0-1.0-186.0-0.0","0","0","89854","","null","","","null","20","","","","","","","","","","","","","","","",""
"","time_out","","html-keyboard-response","145","234494","0.0-1.0-188.0-0.0","0","0","89854","","null","","","null","20","","","","","","","","","","","","","","","",""
"","ITI","","html-keyboard-response","146","235498","0.0-1.0-189.0","0","0","89854","","27","","","75","20","","","","","","","","","","","","","","","k",""
"","S1","","html-keyboard-response","147","235753","0.0-1.0-191.0","0","0","89854","","null","","","null","21","","","","","","","","","","","","","","","",""
"","ISI","","html-keyboard-response","148","237756","0.0-1.0-192.0","0","0","89854","","null","","","null","21","NaN","","","","","","","","","","","","","","",""
"","S2","","html-keyboard-response","149","238008","0.0-1.0-193.0","0","0","89854","","null","","","null","21","","NaN","","","","","","","","","","","","","",""
"","response","","html-keyboard-response","150","238923","0.0-1.0-194.0","0","0","89854","","912","","","68","21","","","1","21","training","adjacent","FG","6","7","M.jpg","N.jpg","1","1","1","",""
"","feedback","","html-keyboard-response","151","239927","0.0-1.0-195.0-0.0","0","0","89854","","null","","","null","21","","","","","","","","","","","","","","","",""
"","ITI","","html-keyboard-response","152","240941","0.0-1.0-198.0","0","0","89854","","null","","","null","21","","","","","","","","","","","","","","","NaN",""
"","S1","","html-keyboard-response","153","241194","0.0-1.0-200.0","0","0","89854","","null","","","null","22","","","","","","","","","","","","","","","",""
"","ISI","","html-keyboard-response","154","243196","0.0-1.0-201.0","0","0","89854","","null","","","null","22","NaN","","","","","","","","","","","","","","",""
"","S2","","html-keyboard-response","155","243450","0.0-1.0-202.0","0","0","89854","","null","","","null","22","","NaN","","","","","","","","","","","","","",""
"","response","","html-keyboard-response","156","243823","0.0-1.0-203.0","0","0","89854","","370","","","68","22","","","1","22","training","adjacent","ED","5","4","R.jpg","L.jpg","1","0","0","",""
"","feedback","","html-keyboard-response","157","244825","0.0-1.0-204.0-0.0","0","0","89854","","null","","","null","22","","","","","","","","","","","","","","","",""
"","time_out","","html-keyboard-response","158","246827","0.0-1.0-206.0-0.0","0","0","89854","","null","","","null","22","","","","","","","","","","","","","","","",""
"","ITI","","html-keyboard-response","159","247830","0.0-1.0-207.0","0","0","89854","","null","","","null","22","","","","","","","","","","","","","","","NaN",""
"","S1","","html-keyboard-response","160","248084","0.0-1.0-209.0","0","0","89854","","null","","","null","23","","","","","","","","","","","","","","","",""
"","ISI","","html-keyboard-response","161","250086","0.0-1.0-210.0","0","0","89854","","null","","","null","23","NaN","","","","","","","","","","","","","","",""
"","S2","","html-keyboard-response","162","250340","0.0-1.0-211.0","0","0","89854","","null","","","null","23","","NaN","","","","","","","","","","","","","",""
"","response","","html-keyboard-response","163","250491","0.0-1.0-212.0","0","0","89854","","148","","","68","23","","","1","23","training","adjacent","FE","6","5","M.jpg","R.jpg","1","0","0","",""
"","feedback","","html-keyboard-response","164","251494","0.0-1.0-213.0-0.0","0","0","89854","","null","","","null","23","","","","","","","","","","","","","","","",""
"","time_out","","html-keyboard-response","165","253501","0.0-1.0-215.0-0.0","0","0","89854","","null","","","null","23","","","","","","","","","","","","","","","",""
"","ITI","","html-keyboard-response","166","254504","0.0-1.0-216.0","0","0","89854","","null","","","null","23","","","","","","","","","","","","","","","NaN",""
"","S1","","html-keyboard-response","167","254758","0.0-1.0-218.0","0","0","89854","","null","","","null","24","","","","","","","","","","","","","","","",""
"","ISI","","html-keyboard-response","168","256761","0.0-1.0-219.0","0","0","89854","","null","","","null","24","NaN","","","","","","","","","","","","","","",""
"","S2","","html-keyboard-response","169","257014","0.0-1.0-220.0","0","0","89854","","null","","","null","24","","NaN","","","","","","","","","","","","","",""
"","response","","html-keyboard-response","170","257133","0.0-1.0-221.0","0","0","89854","","115","","","75","24","","","1","24","training","adjacent","CB","3","2","Q.jpg","P.jpg","0","0","1","",""
"","feedback","","html-keyboard-response","171","258137","0.0-1.0-222.0-0.0","0","0","89854","","null","","","null","24","","","","","","","","","","","","","","","",""
"","ITI","","html-keyboard-response","172","259141","0.0-1.0-225.0","0","0","89854","","null","","","null","24","","","","","","","","","","","","","","","NaN",""
"","S1","","html-keyboard-response","173","259395","0.0-1.0-227.0","0","0","89854","","null","","","null","25","","","","","","","","","","","","","","","",""
"","ISI","","html-keyboard-response","174","261399","0.0-1.0-228.0","0","0","89854","","null","","","null","25","NaN","","","","","","","","","","","","","","",""
"","S2","","html-keyboard-response","175","261653","0.0-1.0-229.0","0","0","89854","","null","","","null","25","","NaN","","","","","","","","","","","","","",""
"","response","","html-keyboard-response","176","261981","0.0-1.0-230.0","0","0","89854","","325","","","75","25","","","1","25","training","adjacent","DE","4","5","L.jpg","R.jpg","0","1","0","",""
"","feedback","","html-keyboard-response","177","262986","0.0-1.0-231.0-0.0","0","0","89854","","null","","","null","25","","","","","","","","","","","","","","","",""
"","time_out","","html-keyboard-response","178","264991","0.0-1.0-233.0-0.0","0","0","89854","","null","","","null","25","","","","","","","","","","","","","","","",""
"","ITI","","html-keyboard-response","179","265994","0.0-1.0-234.0","0","0","89854","","null","","","null","25","","","","","","","","","","","","","","","NaN",""
"","S1","","html-keyboard-response","180","266247","0.0-1.0-236.0","0","0","89854","","null","","","null","26","","","","","","","","","","","","","","","",""
"","ISI","","html-keyboard-response","181","268251","0.0-1.0-237.0","0","0","89854","","null","","","null","26","NaN","","","","","","","","","","","","","","",""
"","S2","","html-keyboard-response","182","268505","0.0-1.0-238.0","0","0","89854","","null","","","null","26","","NaN","","","","","","","","","","","","","",""
"","response","","html-keyboard-response","183","268653","0.0-1.0-239.0","0","0","89854","","145","","","68","26","","","1","26","training","adjacent","BA","2","1","P.jpg","O.jpg","1","0","0","",""
"","feedback","","html-keyboard-response","184","269657","0.0-1.0-240.0-0.0","0","0","89854","","null","","","null","26","","","","","","","","","","","","","","","",""
"","time_out","","html-keyboard-response","185","271661","0.0-1.0-242.0-0.0","0","0","89854","","null","","","null","26","","","","","","","","","","","","","","","",""
"","ITI","","html-keyboard-response","186","272665","0.0-1.0-243.0","0","0","89854","","null","","","null","26","","","","","","","","","","","","","","","NaN",""
"","S1","","html-keyboard-response","187","272918","0.0-1.0-245.0","0","0","89854","","null","","","null","27","","","","","","","","","","","","","","","",""
"","ISI","","html-keyboard-response","188","274922","0.0-1.0-246.0","0","0","89854","","null","","","null","27","NaN","","","","","","","","","","","","","","",""
"","S2","","html-keyboard-response","189","275176","0.0-1.0-247.0","0","0","89854","","null","","","null","27","","NaN","","","","","","","","","","","","","",""
"","response","","html-keyboard-response","190","275252","0.0-1.0-248.0","0","0","89854","","73","","","75","27","","","1","27","training","adjacent","CD","3","4","Q.jpg","L.jpg","0","1","0","",""
"","feedback","","html-keyboard-response","191","276255","0.0-1.0-249.0-0.0","0","0","89854","","null","","","null","27","","","","","","","","","","","","","","","",""
"","time_out","","html-keyboard-response","192","278259","0.0-1.0-251.0-0.0","0","0","89854","","null","","","null","27","","","","","","","","","","","","","","","",""
"","ITI","","html-keyboard-response","193","279263","0.0-1.0-252.0","0","0","89854","","null","","","null","27","","","","","","","","","","","","","","","NaN",""
"","S1","","html-keyboard-response","194","279517","0.0-1.0-254.0","0","0","89854","","null","","","null","28","","","","","","","","","","","","","","","",""
"","ISI","","html-keyboard-response","195","281520","0.0-1.0-255.0","0","0","89854","","null","","","null","28","NaN","","","","","","","","","","","","","","",""
"","S2","","html-keyboard-response","196","281773","0.0-1.0-256.0","0","0","89854","","null","","","null","28","","NaN","","","","","","","","","","","","","",""
"","response","","html-keyboard-response","197","281801","0.0-1.0-257.0","0","0","89854","","25","","","68","28","","","1","28","training","adjacent","AB","1","2","O.jpg","P.jpg","1","1","1","",""
"","feedback","","html-keyboard-response","198","282803","0.0-1.0-258.0-0.0","0","0","89854","","null","","","null","28","","","","","","","","","","","","","","","",""
"","ITI","","html-keyboard-response","199","283806","0.0-1.0-261.0","0","0","89854","","null","","","null","28","","","","","","","","","","","","","","","NaN",""
"","S1","","html-keyboard-response","200","284059","0.0-1.0-263.0","0","0","89854","","null","","","null","29","","","","","","","","","","","","","","","",""
"","ISI","","html-keyboard-response","201","286064","0.0-1.0-264.0","0","0","89854","","null","","","null","29","NaN","","","","","","","","","","","","","","",""
"","S2","","html-keyboard-response","202","286317","0.0-1.0-265.0","0","0","89854","","null","","","null","29","","NaN","","","","","","","","","","","","","",""
"","response","","html-keyboard-response","203","286628","0.0-1.0-266.0","0","0","89854","","308","","","68","29","","","1","29","training","adjacent","EF","5","6","R.jpg","M.jpg","1","1","1","",""
"","feedback","","html-keyboard-response","204","287632","0.0-1.0-267.0-0.0","0","0","89854","","null","","","null","29","","","","","","","","","","","","","","","",""
"","ITI","","html-keyboard-response","205","288636","0.0-1.0-270.0","0","0","89854","","null","","","null","29","","","","","","","","","","","","","","","NaN",""
"","S1","","html-keyboard-response","206","288890","0.0-1.0-272.0","0","0","89854","","null","","","null","30","","","","","","","","","","","","","","","",""
"","ISI","","html-keyboard-response","207","290896","0.0-1.0-273.0","0","0","89854","","null","","","null","30","NaN","","","","","","","","","","","","","","",""
"","S2","","html-keyboard-response","208","291149","0.0-1.0-274.0","0","0","89854","","null","","","null","30","","NaN","","","","","","","","","","","","","",""
"","response","","html-keyboard-response","209","291222","0.0-1.0-275.0","0","0","89854","","70","","","75","30","","","1","30","training","adjacent","CB","3","2","Q.jpg","P.jpg","0","0","1","",""
"","feedback","","html-keyboard-response","210","292226","0.0-1.0-276.0-0.0","0","0","89854","","null","","","null","30","","","","","","","","","","","","","","","",""
"","ITI","","html-keyboard-response","211","293229","0.0-1.0-279.0","0","0","89854","","null","","","null","30","","","","","","","","","","","","","","","NaN",""
"","S1","","html-keyboard-response","212","293503","0.0-1.0-281.0","0","0","89854","","null","","","null","31","","","","","","","","","","","","","","","",""
"","ISI","","html-keyboard-response","213","295506","0.0-1.0-282.0","0","0","89854","","null","","","null","31","NaN","","","","","","","","","","","","","","",""
"","S2","","html-keyboard-response","214","295760","0.0-1.0-283.0","0","0","89854","","null","","","null","31","","NaN","","","","","","","","","","","","","",""
"","response","","html-keyboard-response","215","296126","0.0-1.0-284.0","0","0","89854","","364","","","68","31","","","1","31","training","adjacent","BC","2","3","P.jpg","Q.jpg","1","1","1","",""
"","feedback","","html-keyboard-response","216","297129","0.0-1.0-285.0-0.0","0","0","89854","","null","","","null","31","","","","","","","","","","","","","","","",""
"","ITI","","html-keyboard-response","217","298131","0.0-1.0-288.0","0","0","89854","","null","","","null","31","","","","","","","","","","","","","","","NaN",""
"","S1","","html-keyboard-response","218","298385","0.0-1.0-290.0","0","0","89854","","null","","","null","32","","","","","","","","","","","","","","","",""
"","ISI","","html-keyboard-response","219","300389","0.0-1.0-291.0","0","0","89854","","null","","","null","32","NaN","","","","","","","","","","","","","","",""
"","S2","","html-keyboard-response","220","300642","0.0-1.0-292.0","0","0","89854","","null","","","null","32","","NaN","","","","","","","","","","","","","",""
"","response","","html-keyboard-response","221","300908","0.0-1.0-293.0","0","0","89854","","264","","","68","32","","","1","32","training","adjacent","DE","4","5","L.jpg","R.jpg","1","1","1","",""
"","feedback","","html-keyboard-response","222","301912","0.0-1.0-294.0-0.0","0","0","89854","","null","","","null","32","","","","","","","","","","","","","","","",""
"","ITI","","html-keyboard-response","223","302916","0.0-1.0-297.0","0","0","89854","","null","","","null","32","","","","","","","","","","","","","","","NaN",""
"","S1","","html-keyboard-response","224","303169","0.0-1.0-299.0","0","0","89854","","null","","","null","33","","","","","","","","","","","","","","","",""
"","ISI","","html-keyboard-response","225","305172","0.0-1.0-300.0","0","0","89854","","null","","","null","33","NaN","","","","","","","","","","","","","","",""
"","S2","","html-keyboard-response","226","305426","0.0-1.0-301.0","0","0","89854","","null","","","null","33","","NaN","","","","","","","","","","","","","",""
"","response","","html-keyboard-response","227","305692","0.0-1.0-302.0","0","0","89854","","263","","","75","33","","","1","33","training","adjacent","CB","3","2","Q.jpg","P.jpg","0","0","1","",""
"","feedback","","html-keyboard-response","228","306696","0.0-1.0-303.0-0.0","0","0","89854","","null","","","null","33","","","","","","","","","","","","","","","",""
"","ITI","","html-keyboard-response","229","307700","0.0-1.0-306.0","0","0","89854","","null","","","null","33","","","","","","","","","","","","","","","NaN",""
"","S1","","html-keyboard-response","230","307971","0.0-1.0-308.0","0","0","89854","","null","","","null","34","","","","","","","","","","","","","","","",""
"","ISI","","html-keyboard-response","231","309984","0.0-1.0-309.0","0","0","89854","","null","","","null","34","NaN","","","","","","","","","","","","","","",""
"","S2","","html-keyboard-response","232","310237","0.0-1.0-310.0","0","0","89854","","null","","","null","34","","NaN","","","","","","","","","","","","","",""
"","response","","html-keyboard-response","233","310355","0.0-1.0-311.0","0","0","89854","","114","","","75","34","","","1","34","training","adjacent","EF","5","6","R.jpg","M.jpg","0","1","0","",""
"","feedback","","html-keyboard-response","234","311358","0.0-1.0-312.0-0.0","0","0","89854","","null","","","null","34","","","","","","","","","","","","","","","",""
"","time_out","","html-keyboard-response","235","313362","0.0-1.0-314.0-0.0","0","0","89854","","null","","","null","34","","","","","","","","","","","","","","","",""
"","ITI","","html-keyboard-response","236","314366","0.0-1.0-315.0","0","0","89854","","null","","","null","34","","","","","","","","","","","","","","","NaN",""
"","S1","","html-keyboard-response","237","314620","0.0-1.0-317.0","0","0","89854","","null","","","null","35","","","","","","","","","","","","","","","",""
"","ISI","","html-keyboard-response","238","316623","0.0-1.0-318.0","0","0","89854","","null","","","null","35","NaN","","","","","","","","","","","","","","",""
"","S2","","html-keyboard-response","239","316878","0.0-1.0-319.0","0","0","89854","","null","","","null","35","","NaN","","","","","","","","","","","","","",""
"","response","","html-keyboard-response","240","316993","0.0-1.0-320.0","0","0","89854","","113","","","68","35","","","1","35","training","adjacent","GF","7","6","N.jpg","M.jpg","1","0","0","",""
"","feedback","","html-keyboard-response","241","317996","0.0-1.0-321.0-0.0","0","0","89854","","null","","","null","35","","","","","","","","","","","","","","","",""
"","time_out","","html-keyboard-response","242","320001","0.0-1.0-323.0-0.0","0","0","89854","","null","","","null","35","","","","","","","","","","","","","","","",""
"","ITI","","html-keyboard-response","243","321006","0.0-1.0-324.0","0","0","89854","","null","","","null","35","","","","","","","","","","","","","","","NaN",""
"","S1","","html-keyboard-response","244","321260","0.0-1.0-326.0","0","0","89854","","null","","","null","36","","","","","","","","","","","","","","","",""
"","ISI","","html-keyboard-response","245","323264","0.0-1.0-327.0","0","0","89854","","null","","","null","36","NaN","","","","","","","","","","","","","","",""
"","S2","","html-keyboard-response","246","323533","0.0-1.0-328.0","0","0","89854","","null","","","null","36","","NaN","","","","","","","","","","","","","",""
"","response","","html-keyboard-response","247","323811","0.0-1.0-329.0","0","0","89854","","274","","","75","36","","","1","36","training","adjacent","FG","6","7","M.jpg","N.jpg","0","1","0","",""
"","feedback","","html-keyboard-response","248","324815","0.0-1.0-330.0-0.0","0","0","89854","","null","","","null","36","","","","","","","","","","","","","","","",""
"","time_out","","html-keyboard-response","249","326818","0.0-1.0-332.0-0.0","0","0","89854","","null","","","null","36","","","","","","","","","","","","","","","",""
"","ITI","","html-keyboard-response","250","327822","0.0-1.0-333.0","0","0","89854","","null","","","null","36","","","","","","","","","","","","","","","NaN",""
"","S1","","html-keyboard-response","251","328076","0.0-1.0-335.0","0","0","89854","","null","","","null","37","","","","","","","","","","","","","","","",""
"","ISI","","html-keyboard-response","252","330080","0.0-1.0-336.0","0","0","89854","","null","","","null","37","NaN","","","","","","","","","","","","","","",""
"","S2","","html-keyboard-response","253","330334","0.0-1.0-337.0","0","0","89854","","null","","","null","37","","NaN","","","","","","","","","","","","","",""
"","response","","html-keyboard-response","254","330610","0.0-1.0-338.0","0","0","89854","","272","","","68","37","","","1","37","training","adjacent","BC","2","3","P.jpg","Q.jpg","1","1","1","",""
"","feedback","","html-keyboard-response","255","331614","0.0-1.0-339.0-0.0","0","0","89854","","null","","","null","37","","","","","","","","","","","","","","","",""
"","ITI","","html-keyboard-response","256","332617","0.0-1.0-342.0","0","0","89854","","null","","","null","37","","","","","","","","","","","","","","","NaN",""
"","S1","","html-keyboard-response","257","332871","0.0-1.0-344.0","0","0","89854","","null","","","null","38","","","","","","","","","","","","","","","",""
"","ISI","","html-keyboard-response","258","334874","0.0-1.0-345.0","0","0","89854","","null","","","null","38","NaN","","","","","","","","","","","","","","",""
"","S2","","html-keyboard-response","259","335129","0.0-1.0-346.0","0","0","89854","","null","","","null","38","","NaN","","","","","","","","","","","","","",""
"","response","","html-keyboard-response","260","335409","0.0-1.0-347.0","0","0","89854","","277","","","68","38","","","1","38","training","adjacent","DC","4","3","L.jpg","Q.jpg","1","0","0","",""
"","feedback","","html-keyboard-response","261","336413","0.0-1.0-348.0-0.0","0","0","89854","","null","","","null","38","","","","","","","","","","","","","","","",""
"","time_out","","html-keyboard-response","262","338417","0.0-1.0-350.0-0.0","0","0","89854","","null","","","null","38","","","","","","","","","","","","","","","",""
"","ITI","","html-keyboard-response","263","339420","0.0-1.0-351.0","0","0","89854","","null","","","null","38","","","","","","","","","","","","","","","NaN",""
"","S1","","html-keyboard-response","264","339674","0.0-1.0-353.0","0","0","89854","","null","","","null","39","","","","","","","","","","","","","","","",""
"","ISI","","html-keyboard-response","265","341679","0.0-1.0-354.0","0","0","89854","","null","","","null","39","NaN","","","","","","","","","","","","","","",""
"","S2","","html-keyboard-response","266","341939","0.0-1.0-355.0","0","0","89854","","null","","","null","39","","NaN","","","","","","","","","","","","","",""
"","response","","html-keyboard-response","267","342046","0.0-1.0-356.0","0","0","89854","","104","","","75","39","","","1","39","training","adjacent","BA","2","1","P.jpg","O.jpg","0","0","1","",""
"","feedback","","html-keyboard-response","268","343049","0.0-1.0-357.0-0.0","0","0","89854","","null","","","null","39","","","","","","","","","","","","","","","",""
"","ITI","","html-keyboard-response","269","344052","0.0-1.0-360.0","0","0","89854","","null","","","null","39","","","","","","","","","","","","","","","NaN",""
"","block_over","","html-keyboard-response","270","441014","0.0-1.0-361.0-0.0","0","0","89854","","96959","","","32","39","","","","","","","","","","","","","","","",""
"","S1","","html-keyboard-response","271","441268","0.0-1.0-362.0","0","0","89854","","null","","","null","40","","","","","","","","","","","","","","","",""
"","ISI","","html-keyboard-response","272","443276","0.0-1.0-363.0","0","0","89854","","29","","","17","40","ctrl","","","","","","","","","","","","","","",""
"","S2","","html-keyboard-response","273","443529","0.0-1.0-364.0","0","0","89854","","48","","","75","40","","k","","","","","","","","","","","","","",""
"","response","","html-keyboard-response","274","443567","0.0-1.0-365.0","0","0","89854","","35","","","68","40","","","2","40","training","adjacent","CB","3","2","Q.jpg","P.jpg","1","0","0","",""
"","feedback","","html-keyboard-response","275","444572","0.0-1.0-366.0-0.0","0","0","89854","","null","","","null","40","","","","","","","","","","","","","","","",""
"","time_out","","html-keyboard-response","276","446576","0.0-1.0-368.0-0.0","0","0","89854","","null","","","null","40","","","","","","","","","","","","","","","",""
"","ITI","","html-keyboard-response","277","447579","0.0-1.0-369.0","0","0","89854","","30","","","75","40","","","","","","","","","","","","","","","k",""
"","S1","","html-keyboard-response","278","447833","0.0-1.0-371.0","0","0","89854","","null","","","null","41","","","","","","","","","","","","","","","",""
"","ISI","","html-keyboard-response","279","449836","0.0-1.0-372.0","0","0","89854","","17","","","68","41","d","","","","","","","","","","","","","","",""
"","S2","","html-keyboard-response","280","450089","0.0-1.0-373.0","0","0","89854","","44","","","68","41","","d","","","","","","","","","","","","","",""
"","response","","html-keyboard-response","281","450113","0.0-1.0-374.0","0","0","89854","","22","","","75","41","","","2","41","training","adjacent","GF","7","6","N.jpg","M.jpg","0","0","1","",""
"","feedback","","html-keyboard-response","282","451116","0.0-1.0-375.0-0.0","0","0","89854","","null","","","null","41","","","","","","","","","","","","","","","",""
"","ITI","","html-keyboard-response","283","452119","0.0-1.0-378.0","0","0","89854","","9","","","75","41","","","","","","","","","","","","","","","k",""
"","S1","","html-keyboard-response","284","452373","0.0-1.0-380.0","0","0","89854","","null","","","null","42","","","","","","","","","","","","","","","",""
"","ISI","","html-keyboard-response","285","454384","0.0-1.0-381.0","0","0","89854","","0","","","68","42","d","","","","","","","","","","","","","","",""
"","S2","","html-keyboard-response","286","454637","0.0-1.0-382.0","0","0","89854","","15","","","75","42","","k","","","","","","","","","","","","","",""
"","response","","html-keyboard-response","287","454640","0.0-1.0-383.0","0","0","89854","","1","","","68","42","","","2","42","training","adjacent","BC","2","3","P.jpg","Q.jpg","1","1","1","",""
"","feedback","","html-keyboard-response","288","455645","0.0-1.0-384.0-0.0","0","0","89854","","null","","","null","42","","","","","","","","","","","","","","","",""
"","ITI","","html-keyboard-response","289","456649","0.0-1.0-387.0","0","0","89854","","7","","","68","42","","","","","","","","","","","","","","","d",""
"","S1","","html-keyboard-response","290","456902","0.0-1.0-389.0","0","0","89854","","null","","","null","43","","","","","","","","","","","","","","","",""
"","ISI","","html-keyboard-response","291","458906","0.0-1.0-390.0","0","0","89854","","74","","","68","43","d","","","","","","","","","","","","","","",""
"","S2","","html-keyboard-response","292","459160","0.0-1.0-391.0","0","0","89854","","35","","","68","43","","d","","","","","","","","","","","","","",""
"","response","","html-keyboard-response","293","459165","0.0-1.0-392.0","0","0","89854","","2","","","68","43","","","2","43","training","adjacent","DE","4","5","L.jpg","R.jpg","1","1","1","",""
"","feedback","","html-keyboard-response","294","460168","0.0-1.0-393.0-0.0","0","0","89854","","null","","","null","43","","","","","","","","","","","","","","","",""
"","ITI","","html-keyboard-response","295","461172","0.0-1.0-396.0","0","0","89854","","8","","","75","43","","","","","","","","","","","","","","","k",""
"","S1","","html-keyboard-response","296","461427","0.0-1.0-398.0","0","0","89854","","null","","","null","44","","","","","","","","","","","","","","","",""
"","ISI","","html-keyboard-response","297","463432","0.0-1.0-399.0","0","0","89854","","72","","","68","44","d","","","","","","","","","","","","","","",""
"","S2","","html-keyboard-response","298","463686","0.0-1.0-400.0","0","0","89854","","12","","","68","44","","d","","","","","","","","","","","","","",""
"","response","","html-keyboard-response","299","463689","0.0-1.0-401.0","0","0","89854","","0","","","75","44","","","2","44","training","adjacent","CD","3","4","Q.jpg","L.jpg","0","1","0","",""
"","feedback","","html-keyboard-response","300","464693","0.0-1.0-402.0-0.0","0","0","89854","","null","","","null","44","","","","","","","","","","","","","","","",""
"","time_out","","html-keyboard-response","301","466696","0.0-1.0-404.0-0.0","0","0","89854","","null","","","null","44","","","","","","","","","","","","","","","",""
"","ITI","","html-keyboard-response","302","467699","0.0-1.0-405.0","0","0","89854","","30","","","68","44","","","","","","","","","","","","","","","d",""
"","S1","","html-keyboard-response","303","467959","0.0-1.0-407.0","0","0","89854","","null","","","null","45","","","","","","","","","","","","","","","",""
"","ISI","","html-keyboard-response","304","469968","0.0-1.0-408.0","0","0","89854","","16","","","75","45","k","","","","","","","","","","","","","","",""
"","S2","","html-keyboard-response","305","470222","0.0-1.0-409.0","0","0","89854","","30","","","75","45","","k","","","","","","","","","","","","","",""
"","response","","html-keyboard-response","306","470239","0.0-1.0-410.0","0","0","89854","","14","","","68","45","","","2","45","training","adjacent","CD","3","4","Q.jpg","L.jpg","1","1","1","",""
"","feedback","","html-keyboard-response","307","471241","0.0-1.0-411.0-0.0","0","0","89854","","null","","","null","45","","","","","","","","","","","","","","","",""
"","ITI","","html-keyboard-response","308","472245","0.0-1.0-414.0","0","0","89854","","11","","","68","45","","","","","","","","","","","","","","","d",""
"","S1","","html-keyboard-response","309","472499","0.0-1.0-416.0","0","0","89854","","null","","","null","46","","","","","","","","","","","","","","","",""
"","ISI","","html-keyboard-response","310","474503","0.0-1.0-417.0","0","0","89854","","0","","","75","46","k","","","","","","","","","","","","","","",""
"","S2","","html-keyboard-response","311","474757","0.0-1.0-418.0","0","0","89854","","33","","","75","46","","k","","","","","","","","","","","","","",""
"","response","","html-keyboard-response","312","474779","0.0-1.0-419.0","0","0","89854","","21","","","68","46","","","2","46","training","adjacent","DE","4","5","L.jpg","R.jpg","1","1","1","",""
"","feedback","","html-keyboard-response","313","475782","0.0-1.0-420.0-0.0","0","0","89854","","null","","","null","46","","","","","","","","","","","","","","","",""
"","ITI","","html-keyboard-response","314","476787","0.0-1.0-423.0","0","0","89854","","9","","","75","46","","","","","","","","","","","","","","","k",""
"","S1","","html-keyboard-response","315","477043","0.0-1.0-425.0","0","0","89854","","null","","","null","47","","","","","","","","","","","","","","","",""
"","ISI","","html-keyboard-response","316","479059","0.0-1.0-426.0","0","0","89854","","0","","","75","47","k","","","","","","","","","","","","","","",""
"","S2","","html-keyboard-response","317","479312","0.0-1.0-427.0","0","0","89854","","4","","","75","47","","k","","","","","","","","","","","","","",""
"","response","","html-keyboard-response","318","479376","0.0-1.0-428.0","0","0","89854","","60","","","68","47","","","2","47","training","adjacent","CB","3","2","Q.jpg","P.jpg","1","0","0","",""
"","feedback","","html-keyboard-response","319","480380","0.0-1.0-429.0-0.0","0","0","89854","","null","","","null","47","","","","","","","","","","","","","","","",""
"","time_out","","html-keyboard-response","320","482384","0.0-1.0-431.0-0.0","0","0","89854","","null","","","null","47","","","","","","","","","","","","","","","",""
"","ITI","","html-keyboard-response","321","483388","0.0-1.0-432.0","0","0","89854","","30","","","75","47","","","","","","","","","","","","","","","k",""
"","S1","","html-keyboard-response","322","483641","0.0-1.0-434.0","0","0","89854","","null","","","null","48","","","","","","","","","","","","","","","",""
"","ISI","","html-keyboard-response","323","485656","0.0-1.0-435.0","0","0","89854","","22","","","68","48","d","","","","","","","","","","","","","","",""
"","S2","","html-keyboard-response","324","485910","0.0-1.0-436.0","0","0","89854","","39","","","68","48","","d","","","","","","","","","","","","","",""
"","response","","html-keyboard-response","325","485928","0.0-1.0-437.0","0","0","89854","","15","","","75","48","","","2","48","training","adjacent","EF","5","6","R.jpg","M.jpg","0","1","0","",""
"","feedback","","html-keyboard-response","326","486933","0.0-1.0-438.0-0.0","0","0","89854","","null","","","null","48","","","","","","","","","","","","","","","",""
"","time_out","","html-keyboard-response","327","488936","0.0-1.0-440.0-0.0","0","0","89854","","null","","","null","48","","","","","","","","","","","","","","","",""
"","ITI","","html-keyboard-response","328","489944","0.0-1.0-441.0","0","0","89854","","36","","","75","48","","","","","","","","","","","","","","","k",""
"","S1","","html-keyboard-response","329","490197","0.0-1.0-443.0","0","0","89854","","null","","","null","49","","","","","","","","","","","","","","","",""
"","ISI","","html-keyboard-response","330","492201","0.0-1.0-444.0","0","0","89854","","24","","","75","49","k","","","","","","","","","","","","","","",""
"","S2","","html-keyboard-response","331","492456","0.0-1.0-445.0","0","0","89854","","48","","","68","49","","d","","","","","","","","","","","","","",""
"","response","","html-keyboard-response","332","492483","0.0-1.0-446.0","0","0","89854","","23","","","68","49","","","2","49","training","adjacent","FE","6","5","M.jpg","R.jpg","1","0","0","",""
"","feedback","","html-keyboard-response","333","493487","0.0-1.0-447.0-0.0","0","0","89854","","null","","","null","49","","","","","","","","","","","","","","","",""
"","time_out","","html-keyboard-response","334","495490","0.0-1.0-449.0-0.0","0","0","89854","","null","","","null","49","","","","","","","","","","","","","","","",""
"","ITI","","html-keyboard-response","335","496494","0.0-1.0-450.0","0","0","89854","","47","","","75","49","","","","","","","","","","","","","","","k",""
"","S1","","html-keyboard-response","336","496748","0.0-1.0-452.0","0","0","89854","","null","","","null","50","","","","","","","","","","","","","","","",""
"","ISI","","html-keyboard-response","337","498752","0.0-1.0-453.0","0","0","89854","","38","","","68","50","d","","","","","","","","","","","","","","",""
"","S2","","html-keyboard-response","338","499006","0.0-1.0-454.0","0","0","89854","","62","","","68","50","","d","","","","","","","","","","","","","",""
"","response","","html-keyboard-response","339","499057","0.0-1.0-455.0","0","0","89854","","48","","","75","50","","","2","50","training","adjacent","DC","4","3","L.jpg","Q.jpg","0","0","1","",""
"","feedback","","html-keyboard-response","340","500060","0.0-1.0-456.0-0.0","0","0","89854","","null","","","null","50","","","","","","","","","","","","","","","",""
"","ITI","","html-keyboard-response","341","501063","0.0-1.0-459.0","0","0","89854","","7","","","75","50","","","","","","","","","","","","","","","k",""
"","S1","","html-keyboard-response","342","501317","0.0-1.0-461.0","0","0","89854","","null","","","null","51","","","","","","","","","","","","","","","",""
"","ISI","","html-keyboard-response","343","503319","0.0-1.0-462.0","0","0","89854","","75","","","75","51","k","","","","","","","","","","","","","","",""
"","S2","","html-keyboard-response","344","503575","0.0-1.0-463.0","0","0","89854","","20","","","75","51","","k","","","","","","","","","","","","","",""
"","response","","html-keyboard-response","345","503651","0.0-1.0-464.0","0","0","89854","","74","","","75","51","","","2","51","training","adjacent","ED","5","4","R.jpg","L.jpg","0","0","1","",""
"","feedback","","html-keyboard-response","346","504655","0.0-1.0-465.0-0.0","0","0","89854","","null","","","null","51","","","","","","","","","","","","","","","",""
"","ITI","","html-keyboard-response","347","505659","0.0-1.0-468.0","0","0","89854","","9","","","75","51","","","","","","","","","","","","","","","k",""
"","S1","","html-keyboard-response","348","505914","0.0-1.0-470.0","0","0","89854","","null","","","null","52","","","","","","","","","","","","","","","",""
"","ISI","","html-keyboard-response","349","507918","0.0-1.0-471.0","0","0","89854","","1","","","68","52","d","","","","","","","","","","","","","","",""
"","S2","","html-keyboard-response","350","508172","0.0-1.0-472.0","0","0","89854","","22","","","75","52","","k","","","","","","","","","","","","","",""
"","response","","html-keyboard-response","351","508184","0.0-1.0-473.0","0","0","89854","","9","","","75","52","","","2","52","training","adjacent","CD","3","4","Q.jpg","L.jpg","0","1","0","",""
"","feedback","","html-keyboard-response","352","509188","0.0-1.0-474.0-0.0","0","0","89854","","null","","","null","52","","","","","","","","","","","","","","","",""
"","time_out","","html-keyboard-response","353","511191","0.0-1.0-476.0-0.0","0","0","89854","","null","","","null","52","","","","","","","","","","","","","","","",""
"","ITI","","html-keyboard-response","354","512194","0.0-1.0-477.0","0","0","89854","","32","","","68","52","","","","","","","","","","","","","","","d",""
"","S1","","html-keyboard-response","355","512448","0.0-1.0-479.0","0","0","89854","","null","","","null","53","","","","","","","","","","","","","","","",""
"","ISI","","html-keyboard-response","356","514451","0.0-1.0-480.0","0","0","89854","","18","","","75","53","k","","","","","","","","","","","","","","",""
"","S2","","html-keyboard-response","357","514704","0.0-1.0-481.0","0","0","89854","","38","","","68","53","","d","","","","","","","","","","","","","",""
"","response","","html-keyboard-response","358","514731","0.0-1.0-482.0","0","0","89854","","24","","","75","53","","","2","53","training","adjacent","AB","1","2","O.jpg","P.jpg","0","1","0","",""
"","feedback","","html-keyboard-response","359","515740","0.0-1.0-483.0-0.0","0","0","89854","","null","","","null","53","","","","","","","","","","","","","","","",""
"","time_out","","html-keyboard-response","360","517744","0.0-1.0-485.0-0.0","0","0","89854","","null","","","null","53","","","","","","","","","","","","","","","",""
"","ITI","","html-keyboard-response","361","518747","0.0-1.0-486.0","0","0","89854","","25","","","75","53","","","","","","","","","","","","","","","k",""
"","S1","","html-keyboard-response","362","519008","0.0-1.0-488.0","0","0","89854","","null","","","null","54","","","","","","","","","","","","","","","",""
"","ISI","","html-keyboard-response","363","521013","0.0-1.0-489.0","0","0","89854","","13","","","68","54","d","","","","","","","","","","","","","","",""
"","S2","","html-keyboard-response","364","521266","0.0-1.0-490.0","0","0","89854","","28","","","68","54","","d","","","","","","","","","","","","","",""
"","response","","html-keyboard-response","365","521284","0.0-1.0-491.0","0","0","89854","","15","","","75","54","","","2","54","training","adjacent","ED","5","4","R.jpg","L.jpg","0","0","1","",""
"","feedback","","html-keyboard-response","366","522288","0.0-1.0-492.0-0.0","0","0","89854","","null","","","null","54","","","","","","","","","","","","","","","",""
"","ITI","","html-keyboard-response","367","523292","0.0-1.0-495.0","0","0","89854","","8","","","75","54","","","","","","","","","","","","","","","k",""
"","S1","","html-keyboard-response","368","523552","0.0-1.0-497.0","0","0","89854","","null","","","null","55","","","","","","","","","","","","","","","",""
"","ISI","","html-keyboard-response","369","525555","0.0-1.0-498.0","0","0","89854","","65","","","75","55","k","","","","","","","","","","","","","","",""
"","S2","","html-keyboard-response","370","525808","0.0-1.0-499.0","0","0","89854","","14","","","75","55","","k","","","","","","","","","","","","","",""
"","response","","html-keyboard-response","371","525880","0.0-1.0-500.0","0","0","89854","","70","","","75","55","","","2","55","training","adjacent","FE","6","5","M.jpg","R.jpg","0","0","1","",""
"","feedback","","html-keyboard-response","372","526884","0.0-1.0-501.0-0.0","0","0","89854","","null","","","null","55","","","","","","","","","","","","","","","",""
"","ITI","","html-keyboard-response","373","527888","0.0-1.0-504.0","0","0","89854","","8","","","75","55","","","","","","","","","","","","","","","k",""
"","S1","","html-keyboard-response","374","528141","0.0-1.0-506.0","0","0","89854","","null","","","null","56","","","","","","","","","","","","","","","",""
"","ISI","","html-keyboard-response","375","530144","0.0-1.0-507.0","0","0","89854","","1","","","75","56","k","","","","","","","","","","","","","","",""
"","S2","","html-keyboard-response","376","530397","0.0-1.0-508.0","0","0","89854","","30","","","75","56","","k","","","","","","","","","","","","","",""
"","response","","html-keyboard-response","377","530411","0.0-1.0-509.0","0","0","89854","","10","","","68","56","","","2","56","training","adjacent","BA","2","1","P.jpg","O.jpg","1","0","0","",""
"","feedback","","html-keyboard-response","378","531416","0.0-1.0-510.0-0.0","0","0","89854","","null","","","null","56","","","","","","","","","","","","","","","",""
"","time_out","","html-keyboard-response","379","533419","0.0-1.0-512.0-0.0","0","0","89854","","null","","","null","56","","","","","","","","","","","","","","","",""
"","ITI","","html-keyboard-response","380","534423","0.0-1.0-513.0","0","0","89854","","30","","","68","56","","","","","","","","","","","","","","","d",""
"","S1","","html-keyboard-response","381","534677","0.0-1.0-515.0","0","0","89854","","null","","","null","57","","","","","","","","","","","","","","","",""
"","ISI","","html-keyboard-response","382","536681","0.0-1.0-516.0","0","0","89854","","20","","","75","57","k","","","","","","","","","","","","","","",""
"","S2","","html-keyboard-response","383","536934","0.0-1.0-517.0","0","0","89854","","40","","","75","57","","k","","","","","","","","","","","","","",""
"","response","","html-keyboard-response","384","536963","0.0-1.0-518.0","0","0","89854","","26","","","68","57","","","2","57","training","adjacent","DE","4","5","L.jpg","R.jpg","1","1","1","",""
"","feedback","","html-keyboard-response","385","537968","0.0-1.0-519.0-0.0","0","0","89854","","null","","","null","57","","","","","","","","","","","","","","","",""
"","ITI","","html-keyboard-response","386","538971","0.0-1.0-522.0","0","0","89854","","8","","","75","57","","","","","","","","","","","","","","","k",""
"","S1","","html-keyboard-response","387","539224","0.0-1.0-524.0","0","0","89854","","null","","","null","58","","","","","","","","","","","","","","","",""
"","ISI","","html-keyboard-response","388","541228","0.0-1.0-525.0","0","0","89854","","72","","","75","58","k","","","","","","","","","","","","","","",""
"","S2","","html-keyboard-response","389","541481","0.0-1.0-526.0","0","0","89854","","23","","","75","58","","k","","","","","","","","","","","","","",""
"","response","","html-keyboard-response","390","541486","0.0-1.0-527.0","0","0","89854","","1","","","75","58","","","2","58","training","adjacent","GF","7","6","N.jpg","M.jpg","0","0","1","",""
"","feedback","","html-keyboard-response","391","542490","0.0-1.0-528.0-0.0","0","0","89854","","null","","","null","58","","","","","","","","","","","","","","","",""
"","ITI","","html-keyboard-response","392","543495","0.0-1.0-531.0","0","0","89854","","6","","","68","58","","","","","","","","","","","","","","","d",""
"","S1","","html-keyboard-response","393","543748","0.0-1.0-533.0","0","0","89854","","null","","","null","59","","","","","","","","","","","","","","","",""
"","ISI","","html-keyboard-response","394","545750","0.0-1.0-534.0","0","0","89854","","72","","","75","59","k","","","","","","","","","","","","","","",""
"","S2","","html-keyboard-response","395","546003","0.0-1.0-535.0","0","0","89854","","19","","","75","59","","k","","","","","","","","","","","","","",""
"","response","","html-keyboard-response","396","546011","0.0-1.0-536.0","0","0","89854","","6","","","68","59","","","2","59","training","adjacent","DC","4","3","L.jpg","Q.jpg","1","0","0","",""
"","feedback","","html-keyboard-response","397","547044","0.0-1.0-537.0-0.0","0","0","89854","","null","","","null","59","","","","","","","","","","","","","","","",""
"","time_out","","html-keyboard-response","398","549047","0.0-1.0-539.0-0.0","0","0","89854","","null","","","null","59","","","","","","","","","","","","","","","",""
"","ITI","","html-keyboard-response","399","550050","0.0-1.0-540.0","0","0","89854","","4","","","68","59","","","","","","","","","","","","","","","d",""
"","S1","","html-keyboard-response","400","550303","0.0-1.0-542.0","0","0","89854","","null","","","null","60","","","","","","","","","","","","","","","",""
"","ISI","","html-keyboard-response","401","552307","0.0-1.0-543.0","0","0","89854","","70","","","75","60","k","","","","","","","","","","","","","","",""
"","S2","","html-keyboard-response","402","552561","0.0-1.0-544.0","0","0","89854","","13","","","68","60","","d","","","","","","","","","","","","","",""
"","response","","html-keyboard-response","403","552640","0.0-1.0-545.0","0","0","89854","","75","","","68","60","","","2","60","training","adjacent","FE","6","5","M.jpg","R.jpg","1","0","0","",""
"","feedback","","html-keyboard-response","404","553644","0.0-1.0-546.0-0.0","0","0","89854","","null","","","null","60","","","","","","","","","","","","","","","",""
"","time_out","","html-keyboard-response","405","555648","0.0-1.0-548.0-0.0","0","0","89854","","null","","","null","60","","","","","","","","","","","","","","","",""
"","ITI","","html-keyboard-response","406","556652","0.0-1.0-549.0","0","0","89854","","30","","","75","60","","","","","","","","","","","","","","","k",""
"","S1","","html-keyboard-response","407","556906","0.0-1.0-551.0","0","0","89854","","null","","","null","61","","","","","","","","","","","","","","","",""
"","ISI","","html-keyboard-response","408","558910","0.0-1.0-552.0","0","0","89854","","17","","","75","61","k","","","","","","","","","","","","","","",""
"","S2","","html-keyboard-response","409","559163","0.0-1.0-553.0","0","0","89854","","41","","","68","61","","d","","","","","","","","","","","","","",""
"","response","","html-keyboard-response","410","559216","0.0-1.0-554.0","0","0","89854","","50","","","75","61","","","2","61","training","adjacent","BC","2","3","P.jpg","Q.jpg","0","1","0","",""
"","feedback","","html-keyboard-response","411","560220","0.0-1.0-555.0-0.0","0","0","89854","","null","","","null","61","","","","","","","","","","","","","","","",""
"","time_out","","html-keyboard-response","412","562225","0.0-1.0-557.0-0.0","0","0","89854","","null","","","null","61","","","","","","","","","","","","","","","",""
"","ITI","","html-keyboard-response","413","563228","0.0-1.0-558.0","0","0","89854","","8","","","68","61","","","","","","","","","","","","","","","d",""
"","S1","","html-keyboard-response","414","563482","0.0-1.0-560.0","0","0","89854","","null","","","null","62","","","","","","","","","","","","","","","",""
"","ISI","","html-keyboard-response","415","565526","0.0-1.0-561.0","0","0","89854","","77","","","68","62","d","","","","","","","","","","","","","","",""
"","S2","","html-keyboard-response","416","565779","0.0-1.0-562.0","0","0","89854","","59","","","68","62","","d","","","","","","","","","","","","","",""
"","response","","html-keyboard-response","417","565822","0.0-1.0-563.0","0","0","89854","","37","","","75","62","","","2","62","training","adjacent","AB","1","2","O.jpg","P.jpg","0","1","0","",""
"","feedback","","html-keyboard-response","418","566825","0.0-1.0-564.0-0.0","0","0","89854","","null","","","null","62","","","","","","","","","","","","","","","",""
"","time_out","","html-keyboard-response","419","568828","0.0-1.0-566.0-0.0","0","0","89854","","null","","","null","62","","","","","","","","","","","","","","","",""
"","ITI","","html-keyboard-response","420","569832","0.0-1.0-567.0","0","0","89854","","34","","","75","62","","","","","","","","","","","","","","","k",""
"","S1","","html-keyboard-response","421","570086","0.0-1.0-569.0","0","0","89854","","null","","","null","63","","","","","","","","","","","","","","","",""
"","ISI","","html-keyboard-response","422","572089","0.0-1.0-570.0","0","0","89854","","19","","","68","63","d","","","","","","","","","","","","","","",""
"","S2","","html-keyboard-response","423","572343","0.0-1.0-571.0","0","0","89854","","42","","","75","63","","k","","","","","","","","","","","","","",""
"","response","","html-keyboard-response","424","572374","0.0-1.0-572.0","0","0","89854","","29","","","68","63","","","2","63","training","adjacent","DC","4","3","L.jpg","Q.jpg","1","0","0","",""
"","feedback","","html-keyboard-response","425","573378","0.0-1.0-573.0-0.0","0","0","89854","","null","","","null","63","","","","","","","","","","","","","","","",""
"","time_out","","html-keyboard-response","426","575383","0.0-1.0-575.0-0.0","0","0","89854","","null","","","null","63","","","","","","","","","","","","","","","",""
"","ITI","","html-keyboard-response","427","576388","0.0-1.0-576.0","0","0","89854","","43","","","75","63","","","","","","","","","","","","","","","k",""
"","S1","","html-keyboard-response","428","576642","0.0-1.0-578.0","0","0","89854","","null","","","null","64","","","","","","","","","","","","","","","",""
"","ISI","","html-keyboard-response","429","578645","0.0-1.0-579.0","0","0","89854","","31","","","75","64","k","","","","","","","","","","","","","","",""
"","S2","","html-keyboard-response","430","578900","0.0-1.0-580.0","0","0","89854","","55","","","68","64","","d","","","","","","","","","","","","","",""
"","response","","html-keyboard-response","431","578943","0.0-1.0-581.0","0","0","89854","","40","","","75","64","","","2","64","training","adjacent","BA","2","1","P.jpg","O.jpg","0","0","1","",""
"","feedback","","html-keyboard-response","432","579974","0.0-1.0-582.0-0.0","0","0","89854","","null","","","null","64","","","","","","","","","","","","","","","",""
"","ITI","","html-keyboard-response","433","580977","0.0-1.0-585.0","0","0","89854","","53","","","68","64","","","","","","","","","","","","","","","d",""
"","S1","","html-keyboard-response","434","581231","0.0-1.0-587.0","0","0","89854","","null","","","null","65","","","","","","","","","","","","","","","",""
"","ISI","","html-keyboard-response","435","583234","0.0-1.0-588.0","0","0","89854","","48","","","75","65","k","","","","","","","","","","","","","","",""
"","S2","","html-keyboard-response","436","583488","0.0-1.0-589.0","0","0","89854","","12","","","75","65","","k","","","","","","","","","","","","","",""
"","response","","html-keyboard-response","437","583558","0.0-1.0-590.0","0","0","89854","","67","","","68","65","","","2","65","training","adjacent","BC","2","3","P.jpg","Q.jpg","1","1","1","",""
"","feedback","","html-keyboard-response","438","584562","0.0-1.0-591.0-0.0","0","0","89854","","null","","","null","65","","","","","","","","","","","","","","","",""
"","ITI","","html-keyboard-response","439","585567","0.0-1.0-594.0","0","0","89854","","12","","","68","65","","","","","","","","","","","","","","","d",""
"","S1","","html-keyboard-response","440","585821","0.0-1.0-596.0","0","0","89854","","null","","","null","66","","","","","","","","","","","","","","","",""
"","ISI","","html-keyboard-response","441","587823","0.0-1.0-597.0","0","0","89854","","73","","","75","66","k","","","","","","","","","","","","","","",""
"","S2","","html-keyboard-response","442","588078","0.0-1.0-598.0","0","0","89854","","20","","","75","66","","k","","","","","","","","","","","","","",""
"","response","","html-keyboard-response","443","588080","0.0-1.0-599.0","0","0","89854","","0","","","75","66","","","2","66","training","adjacent","ED","5","4","R.jpg","L.jpg","0","0","1","",""
"","feedback","","html-keyboard-response","444","589083","0.0-1.0-600.0-0.0","0","0","89854","","null","","","null","66","","","","","","","","","","","","","","","",""
"","ITI","","html-keyboard-response","445","590086","0.0-1.0-603.0","0","0","89854","","9","","","75","66","","","","","","","","","","","","","","","k",""
"","S1","","html-keyboard-response","446","590347","0.0-1.0-605.0","0","0","89854","","null","","","null","67","","","","","","","","","","","","","","","",""
"","ISI","","html-keyboard-response","447","592349","0.0-1.0-606.0","0","0","89854","","0","","","75","67","k","","","","","","","","","","","","","","",""
"","S2","","html-keyboard-response","448","592604","0.0-1.0-607.0","0","0","89854","","23","","","75","67","","k","","","","","","","","","","","","","",""
"","response","","html-keyboard-response","449","592607","0.0-1.0-608.0","0","0","89854","","0","","","75","67","","","2","67","training","adjacent","DC","4","3","L.jpg","Q.jpg","0","0","1","",""
"","feedback","","html-keyboard-response","450","593611","0.0-1.0-609.0-0.0","0","0","89854","","null","","","null","67","","","","","","","","","","","","","","","",""
"","ITI","","html-keyboard-response","451","594614","0.0-1.0-612.0","0","0","89854","","4","","","68","67","","","","","","","","","","","","","","","d",""
"","S1","","html-keyboard-response","452","594869","0.0-1.0-614.0","0","0","89854","","null","","","null","68","","","","","","","","","","","","","","","",""
"","ISI","","html-keyboard-response","453","596872","0.0-1.0-615.0","0","0","89854","","0","","","75","68","k","","","","","","","","","","","","","","",""
"","S2","","html-keyboard-response","454","597125","0.0-1.0-616.0","0","0","89854","","20","","","75","68","","k","","","","","","","","","","","","","",""
"","response","","html-keyboard-response","455","597206","0.0-1.0-617.0","0","0","89854","","77","","","75","68","","","2","68","training","adjacent","FG","6","7","M.jpg","N.jpg","0","1","0","",""
"","feedback","","html-keyboard-response","456","598210","0.0-1.0-618.0-0.0","0","0","89854","","null","","","null","68","","","","","","","","","","","","","","","",""
"","time_out","","html-keyboard-response","457","600213","0.0-1.0-620.0-0.0","0","0","89854","","null","","","null","68","","","","","","","","","","","","","","","",""
"","ITI","","html-keyboard-response","458","601215","0.0-1.0-621.0","0","0","89854","","33","","","68","68","","","","","","","","","","","","","","","d",""
"","S1","","html-keyboard-response","459","601469","0.0-1.0-623.0","0","0","89854","","null","","","null","69","","","","","","","","","","","","","","","",""
"","ISI","","html-keyboard-response","460","603473","0.0-1.0-624.0","0","0","89854","","40","","","75","69","k","","","","","","","","","","","","","","",""
"","S2","","html-keyboard-response","461","603729","0.0-1.0-625.0","0","0","89854","","64","","","75","69","","k","","","","","","","","","","","","","",""
"","response","","html-keyboard-response","462","603770","0.0-1.0-626.0","0","0","89854","","37","","","68","69","","","2","69","training","adjacent","CB","3","2","Q.jpg","P.jpg","1","0","0","",""
"","feedback","","html-keyboard-response","463","604774","0.0-1.0-627.0-0.0","0","0","89854","","null","","","null","69","","","","","","","","","","","","","","","",""
"","time_out","","html-keyboard-response","464","606778","0.0-1.0-629.0-0.0","0","0","89854","","null","","","null","69","","","","","","","","","","","","","","","",""
"","ITI","","html-keyboard-response","465","607782","0.0-1.0-630.0","0","0","89854","","41","","","75","69","","","","","","","","","","","","","","","k",""
"","S1","","html-keyboard-response","466","608040","0.0-1.0-632.0","0","0","89854","","null","","","null","70","","","","","","","","","","","","","","","",""
"","ISI","","html-keyboard-response","467","610042","0.0-1.0-633.0","0","0","89854","","22","","","68","70","d","","","","","","","","","","","","","","",""
"","S2","","html-keyboard-response","468","610295","0.0-1.0-634.0","0","0","89854","","48","","","75","70","","k","","","","","","","","","","","","","",""
"","response","","html-keyboard-response","469","610326","0.0-1.0-635.0","0","0","89854","","29","","","68","70","","","2","70","training","adjacent","FG","6","7","M.jpg","N.jpg","1","1","1","",""
"","feedback","","html-keyboard-response","470","611334","0.0-1.0-636.0-0.0","0","0","89854","","null","","","null","70","","","","","","","","","","","","","","","",""
"","ITI","","html-keyboard-response","471","612337","0.0-1.0-639.0","0","0","89854","","4","","","68","70","","","","","","","","","","","","","","","d",""
"","S1","","html-keyboard-response","472","612592","0.0-1.0-641.0","0","0","89854","","null","","","null","71","","","","","","","","","","","","","","","",""
"","ISI","","html-keyboard-response","473","614595","0.0-1.0-642.0","0","0","89854","","70","","","75","71","k","","","","","","","","","","","","","","",""
"","S2","","html-keyboard-response","474","614849","0.0-1.0-643.0","0","0","89854","","15","","","75","71","","k","","","","","","","","","","","","","",""
"","response","","html-keyboard-response","475","614853","0.0-1.0-644.0","0","0","89854","","0","","","68","71","","","2","71","training","adjacent","CD","3","4","Q.jpg","L.jpg","1","1","1","",""
"","feedback","","html-keyboard-response","476","615857","0.0-1.0-645.0-0.0","0","0","89854","","null","","","null","71","","","","","","","","","","","","","","","",""
"","ITI","","html-keyboard-response","477","616861","0.0-1.0-648.0","0","0","89854","","7","","","68","71","","","","","","","","","","","","","","","d",""
"","S1","","html-keyboard-response","478","617114","0.0-1.0-650.0","0","0","89854","","null","","","null","72","","","","","","","","","","","","","","","",""
"","ISI","","html-keyboard-response","479","619117","0.0-1.0-651.0","0","0","89854","","74","","","68","72","d","","","","","","","","","","","","","","",""
"","S2","","html-keyboard-response","480","619375","0.0-1.0-652.0","0","0","89854","","20","","","75","72","","k","","","","","","","","","","","","","",""
"","response","","html-keyboard-response","481","619452","0.0-1.0-653.0","0","0","89854","","73","","","75","72","","","2","72","training","adjacent","EF","5","6","R.jpg","M.jpg","0","1","0","",""
"","feedback","","html-keyboard-response","482","620456","0.0-1.0-654.0-0.0","0","0","89854","","null","","","null","72","","","","","","","","","","","","","","","",""
"","time_out","","html-keyboard-response","483","622460","0.0-1.0-656.0-0.0","0","0","89854","","null","","","null","72","","","","","","","","","","","","","","","",""
"","ITI","","html-keyboard-response","484","623462","0.0-1.0-657.0","0","0","89854","","33","","","68","72","","","","","","","","","","","","","","","d",""
"","S1","","html-keyboard-response","485","623716","0.0-1.0-659.0","0","0","89854","","null","","","null","73","","","","","","","","","","","","","","","",""
"","ISI","","html-keyboard-response","486","625720","0.0-1.0-660.0","0","0","89854","","29","","","75","73","k","","","","","","","","","","","","","","",""
"","S2","","html-keyboard-response","487","625988","0.0-1.0-661.0","0","0","89854","","43","","","68","73","","d","","","","","","","","","","","","","",""
"","response","","html-keyboard-response","488","626007","0.0-1.0-662.0","0","0","89854","","16","","","75","73","","","2","73","training","adjacent","FG","6","7","M.jpg","N.jpg","0","1","0","",""
"","feedback","","html-keyboard-response","489","627018","0.0-1.0-663.0-0.0","0","0","89854","","null","","","null","73","","","","","","","","","","","","","","","",""
"","time_out","","html-keyboard-response","490","629021","0.0-1.0-665.0-0.0","0","0","89854","","null","","","null","73","","","","","","","","","","","","","","","",""
"","ITI","","html-keyboard-response","491","630026","0.0-1.0-666.0","0","0","89854","","20","","","75","73","","","","","","","","","","","","","","","k",""
"","S1","","html-keyboard-response","492","630279","0.0-1.0-668.0","0","0","89854","","null","","","null","74","","","","","","","","","","","","","","","",""
"","ISI","","html-keyboard-response","493","632281","0.0-1.0-669.0","0","0","89854","","15","","","68","74","d","","","","","","","","","","","","","","",""
"","S2","","html-keyboard-response","494","632536","0.0-1.0-670.0","0","0","89854","","42","","","68","74","","d","","","","","","","","","","","","","",""
"","response","","html-keyboard-response","495","632556","0.0-1.0-671.0","0","0","89854","","17","","","75","74","","","2","74","training","adjacent","DE","4","5","L.jpg","R.jpg","0","1","0","",""
"","feedback","","html-keyboard-response","496","633573","0.0-1.0-672.0-0.0","0","0","89854","","null","","","null","74","","","","","","","","","","","","","","","",""
"","time_out","","html-keyboard-response","497","635577","0.0-1.0-674.0-0.0","0","0","89854","","null","","","null","74","","","","","","","","","","","","","","","",""
"","ITI","","html-keyboard-response","498","636581","0.0-1.0-675.0","0","0","89854","","23","","","75","74","","","","","","","","","","","","","","","k",""
"","S1","","html-keyboard-response","499","636835","0.0-1.0-677.0","0","0","89854","","null","","","null","75","","","","","","","","","","","","","","","",""
"","ISI","","html-keyboard-response","500","638838","0.0-1.0-678.0","0","0","89854","","14","","","75","75","k","","","","","","","","","","","","","","",""
"","S2","","html-keyboard-response","501","639091","0.0-1.0-679.0","0","0","89854","","39","","","68","75","","d","","","","","","","","","","","","","",""
"","response","","html-keyboard-response","502","639108","0.0-1.0-680.0","0","0","89854","","15","","","75","75","","","2","75","training","adjacent","ED","5","4","R.jpg","L.jpg","0","0","1","",""
"","feedback","","html-keyboard-response","503","640112","0.0-1.0-681.0-0.0","0","0","89854","","null","","","null","75","","","","","","","","","","","","","","","",""
"","ITI","","html-keyboard-response","504","641116","0.0-1.0-684.0","0","0","89854","","8","","","75","75","","","","","","","","","","","","","","","k",""
"","S1","","html-keyboard-response","505","641369","0.0-1.0-686.0","0","0","89854","","null","","","null","76","","","","","","","","","","","","","","","",""
"","ISI","","html-keyboard-response","506","643371","0.0-1.0-687.0","0","0","89854","","82","","","75","76","k","","","","","","","","","","","","","","",""
"","S2","","html-keyboard-response","507","643624","0.0-1.0-688.0","0","0","89854","","25","","","68","76","","d","","","","","","","","","","","","","",""
"","response","","html-keyboard-response","508","643629","0.0-1.0-689.0","0","0","89854","","3","","","75","76","","","2","76","training","adjacent","AB","1","2","O.jpg","P.jpg","0","1","0","",""
"","feedback","","html-keyboard-response","509","644633","0.0-1.0-690.0-0.0","0","0","89854","","null","","","null","76","","","","","","","","","","","","","","","",""
"","time_out","","html-keyboard-response","510","646638","0.0-1.0-692.0-0.0","0","0","89854","","null","","","null","76","","","","","","","","","","","","","","","",""
"","ITI","","html-keyboard-response","511","647642","0.0-1.0-693.0","0","0","89854","","37","","","68","76","","","","","","","","","","","","","","","d",""
"","S1","","html-keyboard-response","512","647896","0.0-1.0-695.0","0","0","89854","","null","","","null","77","","","","","","","","","","","","","","","",""
"","ISI","","html-keyboard-response","513","649899","0.0-1.0-696.0","0","0","89854","","27","","","75","77","k","","","","","","","","","","","","","","",""
"","S2","","html-keyboard-response","514","650153","0.0-1.0-697.0","0","0","89854","","55","","","68","77","","d","","","","","","","","","","","","","",""
"","response","","html-keyboard-response","515","650183","0.0-1.0-698.0","0","0","89854","","28","","","68","77","","","2","77","training","adjacent","EF","5","6","R.jpg","M.jpg","1","1","1","",""
"","feedback","","html-keyboard-response","516","651188","0.0-1.0-699.0-0.0","0","0","89854","","null","","","null","77","","","","","","","","","","","","","","","",""
"","ITI","","html-keyboard-response","517","652192","0.0-1.0-702.0","0","0","89854","","11","","","75","77","","","","","","","","","","","","","","","k",""
"","S1","","html-keyboard-response","518","652448","0.0-1.0-704.0","0","0","89854","","null","","","null","78","","","","","","","","","","","","","","","",""
"","ISI","","html-keyboard-response","519","654451","0.0-1.0-705.0","0","0","89854","","1","","","75","78","k","","","","","","","","","","","","","","",""
"","S2","","html-keyboard-response","520","654706","0.0-1.0-706.0","0","0","89854","","49","","","68","78","","d","","","","","","","","","","","","","",""
"","response","","html-keyboard-response","521","654744","0.0-1.0-707.0","0","0","89854","","35","","","75","78","","","2","78","training","adjacent","GF","7","6","N.jpg","M.jpg","0","0","1","",""
"","feedback","","html-keyboard-response","522","655747","0.0-1.0-708.0-0.0","0","0","89854","","null","","","null","78","","","","","","","","","","","","","","","",""
"","ITI","","html-keyboard-response","523","656758","0.0-1.0-711.0","0","0","89854","","6","","","75","78","","","","","","","","","","","","","","","k",""
"","S1","","html-keyboard-response","524","657017","0.0-1.0-713.0","0","0","89854","","null","","","null","79","","","","","","","","","","","","","","","",""
"","ISI","","html-keyboard-response","525","659020","0.0-1.0-714.0","0","0","89854","","61","","","75","79","k","","","","","","","","","","","","","","",""
"","S2","","html-keyboard-response","526","659273","0.0-1.0-715.0","0","0","89854","","6","","","75","79","","k","","","","","","","","","","","","","",""
"","response","","html-keyboard-response","527","659340","0.0-1.0-716.0","0","0","89854","","64","","","75","79","","","2","79","training","adjacent","BA","2","1","P.jpg","O.jpg","0","0","1","",""
"","feedback","","html-keyboard-response","528","660344","0.0-1.0-717.0-0.0","0","0","89854","","null","","","null","79","","","","","","","","","","","","","","","",""
"","ITI","","html-keyboard-response","529","661348","0.0-1.0-720.0","0","0","89854","","12","","","68","79","","","","","","","","","","","","","","","d",""
"","block_over","","html-keyboard-response","530","695151","0.0-1.0-721.0-0.0","0","0","89854","","33799","","","32","79","","","","","","","","","","","","","","","",""
"","S1","","html-keyboard-response","531","695404","0.0-1.0-722.0","0","0","89854","","null","","","null","80","","","","","","","","","","","","","","","",""
"","ISI","","html-keyboard-response","532","697410","0.0-1.0-723.0","0","0","89854","","64","","","68","80","d","","","","","","","","","","","","","","",""
"","S2","","html-keyboard-response","533","697666","0.0-1.0-724.0","0","0","89854","","4","","","68","80","","d","","","","","","","","","","","","","",""
"","response","","html-keyboard-response","534","697731","0.0-1.0-725.0","0","0","89854","","63","","","68","80","","","3","80","training","adjacent","FG","6","7","M.jpg","N.jpg","1","1","1","",""
"","feedback","","html-keyboard-response","535","698735","0.0-1.0-726.0-0.0","0","0","89854","","null","","","null","80","","","","","","","","","","","","","","","",""
"","ITI","","html-keyboard-response","536","699740","0.0-1.0-729.0","0","0","89854","","7","","","68","80","","","","","","","","","","","","","","","d",""
"","S1","","html-keyboard-response","537","699996","0.0-1.0-731.0","0","0","89854","","null","","","null","81","","","","","","","","","","","","","","","",""
"","ISI","","html-keyboard-response","538","701999","0.0-1.0-732.0","0","0","89854","","92","","","75","81","k","","","","","","","","","","","","","","",""
"","S2","","html-keyboard-response","539","702252","0.0-1.0-733.0","0","0","89854","","27","","","75","81","","k","","","","","","","","","","","","","",""
"","response","","html-keyboard-response","540","702256","0.0-1.0-734.0","0","0","89854","","1","","","68","81","","","3","81","training","adjacent","GF","7","6","N.jpg","M.jpg","1","0","0","",""
"","feedback","","html-keyboard-response","541","703259","0.0-1.0-735.0-0.0","0","0","89854","","null","","","null","81","","","","","","","","","","","","","","","",""
"","time_out","","html-keyboard-response","542","705262","0.0-1.0-737.0-0.0","0","0","89854","","null","","","null","81","","","","","","","","","","","","","","","",""
"","ITI","","html-keyboard-response","543","706266","0.0-1.0-738.0","0","0","89854","","30","","","75","81","","","","","","","","","","","","","","","k",""
"","S1","","html-keyboard-response","544","706520","0.0-1.0-740.0","0","0","89854","","null","","","null","82","","","","","","","","","","","","","","","",""
"","ISI","","html-keyboard-response","545","708523","0.0-1.0-741.0","0","0","89854","","28","","","68","82","d","","","","","","","","","","","","","","",""
"","S2","","html-keyboard-response","546","708777","0.0-1.0-742.0","0","0","89854","","46","","","75","82","","k","","","","","","","","","","","","","",""
"","response","","html-keyboard-response","547","708806","0.0-1.0-743.0","0","0","89854","","26","","","75","82","","","3","82","training","adjacent","BC","2","3","P.jpg","Q.jpg","0","1","0","",""
"","feedback","","html-keyboard-response","548","709810","0.0-1.0-744.0-0.0","0","0","89854","","null","","","null","82","","","","","","","","","","","","","","","",""
"","time_out","","html-keyboard-response","549","711815","0.0-1.0-746.0-0.0","0","0","89854","","null","","","null","82","","","","","","","","","","","","","","","",""
"","ITI","","html-keyboard-response","550","712818","0.0-1.0-747.0","0","0","89854","","38","","","68","82","","","","","","","","","","","","","","","d",""
"","S1","","html-keyboard-response","551","713071","0.0-1.0-749.0","0","0","89854","","null","","","null","83","","","","","","","","","","","","","","","",""
"","ISI","","html-keyboard-response","552","715074","0.0-1.0-750.0","0","0","89854","","27","","","75","83","k","","","","","","","","","","","","","","",""
"","S2","","html-keyboard-response","553","715327","0.0-1.0-751.0","0","0","89854","","62","","","75","83","","k","","","","","","","","","","","","","",""
"","response","","html-keyboard-response","554","715379","0.0-1.0-752.0","0","0","89854","","49","","","68","83","","","3","83","training","adjacent","ED","5","4","R.jpg","L.jpg","1","0","0","",""
"","feedback","","html-keyboard-response","555","716382","0.0-1.0-753.0-0.0","0","0","89854","","null","","","null","83","","","","","","","","","","","","","","","",""
"","time_out","","html-keyboard-response","556","718386","0.0-1.0-755.0-0.0","0","0","89854","","null","","","null","83","","","","","","","","","","","","","","","",""
"","ITI","","html-keyboard-response","557","719389","0.0-1.0-756.0","0","0","89854","","31","","","75","83","","","","","","","","","","","","","","","k",""
"","S1","","html-keyboard-response","558","719643","0.0-1.0-758.0","0","0","89854","","null","","","null","84","","","","","","","","","","","","","","","",""
"","ISI","","html-keyboard-response","559","721649","0.0-1.0-759.0","0","0","89854","","18","","","68","84","d","","","","","","","","","","","","","","",""
"","S2","","html-keyboard-response","560","721903","0.0-1.0-760.0","0","0","89854","","41","","","75","84","","k","","","","","","","","","","","","","",""
"","response","","html-keyboard-response","561","721927","0.0-1.0-761.0","0","0","89854","","21","","","75","84","","","3","84","training","adjacent","DE","4","5","L.jpg","R.jpg","0","1","0","",""
"","feedback","","html-keyboard-response","562","722931","0.0-1.0-762.0-0.0","0","0","89854","","null","","","null","84","","","","","","","","","","","","","","","",""
"","time_out","","html-keyboard-response","563","724934","0.0-1.0-764.0-0.0","0","0","89854","","null","","","null","84","","","","","","","","","","","","","","","",""
"","ITI","","html-keyboard-response","564","725937","0.0-1.0-765.0","0","0","89854","","34","","","68","84","","","","","","","","","","","","","","","d",""
"","S1","","html-keyboard-response","565","726191","0.0-1.0-767.0","0","0","89854","","null","","","null","85","","","","","","","","","","","","","","","",""
"","ISI","","html-keyboard-response","566","728193","0.0-1.0-768.0","0","0","89854","","29","","","75","85","k","","","","","","","","","","","","","","",""
"","S2","","html-keyboard-response","567","728447","0.0-1.0-769.0","0","0","89854","","54","","","75","85","","k","","","","","","","","","","","","","",""
"","response","","html-keyboard-response","568","728480","0.0-1.0-770.0","0","0","89854","","31","","","68","85","","","3","85","training","adjacent","BA","2","1","P.jpg","O.jpg","1","0","0","",""
"","feedback","","html-keyboard-response","569","729484","0.0-1.0-771.0-0.0","0","0","89854","","null","","","null","85","","","","","","","","","","","","","","","",""
"","time_out","","html-keyboard-response","570","731488","0.0-1.0-773.0-0.0","0","0","89854","","null","","","null","85","","","","","","","","","","","","","","","",""
"","ITI","","html-keyboard-response","571","732493","0.0-1.0-774.0","0","0","89854","","31","","","75","85","","","","","","","","","","","","","","","k",""
"","S1","","html-keyboard-response","572","732746","0.0-1.0-776.0","0","0","89854","","null","","","null","86","","","","","","","","","","","","","","","",""
"","ISI","","html-keyboard-response","573","734749","0.0-1.0-777.0","0","0","89854","","26","","","68","86","d","","","","","","","","","","","","","","",""
"","S2","","html-keyboard-response","574","735003","0.0-1.0-778.0","0","0","89854","","44","","","75","86","","k","","","","","","","","","","","","","",""
"","response","","html-keyboard-response","575","735036","0.0-1.0-779.0","0","0","89854","","31","","","75","86","","","3","86","training","adjacent","FE","6","5","M.jpg","R.jpg","0","0","1","",""
"","feedback","","html-keyboard-response","576","736040","0.0-1.0-780.0-0.0","0","0","89854","","null","","","null","86","","","","","","","","","","","","","","","",""
"","ITI","","html-keyboard-response","577","737043","0.0-1.0-783.0","0","0","89854","","2","","","75","86","","","","","","","","","","","","","","","k",""
"","S1","","html-keyboard-response","578","737297","0.0-1.0-785.0","0","0","89854","","null","","","null","87","","","","","","","","","","","","","","","",""
"","ISI","","html-keyboard-response","579","739302","0.0-1.0-786.0","0","0","89854","","77","","","75","87","k","","","","","","","","","","","","","","",""
"","S2","","html-keyboard-response","580","739556","0.0-1.0-787.0","0","0","89854","","24","","","75","87","","k","","","","","","","","","","","","","",""
"","response","","html-keyboard-response","581","739635","0.0-1.0-788.0","0","0","89854","","74","","","75","87","","","3","87","training","adjacent","BA","2","1","P.jpg","O.jpg","0","0","1","",""
"","feedback","","html-keyboard-response","582","740639","0.0-1.0-789.0-0.0","0","0","89854","","null","","","null","87","","","","","","","","","","","","","","","",""
"","ITI","","html-keyboard-response","583","741644","0.0-1.0-792.0","0","0","89854","","4","","","75","87","","","","","","","","","","","","","","","k",""
"","S1","","html-keyboard-response","584","741898","0.0-1.0-794.0","0","0","89854","","null","","","null","88","","","","","","","","","","","","","","","",""
"","ISI","","html-keyboard-response","585","743903","0.0-1.0-795.0","0","0","89854","","13","","","68","88","d","","","","","","","","","","","","","","",""
