"success","ttype","start_time","trial_type","trial_index","time_elapsed","internal_node_id","warning","missed_checkup","PID","view_history","rt","responses","repeat_instructions","key_press","index","keypress_isi","keypress_S2","block","trial_num","phase","group_type","pair_type","S1_stim","S2_stim","S1_img","S2_img","S1_chosen","S1_higher","accuracy","keypress_iti","total_bonus_tally"
"true","full_screen","d03072023hr2112","fullscreen","0","12100","0.0-0.0","0","0","91212","","","","","","","","","","","","","","","","","","","","","",""
"","instructions","","instructions","1","125972","0.0-1.0-0.0-0.0","0","0","91212","[{""page_index"":0,""viewing_time"":2945},{""page_index"":1,""viewing_time"":34184},{""page_index"":2,""viewing_time"":63663},{""page_index"":1,""viewing_time"":7481},{""page_index"":2,""viewing_time"":2677},{""page_index"":1,""viewing_time"":1050},{""page_index"":2,""viewing_time"":536},{""page_index"":3,""viewing_time"":1329}]","113868","","","","","","","","","","","","","","","","","","","",""
"","comprehension_check","","survey-multi-choice","2","142242","0.0-1.0-0.0-1.0","0","0","91212","","16260","{""Q0"":""True"",""Q1"":""D"",""Q2"":""Once the second image appears and while the screen 'MAKE A CHOICE' is shown"",""Q3"":""Green mark"",""Q4"":""either D or K""}","0","","","","","","","","","","","","","","","","","",""
"","start_exp","","html-keyboard-response","3","145594","0.0-1.0-1.0","0","0","91212","","3348","","","32","","","","","","","","","","","","","","","","",""
"","S1","","html-keyboard-response","4","145846","0.0-1.0-2.0","0","0","91212","","null","","","null","0","","","","","","","","","","","","","","","",""
"","ISI","","html-keyboard-response","5","146849","0.0-1.0-3.0","0","0","91212","","null","","","null","0","NaN","","","","","","","","","","","","","","",""
"","S2","","html-keyboard-response","6","147138","0.0-1.0-4.0","0","0","91212","","null","","","null","0","","NaN","","","","","","","","","","","","","",""
"","response","","html-keyboard-response","7","147875","0.0-1.0-5.0-0.0","0","0","91212","","732","","","75","0","","","1","0","training","adjacent","BA","2","1","O.jpg","R.jpg","0","0","1","",""
"","feedback","","html-keyboard-response","8","148879","0.0-1.0-6.0-0.0","0","0","91212","","null","","","null","0","","","","","","","","","","","","","","","",""
"","ITI","","html-keyboard-response","9","149883","0.0-1.0-9.0","0","0","91212","","null","","","null","0","","","","","","","","","","","","","","","NaN",""
"","S1","","html-keyboard-response","10","150136","0.0-1.0-11.0","0","0","91212","","null","","","null","1","","","","","","","","","","","","","","","",""
"","ISI","","html-keyboard-response","11","151159","0.0-1.0-12.0","0","0","91212","","null","","","null","1","NaN","","","","","","","","","","","","","","",""
"","S2","","html-keyboard-response","12","151412","0.0-1.0-13.0","0","0","91212","","null","","","null","1","","NaN","","","","","","","","","","","","","",""
"","response","","html-keyboard-response","13","151985","0.0-1.0-14.0-0.0","0","0","91212","","571","","","75","1","","","1","1","training","adjacent","CD","3","4","L.jpg","Q.jpg","0","1","0","",""
"","feedback","","html-keyboard-response","14","152990","0.0-1.0-15.0-0.0","0","0","91212","","null","","","null","1","","","","","","","","","","","","","","","",""
"","time_out","","html-keyboard-response","15","154995","0.0-1.0-17.0-0.0","0","0","91212","","null","","","null","1","","","","","","","","","","","","","","","",""
"","ITI","","html-keyboard-response","16","155999","0.0-1.0-18.0","0","0","91212","","null","","","null","1","","","","","","","","","","","","","","","NaN",""
"","S1","","html-keyboard-response","17","156252","0.0-1.0-20.0","0","0","91212","","null","","","null","2","","","","","","","","","","","","","","","",""
"","ISI","","html-keyboard-response","18","157257","0.0-1.0-21.0","0","0","91212","","null","","","null","2","NaN","","","","","","","","","","","","","","",""
"","S2","","html-keyboard-response","19","157511","0.0-1.0-22.0","0","0","91212","","null","","","null","2","","NaN","","","","","","","","","","","","","",""
"","response","","html-keyboard-response","20","158010","0.0-1.0-23.0-0.0","0","0","91212","","498","","","68","2","","","1","2","training","adjacent","GF","7","6","N.jpg","M.jpg","1","0","0","",""
"","feedback","","html-keyboard-response","21","159013","0.0-1.0-24.0-0.0","0","0","91212","","null","","","null","2","","","","","","","","","","","","","","","",""
"","time_out","","html-keyboard-response","22","161015","0.0-1.0-26.0-0.0","0","0","91212","","null","","","null","2","","","","","","","","","","","","","","","",""
"","ITI","","html-keyboard-response","23","162017","0.0-1.0-27.0","0","0","91212","","null","","","null","2","","","","","","","","","","","","","","","NaN",""
"","S1","","html-keyboard-response","24","162269","0.0-1.0-29.0","0","0","91212","","null","","","null","3","","","","","","","","","","","","","","","",""
"","ISI","","html-keyboard-response","25","163273","0.0-1.0-30.0","0","0","91212","","null","","","null","3","NaN","","","","","","","","","","","","","","",""
"","S2","","html-keyboard-response","26","163526","0.0-1.0-31.0","0","0","91212","","null","","","null","3","","NaN","","","","","","","","","","","","","",""
"","response","","html-keyboard-response","27","164108","0.0-1.0-32.0-0.0","0","0","91212","","580","","","75","3","","","1","3","training","adjacent","CB","3","2","L.jpg","O.jpg","0","0","1","",""
"","feedback","","html-keyboard-response","28","165112","0.0-1.0-33.0-0.0","0","0","91212","","null","","","null","3","","","","","","","","","","","","","","","",""
"","ITI","","html-keyboard-response","29","166120","0.0-1.0-36.0","0","0","91212","","null","","","null","3","","","","","","","","","","","","","","","NaN",""
"","S1","","html-keyboard-response","30","166375","0.0-1.0-38.0","0","0","91212","","null","","","null","4","","","","","","","","","","","","","","","",""
"","ISI","","html-keyboard-response","31","167377","0.0-1.0-39.0","0","0","91212","","null","","","null","4","NaN","","","","","","","","","","","","","","",""
"","S2","","html-keyboard-response","32","167630","0.0-1.0-40.0","0","0","91212","","null","","","null","4","","NaN","","","","","","","","","","","","","",""
"","response","","html-keyboard-response","33","167946","0.0-1.0-41.0-0.0","0","0","91212","","315","","","75","4","","","1","4","training","adjacent","DC","4","3","Q.jpg","L.jpg","0","0","1","",""
"","feedback","","html-keyboard-response","34","168969","0.0-1.0-42.0-0.0","0","0","91212","","null","","","null","4","","","","","","","","","","","","","","","",""
"","ITI","","html-keyboard-response","35","169977","0.0-1.0-45.0","0","0","91212","","null","","","null","4","","","","","","","","","","","","","","","NaN",""
"","S1","","html-keyboard-response","36","170244","0.0-1.0-47.0","0","0","91212","","null","","","null","5","","","","","","","","","","","","","","","",""
"","ISI","","html-keyboard-response","37","171246","0.0-1.0-48.0","0","0","91212","","null","","","null","5","NaN","","","","","","","","","","","","","","",""
"","S2","","html-keyboard-response","38","171499","0.0-1.0-49.0","0","0","91212","","null","","","null","5","","NaN","","","","","","","","","","","","","",""
"","response","","html-keyboard-response","39","171946","0.0-1.0-50.0-0.0","0","0","91212","","445","","","75","5","","","1","5","training","adjacent","AB","1","2","R.jpg","O.jpg","0","1","0","",""
"","feedback","","html-keyboard-response","40","172963","0.0-1.0-51.0-0.0","0","0","91212","","null","","","null","5","","","","","","","","","","","","","","","",""
"","time_out","","html-keyboard-response","41","174969","0.0-1.0-53.0-0.0","0","0","91212","","null","","","null","5","","","","","","","","","","","","","","","",""
"","ITI","","html-keyboard-response","42","175980","0.0-1.0-54.0","0","0","91212","","null","","","null","5","","","","","","","","","","","","","","","NaN",""
"","S1","","html-keyboard-response","43","176233","0.0-1.0-56.0","0","0","91212","","null","","","null","6","","","","","","","","","","","","","","","",""
"","ISI","","html-keyboard-response","44","177241","0.0-1.0-57.0","0","0","91212","","null","","","null","6","NaN","","","","","","","","","","","","","","",""
"","S2","","html-keyboard-response","45","177495","0.0-1.0-58.0","0","0","91212","","null","","","null","6","","NaN","","","","","","","","","","","","","",""
"","response","","html-keyboard-response","46","177898","0.0-1.0-59.0-0.0","0","0","91212","","401","","","75","6","","","1","6","training","adjacent","CB","3","2","L.jpg","O.jpg","0","0","1","",""
"","feedback","","html-keyboard-response","47","178903","0.0-1.0-60.0-0.0","0","0","91212","","null","","","null","6","","","","","","","","","","","","","","","",""
"","ITI","","html-keyboard-response","48","179909","0.0-1.0-63.0","0","0","91212","","null","","","null","6","","","","","","","","","","","","","","","NaN",""
"","S1","","html-keyboard-response","49","180163","0.0-1.0-65.0","0","0","91212","","null","","","null","7","","","","","","","","","","","","","","","",""
"","ISI","","html-keyboard-response","50","181166","0.0-1.0-66.0","0","0","91212","","null","","","null","7","NaN","","","","","","","","","","","","","","",""
"","S2","","html-keyboard-response","51","181419","0.0-1.0-67.0","0","0","91212","","null","","","null","7","","NaN","","","","","","","","","","","","","",""
"","response","","html-keyboard-response","52","181873","0.0-1.0-68.0-0.0","0","0","91212","","452","","","75","7","","","1","7","training","adjacent","DC","4","3","Q.jpg","L.jpg","0","0","1","",""
"","feedback","","html-keyboard-response","53","182876","0.0-1.0-69.0-0.0","0","0","91212","","null","","","null","7","","","","","","","","","","","","","","","",""
"","ITI","","html-keyboard-response","54","183878","0.0-1.0-72.0","0","0","91212","","null","","","null","7","","","","","","","","","","","","","","","NaN",""
"","S1","","html-keyboard-response","55","184131","0.0-1.0-74.0","0","0","91212","","null","","","null","8","","","","","","","","","","","","","","","",""
"","ISI","","html-keyboard-response","56","185134","0.0-1.0-75.0","0","0","91212","","null","","","null","8","NaN","","","","","","","","","","","","","","",""
"","S2","","html-keyboard-response","57","185394","0.0-1.0-76.0","0","0","91212","","null","","","null","8","","NaN","","","","","","","","","","","","","",""
"","response","","html-keyboard-response","58","185714","0.0-1.0-77.0-0.0","0","0","91212","","317","","","68","8","","","1","8","training","adjacent","CD","3","4","L.jpg","Q.jpg","1","1","1","",""
"","feedback","","html-keyboard-response","59","186730","0.0-1.0-78.0-0.0","0","0","91212","","null","","","null","8","","","","","","","","","","","","","","","",""
"","ITI","","html-keyboard-response","60","187734","0.0-1.0-81.0","0","0","91212","","null","","","null","8","","","","","","","","","","","","","","","NaN",""
"","S1","","html-keyboard-response","61","187996","0.0-1.0-83.0","0","0","91212","","null","","","null","9","","","","","","","","","","","","","","","",""
"","ISI","","html-keyboard-response","62","188999","0.0-1.0-84.0","0","0","91212","","null","","","null","9","NaN","","","","","","","","","","","","","","",""
"","S2","","html-keyboard-response","63","189253","0.0-1.0-85.0","0","0","91212","","null","","","null","9","","NaN","","","","","","","","","","","","","",""
"","response","","html-keyboard-response","64","189513","0.0-1.0-86.0-0.0","0","0","91212","","258","","","75","9","","","1","9","training","adjacent","AB","1","2","R.jpg","O.jpg","0","1","0","",""
"","feedback","","html-keyboard-response","65","190515","0.0-1.0-87.0-0.0","0","0","91212","","null","","","null","9","","","","","","","","","","","","","","","",""
"","time_out","","html-keyboard-response","66","192518","0.0-1.0-89.0-0.0","0","0","91212","","null","","","null","9","","","","","","","","","","","","","","","",""
"","ITI","","html-keyboard-response","67","193522","0.0-1.0-90.0","0","0","91212","","null","","","null","9","","","","","","","","","","","","","","","NaN",""
"","S1","","html-keyboard-response","68","193775","0.0-1.0-92.0","0","0","91212","","null","","","null","10","","","","","","","","","","","","","","","",""
"","ISI","","html-keyboard-response","69","194778","0.0-1.0-93.0","0","0","91212","","null","","","null","10","NaN","","","","","","","","","","","","","","",""
"","S2","","html-keyboard-response","70","195031","0.0-1.0-94.0","0","0","91212","","null","","","null","10","","NaN","","","","","","","","","","","","","",""
"","response","","html-keyboard-response","71","195409","0.0-1.0-95.0-0.0","0","0","91212","","376","","","75","10","","","1","10","training","adjacent","FG","6","7","M.jpg","N.jpg","0","1","0","",""
"","feedback","","html-keyboard-response","72","196411","0.0-1.0-96.0-0.0","0","0","91212","","null","","","null","10","","","","","","","","","","","","","","","",""
"","time_out","","html-keyboard-response","73","198414","0.0-1.0-98.0-0.0","0","0","91212","","null","","","null","10","","","","","","","","","","","","","","","",""
"","ITI","","html-keyboard-response","74","199419","0.0-1.0-99.0","0","0","91212","","null","","","null","10","","","","","","","","","","","","","","","NaN",""
"","S1","","html-keyboard-response","75","199685","0.0-1.0-101.0","0","0","91212","","null","","","null","11","","","","","","","","","","","","","","","",""
"","ISI","","html-keyboard-response","76","200690","0.0-1.0-102.0","0","0","91212","","null","","","null","11","NaN","","","","","","","","","","","","","","",""
"","S2","","html-keyboard-response","77","200944","0.0-1.0-103.0","0","0","91212","","null","","","null","11","","NaN","","","","","","","","","","","","","",""
"","response","","html-keyboard-response","78","201817","0.0-1.0-104.0-0.0","0","0","91212","","872","","","68","11","","","1","11","training","adjacent","ED","5","4","P.jpg","Q.jpg","1","0","0","",""
"","feedback","","html-keyboard-response","79","202819","0.0-1.0-105.0-0.0","0","0","91212","","null","","","null","11","","","","","","","","","","","","","","","",""
"","time_out","","html-keyboard-response","80","204824","0.0-1.0-107.0-0.0","0","0","91212","","null","","","null","11","","","","","","","","","","","","","","","",""
"","ITI","","html-keyboard-response","81","205828","0.0-1.0-108.0","0","0","91212","","null","","","null","11","","","","","","","","","","","","","","","NaN",""
"","S1","","html-keyboard-response","82","206085","0.0-1.0-110.0","0","0","91212","","null","","","null","12","","","","","","","","","","","","","","","",""
"","ISI","","html-keyboard-response","83","207090","0.0-1.0-111.0","0","0","91212","","null","","","null","12","NaN","","","","","","","","","","","","","","",""
"","S2","","html-keyboard-response","84","207343","0.0-1.0-112.0","0","0","91212","","null","","","null","12","","NaN","","","","","","","","","","","","","",""
"","response","","html-keyboard-response","85","207761","0.0-1.0-113.0-0.0","0","0","91212","","417","","","68","12","","","1","12","training","adjacent","ED","5","4","P.jpg","Q.jpg","1","0","0","",""
"","feedback","","html-keyboard-response","86","208765","0.0-1.0-114.0-0.0","0","0","91212","","null","","","null","12","","","","","","","","","","","","","","","",""
"","time_out","","html-keyboard-response","87","210767","0.0-1.0-116.0-0.0","0","0","91212","","null","","","null","12","","","","","","","","","","","","","","","",""
"","ITI","","html-keyboard-response","88","211769","0.0-1.0-117.0","0","0","91212","","null","","","null","12","","","","","","","","","","","","","","","NaN",""
"","S1","","html-keyboard-response","89","212024","0.0-1.0-119.0","0","0","91212","","null","","","null","13","","","","","","","","","","","","","","","",""
"","ISI","","html-keyboard-response","90","213036","0.0-1.0-120.0","0","0","91212","","null","","","null","13","NaN","","","","","","","","","","","","","","",""
"","S2","","html-keyboard-response","91","213296","0.0-1.0-121.0","0","0","91212","","null","","","null","13","","NaN","","","","","","","","","","","","","",""
"","response","","html-keyboard-response","92","213586","0.0-1.0-122.0-0.0","0","0","91212","","288","","","75","13","","","1","13","training","adjacent","DE","4","5","Q.jpg","P.jpg","0","1","0","",""
"","feedback","","html-keyboard-response","93","214589","0.0-1.0-123.0-0.0","0","0","91212","","null","","","null","13","","","","","","","","","","","","","","","",""
"","time_out","","html-keyboard-response","94","216592","0.0-1.0-125.0-0.0","0","0","91212","","null","","","null","13","","","","","","","","","","","","","","","",""
"","ITI","","html-keyboard-response","95","217595","0.0-1.0-126.0","0","0","91212","","null","","","null","13","","","","","","","","","","","","","","","NaN",""
"","S1","","html-keyboard-response","96","217849","0.0-1.0-128.0","0","0","91212","","null","","","null","14","","","","","","","","","","","","","","","",""
"","ISI","","html-keyboard-response","97","218855","0.0-1.0-129.0","0","0","91212","","null","","","null","14","NaN","","","","","","","","","","","","","","",""
"","S2","","html-keyboard-response","98","219110","0.0-1.0-130.0","0","0","91212","","null","","","null","14","","NaN","","","","","","","","","","","","","",""
"","response","","html-keyboard-response","99","219529","0.0-1.0-131.0-0.0","0","0","91212","","416","","","75","14","","","1","14","training","adjacent","BA","2","1","O.jpg","R.jpg","0","0","1","",""
"","feedback","","html-keyboard-response","100","220532","0.0-1.0-132.0-0.0","0","0","91212","","null","","","null","14","","","","","","","","","","","","","","","",""
"","ITI","","html-keyboard-response","101","221541","0.0-1.0-135.0","0","0","91212","","null","","","null","14","","","","","","","","","","","","","","","NaN",""
"","S1","","html-keyboard-response","102","221793","0.0-1.0-137.0","0","0","91212","","null","","","null","15","","","","","","","","","","","","","","","",""
"","ISI","","html-keyboard-response","103","222796","0.0-1.0-138.0","0","0","91212","","null","","","null","15","NaN","","","","","","","","","","","","","","",""
"","S2","","html-keyboard-response","104","223048","0.0-1.0-139.0","0","0","91212","","null","","","null","15","","NaN","","","","","","","","","","","","","",""
"","response","","html-keyboard-response","105","223322","0.0-1.0-140.0-0.0","0","0","91212","","270","","","68","15","","","1","15","training","adjacent","GF","7","6","N.jpg","M.jpg","1","0","0","",""
"","feedback","","html-keyboard-response","106","224324","0.0-1.0-141.0-0.0","0","0","91212","","null","","","null","15","","","","","","","","","","","","","","","",""
"","time_out","","html-keyboard-response","107","226328","0.0-1.0-143.0-0.0","0","0","91212","","null","","","null","15","","","","","","","","","","","","","","","",""
"","ITI","","html-keyboard-response","108","227331","0.0-1.0-144.0","0","0","91212","","null","","","null","15","","","","","","","","","","","","","","","NaN",""
"","S1","","html-keyboard-response","109","227593","0.0-1.0-146.0","0","0","91212","","null","","","null","16","","","","","","","","","","","","","","","",""
"","ISI","","html-keyboard-response","110","228595","0.0-1.0-147.0","0","0","91212","","null","","","null","16","NaN","","","","","","","","","","","","","","",""
"","S2","","html-keyboard-response","111","228848","0.0-1.0-148.0","0","0","91212","","null","","","null","16","","NaN","","","","","","","","","","","","","",""
"","response","","html-keyboard-response","112","229162","0.0-1.0-149.0-0.0","0","0","91212","","312","","","75","16","","","1","16","training","adjacent","ED","5","4","P.jpg","Q.jpg","0","0","1","",""
"","feedback","","html-keyboard-response","113","230166","0.0-1.0-150.0-0.0","0","0","91212","","null","","","null","16","","","","","","","","","","","","","","","",""
"","ITI","","html-keyboard-response","114","231167","0.0-1.0-153.0","0","0","91212","","null","","","null","16","","","","","","","","","","","","","","","NaN",""
"","S1","","html-keyboard-response","115","231422","0.0-1.0-155.0","0","0","91212","","null","","","null","17","","","","","","","","","","","","","","","",""
"","ISI","","html-keyboard-response","116","232427","0.0-1.0-156.0","0","0","91212","","null","","","null","17","NaN","","","","","","","","","","","","","","",""
"","S2","","html-keyboard-response","117","232692","0.0-1.0-157.0","0","0","91212","","null","","","null","17","","NaN","","","","","","","","","","","","","",""
"","response","","html-keyboard-response","118","232866","0.0-1.0-158.0-0.0","0","0","91212","","171","","","75","17","","","1","17","training","adjacent","ED","5","4","P.jpg","Q.jpg","0","0","1","",""
"","feedback","","html-keyboard-response","119","233870","0.0-1.0-159.0-0.0","0","0","91212","","null","","","null","17","","","","","","","","","","","","","","","",""
"","ITI","","html-keyboard-response","120","234873","0.0-1.0-162.0","0","0","91212","","null","","","null","17","","","","","","","","","","","","","","","NaN",""
"","S1","","html-keyboard-response","121","235126","0.0-1.0-164.0","0","0","91212","","null","","","null","18","","","","","","","","","","","","","","","",""
"","ISI","","html-keyboard-response","122","236130","0.0-1.0-165.0","0","0","91212","","null","","","null","18","NaN","","","","","","","","","","","","","","",""
"","S2","","html-keyboard-response","123","236382","0.0-1.0-166.0","0","0","91212","","null","","","null","18","","NaN","","","","","","","","","","","","","",""
"","response","","html-keyboard-response","124","236610","0.0-1.0-167.0-0.0","0","0","91212","","225","","","68","18","","","1","18","training","adjacent","FE","6","5","M.jpg","P.jpg","1","0","0","",""
"","feedback","","html-keyboard-response","125","237612","0.0-1.0-168.0-0.0","0","0","91212","","null","","","null","18","","","","","","","","","","","","","","","",""
"","time_out","","html-keyboard-response","126","239614","0.0-1.0-170.0-0.0","0","0","91212","","null","","","null","18","","","","","","","","","","","","","","","",""
"","ITI","","html-keyboard-response","127","240621","0.0-1.0-171.0","0","0","91212","","null","","","null","18","","","","","","","","","","","","","","","NaN",""
"","S1","","html-keyboard-response","128","240874","0.0-1.0-173.0","0","0","91212","","null","","","null","19","","","","","","","","","","","","","","","",""
"","ISI","","html-keyboard-response","129","241877","0.0-1.0-174.0","0","0","91212","","null","","","null","19","NaN","","","","","","","","","","","","","","",""
"","S2","","html-keyboard-response","130","242130","0.0-1.0-175.0","0","0","91212","","null","","","null","19","","NaN","","","","","","","","","","","","","",""
"","response","","html-keyboard-response","131","242923","0.0-1.0-176.0-0.0","0","0","91212","","791","","","75","19","","","1","19","training","adjacent","BA","2","1","O.jpg","R.jpg","0","0","1","",""
"","feedback","","html-keyboard-response","132","243925","0.0-1.0-177.0-0.0","0","0","91212","","null","","","null","19","","","","","","","","","","","","","","","",""
"","ITI","","html-keyboard-response","133","244928","0.0-1.0-180.0","0","0","91212","","null","","","null","19","","","","","","","","","","","","","","","NaN",""
"","S1","","html-keyboard-response","134","245181","0.0-1.0-182.0","0","0","91212","","null","","","null","20","","","","","","","","","","","","","","","",""
"","ISI","","html-keyboard-response","135","246183","0.0-1.0-183.0","0","0","91212","","null","","","null","20","NaN","","","","","","","","","","","","","","",""
"","S2","","html-keyboard-response","136","246440","0.0-1.0-184.0","0","0","91212","","null","","","null","20","","NaN","","","","","","","","","","","","","",""
"","response","","html-keyboard-response","137","246724","0.0-1.0-185.0-0.0","0","0","91212","","278","","","68","20","","","1","20","training","adjacent","CD","3","4","L.jpg","Q.jpg","1","1","1","",""
"","feedback","","html-keyboard-response","138","247726","0.0-1.0-186.0-0.0","0","0","91212","","null","","","null","20","","","","","","","","","","","","","","","",""
"","ITI","","html-keyboard-response","139","248729","0.0-1.0-189.0","0","0","91212","","null","","","null","20","","","","","","","","","","","","","","","NaN",""
"","S1","","html-keyboard-response","140","248984","0.0-1.0-191.0","0","0","91212","","null","","","null","21","","","","","","","","","","","","","","","",""
"","ISI","","html-keyboard-response","141","249991","0.0-1.0-192.0","0","0","91212","","null","","","null","21","NaN","","","","","","","","","","","","","","",""
"","S2","","html-keyboard-response","142","250244","0.0-1.0-193.0","0","0","91212","","null","","","null","21","","NaN","","","","","","","","","","","","","",""
"","response","","html-keyboard-response","143","250602","0.0-1.0-194.0-0.0","0","0","91212","","356","","","68","21","","","1","21","training","adjacent","DE","4","5","Q.jpg","P.jpg","1","1","1","",""
"","feedback","","html-keyboard-response","144","251613","0.0-1.0-195.0-0.0","0","0","91212","","null","","","null","21","","","","","","","","","","","","","","","",""
"","ITI","","html-keyboard-response","145","252614","0.0-1.0-198.0","0","0","91212","","null","","","null","21","","","","","","","","","","","","","","","NaN",""
"","S1","","html-keyboard-response","146","252867","0.0-1.0-200.0","0","0","91212","","null","","","null","22","","","","","","","","","","","","","","","",""
"","ISI","","html-keyboard-response","147","253869","0.0-1.0-201.0","0","0","91212","","null","","","null","22","NaN","","","","","","","","","","","","","","",""
"","S2","","html-keyboard-response","148","254123","0.0-1.0-202.0","0","0","91212","","null","","","null","22","","NaN","","","","","","","","","","","","","",""
"","response","","html-keyboard-response","149","254585","0.0-1.0-203.0-0.0","0","0","91212","","461","","","75","22","","","1","22","training","adjacent","EF","5","6","P.jpg","M.jpg","0","1","0","",""
"","feedback","","html-keyboard-response","150","255590","0.0-1.0-204.0-0.0","0","0","91212","","null","","","null","22","","","","","","","","","","","","","","","",""
"","time_out","","html-keyboard-response","151","257593","0.0-1.0-206.0-0.0","0","0","91212","","null","","","null","22","","","","","","","","","","","","","","","",""
"","ITI","","html-keyboard-response","152","258597","0.0-1.0-207.0","0","0","91212","","null","","","null","22","","","","","","","","","","","","","","","NaN",""
"","S1","","html-keyboard-response","153","258852","0.0-1.0-209.0","0","0","91212","","null","","","null","23","","","","","","","","","","","","","","","",""
"","ISI","","html-keyboard-response","154","259857","0.0-1.0-210.0","0","0","91212","","null","","","null","23","NaN","","","","","","","","","","","","","","",""
"","S2","","html-keyboard-response","155","260110","0.0-1.0-211.0","0","0","91212","","null","","","null","23","","NaN","","","","","","","","","","","","","",""
"","response","","html-keyboard-response","156","260513","0.0-1.0-212.0-0.0","0","0","91212","","400","","","68","23","","","1","23","training","adjacent","FG","6","7","M.jpg","N.jpg","1","1","1","",""
"","feedback","","html-keyboard-response","157","261517","0.0-1.0-213.0-0.0","0","0","91212","","null","","","null","23","","","","","","","","","","","","","","","",""
"","ITI","","html-keyboard-response","158","262521","0.0-1.0-216.0","0","0","91212","","null","","","null","23","","","","","","","","","","","","","","","NaN",""
"","S1","","html-keyboard-response","159","262774","0.0-1.0-218.0","0","0","91212","","null","","","null","24","","","","","","","","","","","","","","","",""
"","ISI","","html-keyboard-response","160","263777","0.0-1.0-219.0","0","0","91212","","null","","","null","24","NaN","","","","","","","","","","","","","","",""
"","S2","","html-keyboard-response","161","264030","0.0-1.0-220.0","0","0","91212","","null","","","null","24","","NaN","","","","","","","","","","","","","",""
"","response","","html-keyboard-response","162","265506","0.0-1.0-221.0-0.0","0","0","91212","","1474","","","75","24","","","1","24","training","adjacent","FE","6","5","M.jpg","P.jpg","0","0","1","",""
"","feedback","","html-keyboard-response","163","266508","0.0-1.0-222.0-0.0","0","0","91212","","null","","","null","24","","","","","","","","","","","","","","","",""
"","ITI","","html-keyboard-response","164","267517","0.0-1.0-225.0","0","0","91212","","null","","","null","24","","","","","","","","","","","","","","","NaN",""
"","S1","","html-keyboard-response","165","267774","0.0-1.0-227.0","0","0","91212","","null","","","null","25","","","","","","","","","","","","","","","",""
"","ISI","","html-keyboard-response","166","268777","0.0-1.0-228.0","0","0","91212","","null","","","null","25","NaN","","","","","","","","","","","","","","",""
"","S2","","html-keyboard-response","167","269030","0.0-1.0-229.0","0","0","91212","","null","","","null","25","","NaN","","","","","","","","","","","","","",""
"","response","","html-keyboard-response","168","269711","0.0-1.0-230.0-0.0","0","0","91212","","679","","","68","25","","","1","25","training","adjacent","AB","1","2","R.jpg","O.jpg","1","1","1","",""
"","feedback","","html-keyboard-response","169","270726","0.0-1.0-231.0-0.0","0","0","91212","","null","","","null","25","","","","","","","","","","","","","","","",""
"","ITI","","html-keyboard-response","170","271730","0.0-1.0-234.0","0","0","91212","","null","","","null","25","","","","","","","","","","","","","","","NaN",""
"","S1","","html-keyboard-response","171","271993","0.0-1.0-236.0","0","0","91212","","null","","","null","26","","","","","","","","","","","","","","","",""
"","ISI","","html-keyboard-response","172","272996","0.0-1.0-237.0","0","0","91212","","null","","","null","26","NaN","","","","","","","","","","","","","","",""
"","S2","","html-keyboard-response","173","273249","0.0-1.0-238.0","0","0","91212","","null","","","null","26","","NaN","","","","","","","","","","","","","",""
"","response","","html-keyboard-response","174","273592","0.0-1.0-239.0-0.0","0","0","91212","","342","","","68","26","","","1","26","training","adjacent","CB","3","2","L.jpg","O.jpg","1","0","0","",""
"","feedback","","html-keyboard-response","175","274594","0.0-1.0-240.0-0.0","0","0","91212","","null","","","null","26","","","","","","","","","","","","","","","",""
"","time_out","","html-keyboard-response","176","276598","0.0-1.0-242.0-0.0","0","0","91212","","null","","","null","26","","","","","","","","","","","","","","","",""
"","ITI","","html-keyboard-response","177","277601","0.0-1.0-243.0","0","0","91212","","null","","","null","26","","","","","","","","","","","","","","","NaN",""
"","S1","","html-keyboard-response","178","277857","0.0-1.0-245.0","0","0","91212","","null","","","null","27","","","","","","","","","","","","","","","",""
"","ISI","","html-keyboard-response","179","278859","0.0-1.0-246.0","0","0","91212","","null","","","null","27","NaN","","","","","","","","","","","","","","",""
"","S2","","html-keyboard-response","180","279112","0.0-1.0-247.0","0","0","91212","","null","","","null","27","","NaN","","","","","","","","","","","","","",""
"","response","","html-keyboard-response","181","279354","0.0-1.0-248.0-0.0","0","0","91212","","238","","","75","27","","","1","27","training","adjacent","BC","2","3","O.jpg","L.jpg","0","1","0","",""
"","feedback","","html-keyboard-response","182","280362","0.0-1.0-249.0-0.0","0","0","91212","","null","","","null","27","","","","","","","","","","","","","","","",""
"","time_out","","html-keyboard-response","183","282366","0.0-1.0-251.0-0.0","0","0","91212","","null","","","null","27","","","","","","","","","","","","","","","",""
"","ITI","","html-keyboard-response","184","283372","0.0-1.0-252.0","0","0","91212","","null","","","null","27","","","","","","","","","","","","","","","NaN",""
"","S1","","html-keyboard-response","185","283628","0.0-1.0-254.0","0","0","91212","","null","","","null","28","","","","","","","","","","","","","","","",""
"","ISI","","html-keyboard-response","186","284631","0.0-1.0-255.0","0","0","91212","","null","","","null","28","NaN","","","","","","","","","","","","","","",""
"","S2","","html-keyboard-response","187","284883","0.0-1.0-256.0","0","0","91212","","null","","","null","28","","NaN","","","","","","","","","","","","","",""
"","response","","html-keyboard-response","188","285097","0.0-1.0-257.0-0.0","0","0","91212","","211","","","75","28","","","1","28","training","adjacent","BC","2","3","O.jpg","L.jpg","0","1","0","",""
"","feedback","","html-keyboard-response","189","286099","0.0-1.0-258.0-0.0","0","0","91212","","null","","","null","28","","","","","","","","","","","","","","","",""
"","time_out","","html-keyboard-response","190","288101","0.0-1.0-260.0-0.0","0","0","91212","","null","","","null","28","","","","","","","","","","","","","","","",""
"","ITI","","html-keyboard-response","191","289109","0.0-1.0-261.0","0","0","91212","","null","","","null","28","","","","","","","","","","","","","","","NaN",""
"","S1","","html-keyboard-response","192","289361","0.0-1.0-263.0","0","0","91212","","null","","","null","29","","","","","","","","","","","","","","","",""
"","ISI","","html-keyboard-response","193","290364","0.0-1.0-264.0","0","0","91212","","null","","","null","29","NaN","","","","","","","","","","","","","","",""
"","S2","","html-keyboard-response","194","290617","0.0-1.0-265.0","0","0","91212","","null","","","null","29","","NaN","","","","","","","","","","","","","",""
"","response","","html-keyboard-response","195","291208","0.0-1.0-266.0-0.0","0","0","91212","","589","","","68","29","","","1","29","training","adjacent","DE","4","5","Q.jpg","P.jpg","1","1","1","",""
"","feedback","","html-keyboard-response","196","292211","0.0-1.0-267.0-0.0","0","0","91212","","null","","","null","29","","","","","","","","","","","","","","","",""
"","ITI","","html-keyboard-response","197","293213","0.0-1.0-270.0","0","0","91212","","null","","","null","29","","","","","","","","","","","","","","","NaN",""
"","S1","","html-keyboard-response","198","293467","0.0-1.0-272.0","0","0","91212","","null","","","null","30","","","","","","","","","","","","","","","",""
"","ISI","","html-keyboard-response","199","294471","0.0-1.0-273.0","0","0","91212","","null","","","null","30","NaN","","","","","","","","","","","","","","",""
"","S2","","html-keyboard-response","200","294724","0.0-1.0-274.0","0","0","91212","","null","","","null","30","","NaN","","","","","","","","","","","","","",""
"","response","","html-keyboard-response","201","295135","0.0-1.0-275.0-0.0","0","0","91212","","410","","","68","30","","","1","30","training","adjacent","FE","6","5","M.jpg","P.jpg","1","0","0","",""
"","feedback","","html-keyboard-response","202","296139","0.0-1.0-276.0-0.0","0","0","91212","","null","","","null","30","","","","","","","","","","","","","","","",""
"","time_out","","html-keyboard-response","203","298145","0.0-1.0-278.0-0.0","0","0","91212","","null","","","null","30","","","","","","","","","","","","","","","",""
"","ITI","","html-keyboard-response","204","299149","0.0-1.0-279.0","0","0","91212","","null","","","null","30","","","","","","","","","","","","","","","NaN",""
"","S1","","html-keyboard-response","205","299405","0.0-1.0-281.0","0","0","91212","","null","","","null","31","","","","","","","","","","","","","","","",""
"","ISI","","html-keyboard-response","206","300421","0.0-1.0-282.0","0","0","91212","","null","","","null","31","NaN","","","","","","","","","","","","","","",""
"","S2","","html-keyboard-response","207","300674","0.0-1.0-283.0","0","0","91212","","null","","","null","31","","NaN","","","","","","","","","","","","","",""
"","response","","html-keyboard-response","208","301572","0.0-1.0-284.0-0.0","0","0","91212","","893","","","68","31","","","1","31","training","adjacent","FG","6","7","M.jpg","N.jpg","1","1","1","",""
"","feedback","","html-keyboard-response","209","302576","0.0-1.0-285.0-0.0","0","0","91212","","null","","","null","31","","","","","","","","","","","","","","","",""
"","ITI","","html-keyboard-response","210","303578","0.0-1.0-288.0","0","0","91212","","null","","","null","31","","","","","","","","","","","","","","","NaN",""
"","S1","","html-keyboard-response","211","303831","0.0-1.0-290.0","0","0","91212","","null","","","null","32","","","","","","","","","","","","","","","",""
"","ISI","","html-keyboard-response","212","304834","0.0-1.0-291.0","0","0","91212","","null","","","null","32","NaN","","","","","","","","","","","","","","",""
"","S2","","html-keyboard-response","213","305089","0.0-1.0-292.0","0","0","91212","","null","","","null","32","","NaN","","","","","","","","","","","","","",""
"","response","","html-keyboard-response","214","306696","0.0-1.0-293.0-0.0","0","0","91212","","1605","","","68","32","","","1","32","training","adjacent","GF","7","6","N.jpg","M.jpg","1","0","0","",""
"","feedback","","html-keyboard-response","215","307700","0.0-1.0-294.0-0.0","0","0","91212","","null","","","null","32","","","","","","","","","","","","","","","",""
"","time_out","","html-keyboard-response","216","309709","0.0-1.0-296.0-0.0","0","0","91212","","null","","","null","32","","","","","","","","","","","","","","","",""
"","ITI","","html-keyboard-response","217","310717","0.0-1.0-297.0","0","0","91212","","null","","","null","32","","","","","","","","","","","","","","","NaN",""
"","S1","","html-keyboard-response","218","310974","0.0-1.0-299.0","0","0","91212","","null","","","null","33","","","","","","","","","","","","","","","",""
"","ISI","","html-keyboard-response","219","311977","0.0-1.0-300.0","0","0","91212","","null","","","null","33","NaN","","","","","","","","","","","","","","",""
"","S2","","html-keyboard-response","220","312229","0.0-1.0-301.0","0","0","91212","","null","","","null","33","","NaN","","","","","","","","","","","","","",""
"","response","","html-keyboard-response","221","312490","0.0-1.0-302.0-0.0","0","0","91212","","258","","","68","33","","","1","33","training","adjacent","CD","3","4","L.jpg","Q.jpg","1","1","1","",""
"","feedback","","html-keyboard-response","222","313493","0.0-1.0-303.0-0.0","0","0","91212","","null","","","null","33","","","","","","","","","","","","","","","",""
"","ITI","","html-keyboard-response","223","314497","0.0-1.0-306.0","0","0","91212","","null","","","null","33","","","","","","","","","","","","","","","NaN",""
"","S1","","html-keyboard-response","224","314749","0.0-1.0-308.0","0","0","91212","","null","","","null","34","","","","","","","","","","","","","","","",""
"","ISI","","html-keyboard-response","225","315754","0.0-1.0-309.0","0","0","91212","","null","","","null","34","NaN","","","","","","","","","","","","","","",""
"","S2","","html-keyboard-response","226","316009","0.0-1.0-310.0","0","0","91212","","null","","","null","34","","NaN","","","","","","","","","","","","","",""
"","response","","html-keyboard-response","227","316713","0.0-1.0-311.0-0.0","0","0","91212","","702","","","75","34","","","1","34","training","adjacent","DC","4","3","Q.jpg","L.jpg","0","0","1","",""
"","feedback","","html-keyboard-response","228","317717","0.0-1.0-312.0-0.0","0","0","91212","","null","","","null","34","","","","","","","","","","","","","","","",""
"","ITI","","html-keyboard-response","229","318729","0.0-1.0-315.0","0","0","91212","","null","","","null","34","","","","","","","","","","","","","","","NaN",""
"","S1","","html-keyboard-response","230","318998","0.0-1.0-317.0","0","0","91212","","null","","","null","35","","","","","","","","","","","","","","","",""
"","ISI","","html-keyboard-response","231","320001","0.0-1.0-318.0","0","0","91212","","null","","","null","35","NaN","","","","","","","","","","","","","","",""
"","S2","","html-keyboard-response","232","320292","0.0-1.0-319.0","0","0","91212","","null","","","null","35","","NaN","","","","","","","","","","","","","",""
"","response","","html-keyboard-response","233","321079","0.0-1.0-320.0-0.0","0","0","91212","","786","","","75","35","","","1","35","training","adjacent","EF","5","6","P.jpg","M.jpg","0","1","0","",""
"","feedback","","html-keyboard-response","234","322082","0.0-1.0-321.0-0.0","0","0","91212","","null","","","null","35","","","","","","","","","","","","","","","",""
"","time_out","","html-keyboard-response","235","324084","0.0-1.0-323.0-0.0","0","0","91212","","null","","","null","35","","","","","","","","","","","","","","","",""
"","ITI","","html-keyboard-response","236","325101","0.0-1.0-324.0","0","0","91212","","null","","","null","35","","","","","","","","","","","","","","","NaN",""
"","S1","","html-keyboard-response","237","325355","0.0-1.0-326.0","0","0","91212","","null","","","null","36","","","","","","","","","","","","","","","",""
"","ISI","","html-keyboard-response","238","326358","0.0-1.0-327.0","0","0","91212","","null","","","null","36","NaN","","","","","","","","","","","","","","",""
"","S2","","html-keyboard-response","239","326612","0.0-1.0-328.0","0","0","91212","","null","","","null","36","","NaN","","","","","","","","","","","","","",""
"","response","","html-keyboard-response","240","327225","0.0-1.0-329.0-0.0","0","0","91212","","611","","","75","36","","","1","36","training","adjacent","DC","4","3","Q.jpg","L.jpg","0","0","1","",""
"","feedback","","html-keyboard-response","241","328228","0.0-1.0-330.0-0.0","0","0","91212","","null","","","null","36","","","","","","","","","","","","","","","",""
"","ITI","","html-keyboard-response","242","329233","0.0-1.0-333.0","0","0","91212","","null","","","null","36","","","","","","","","","","","","","","","NaN",""
"","S1","","html-keyboard-response","243","329490","0.0-1.0-335.0","0","0","91212","","null","","","null","37","","","","","","","","","","","","","","","",""
"","ISI","","html-keyboard-response","244","330492","0.0-1.0-336.0","0","0","91212","","null","","","null","37","NaN","","","","","","","","","","","","","","",""
"","S2","","html-keyboard-response","245","330745","0.0-1.0-337.0","0","0","91212","","null","","","null","37","","NaN","","","","","","","","","","","","","",""
"","response","","html-keyboard-response","246","331296","0.0-1.0-338.0-0.0","0","0","91212","","548","","","75","37","","","1","37","training","adjacent","EF","5","6","P.jpg","M.jpg","0","1","0","",""
"","feedback","","html-keyboard-response","247","332298","0.0-1.0-339.0-0.0","0","0","91212","","null","","","null","37","","","","","","","","","","","","","","","",""
"","time_out","","html-keyboard-response","248","334300","0.0-1.0-341.0-0.0","0","0","91212","","null","","","null","37","","","","","","","","","","","","","","","",""
"","ITI","","html-keyboard-response","249","335305","0.0-1.0-342.0","0","0","91212","","null","","","null","37","","","","","","","","","","","","","","","NaN",""
"","S1","","html-keyboard-response","250","335558","0.0-1.0-344.0","0","0","91212","","null","","","null","38","","","","","","","","","","","","","","","",""
"","ISI","","html-keyboard-response","251","336562","0.0-1.0-345.0","0","0","91212","","null","","","null","38","NaN","","","","","","","","","","","","","","",""
"","S2","","html-keyboard-response","252","336815","0.0-1.0-346.0","0","0","91212","","null","","","null","38","","NaN","","","","","","","","","","","","","",""
"","response","","html-keyboard-response","253","338568","0.0-1.0-347.0-0.0","0","0","91212","","null","","","null","38","","","1","38","training","adjacent","GF","7","6","N.jpg","M.jpg","NaN","0","0","",""
"","too_slow_prompt","","html-keyboard-response","254","339573","0.0-1.0-349.0-0.0","1","0","91212","","null","","","null","","","","","","","","","","","","","","","","",""
"","time_out","","html-keyboard-response","255","341576","0.0-1.0-350.0-0.0","0","0","91212","","null","","","null","38","","","","","","","","","","","","","","","",""
"","ITI","","html-keyboard-response","256","342579","0.0-1.0-351.0","0","0","91212","","null","","","null","38","","","","","","","","","","","","","","","NaN",""
"","S1","","html-keyboard-response","257","342831","0.0-1.0-353.0","0","0","91212","","null","","","null","39","","","","","","","","","","","","","","","",""
"","ISI","","html-keyboard-response","258","343833","0.0-1.0-354.0","0","0","91212","","null","","","null","39","NaN","","","","","","","","","","","","","","",""
"","S2","","html-keyboard-response","259","344089","0.0-1.0-355.0","0","0","91212","","null","","","null","39","","NaN","","","","","","","","","","","","","",""
"","response","","html-keyboard-response","260","344358","0.0-1.0-356.0-0.0","0","0","91212","","268","","","68","39","","","1","39","training","adjacent","CB","3","2","L.jpg","O.jpg","1","0","0","",""
"","feedback","","html-keyboard-response","261","345360","0.0-1.0-357.0-0.0","0","0","91212","","null","","","null","39","","","","","","","","","","","","","","","",""
"","time_out","","html-keyboard-response","262","347362","0.0-1.0-359.0-0.0","0","0","91212","","null","","","null","39","","","","","","","","","","","","","","","",""
"","ITI","","html-keyboard-response","263","348365","0.0-1.0-360.0","0","0","91212","","null","","","null","39","","","","","","","","","","","","","","","NaN",""
"","S1","","html-keyboard-response","264","348621","0.0-1.0-362.0","0","0","91212","","null","","","null","40","","","","","","","","","","","","","","","",""
"","ISI","","html-keyboard-response","265","349625","0.0-1.0-363.0","0","0","91212","","null","","","null","40","NaN","","","","","","","","","","","","","","",""
"","S2","","html-keyboard-response","266","349879","0.0-1.0-364.0","0","0","91212","","null","","","null","40","","NaN","","","","","","","","","","","","","",""
"","response","","html-keyboard-response","267","350555","0.0-1.0-365.0-0.0","0","0","91212","","672","","","68","40","","","1","40","training","adjacent","DE","4","5","Q.jpg","P.jpg","1","1","1","",""
"","feedback","","html-keyboard-response","268","351558","0.0-1.0-366.0-0.0","0","0","91212","","null","","","null","40","","","","","","","","","","","","","","","",""
"","ITI","","html-keyboard-response","269","352561","0.0-1.0-369.0","0","0","91212","","null","","","null","40","","","","","","","","","","","","","","","NaN",""
"","S1","","html-keyboard-response","270","352814","0.0-1.0-371.0","0","0","91212","","null","","","null","41","","","","","","","","","","","","","","","",""
"","ISI","","html-keyboard-response","271","353816","0.0-1.0-372.0","0","0","91212","","null","","","null","41","NaN","","","","","","","","","","","","","","",""
"","S2","","html-keyboard-response","272","354070","0.0-1.0-373.0","0","0","91212","","null","","","null","41","","NaN","","","","","","","","","","","","","",""
"","response","","html-keyboard-response","273","354423","0.0-1.0-374.0-0.0","0","0","91212","","351","","","68","41","","","1","41","training","adjacent","FE","6","5","M.jpg","P.jpg","1","0","0","",""
"","feedback","","html-keyboard-response","274","355427","0.0-1.0-375.0-0.0","0","0","91212","","null","","","null","41","","","","","","","","","","","","","","","",""
"","time_out","","html-keyboard-response","275","357429","0.0-1.0-377.0-0.0","0","0","91212","","null","","","null","41","","","","","","","","","","","","","","","",""
"","ITI","","html-keyboard-response","276","358434","0.0-1.0-378.0","0","0","91212","","null","","","null","41","","","","","","","","","","","","","","","NaN",""
"","S1","","html-keyboard-response","277","358689","0.0-1.0-380.0","0","0","91212","","null","","","null","42","","","","","","","","","","","","","","","",""
"","ISI","","html-keyboard-response","278","359691","0.0-1.0-381.0","0","0","91212","","null","","","null","42","NaN","","","","","","","","","","","","","","",""
"","S2","","html-keyboard-response","279","359946","0.0-1.0-382.0","0","0","91212","","null","","","null","42","","NaN","","","","","","","","","","","","","",""
"","response","","html-keyboard-response","280","360569","0.0-1.0-383.0-0.0","0","0","91212","","621","","","75","42","","","1","42","training","adjacent","BC","2","3","O.jpg","L.jpg","0","1","0","",""
"","feedback","","html-keyboard-response","281","361576","0.0-1.0-384.0-0.0","0","0","91212","","null","","","null","42","","","","","","","","","","","","","","","",""
"","time_out","","html-keyboard-response","282","363584","0.0-1.0-386.0-0.0","0","0","91212","","null","","","null","42","","","","","","","","","","","","","","","",""
"","ITI","","html-keyboard-response","283","364588","0.0-1.0-387.0","0","0","91212","","null","","","null","42","","","","","","","","","","","","","","","NaN",""
"","S1","","html-keyboard-response","284","364842","0.0-1.0-389.0","0","0","91212","","null","","","null","43","","","","","","","","","","","","","","","",""
"","ISI","","html-keyboard-response","285","365845","0.0-1.0-390.0","0","0","91212","","null","","","null","43","NaN","","","","","","","","","","","","","","",""
"","S2","","html-keyboard-response","286","366099","0.0-1.0-391.0","0","0","91212","","null","","","null","43","","NaN","","","","","","","","","","","","","",""
"","response","","html-keyboard-response","287","366831","0.0-1.0-392.0-0.0","0","0","91212","","731","","","75","43","","","1","43","training","adjacent","AB","1","2","R.jpg","O.jpg","0","1","0","",""
"","feedback","","html-keyboard-response","288","367834","0.0-1.0-393.0-0.0","0","0","91212","","null","","","null","43","","","","","","","","","","","","","","","",""
"","time_out","","html-keyboard-response","289","369840","0.0-1.0-395.0-0.0","0","0","91212","","null","","","null","43","","","","","","","","","","","","","","","",""
"","ITI","","html-keyboard-response","290","370843","0.0-1.0-396.0","0","0","91212","","null","","","null","43","","","","","","","","","","","","","","","NaN",""
"","S1","","html-keyboard-response","291","371095","0.0-1.0-398.0","0","0","91212","","null","","","null","44","","","","","","","","","","","","","","","",""
"","ISI","","html-keyboard-response","292","372100","0.0-1.0-399.0","0","0","91212","","null","","","null","44","NaN","","","","","","","","","","","","","","",""
"","S2","","html-keyboard-response","293","372354","0.0-1.0-400.0","0","0","91212","","null","","","null","44","","NaN","","","","","","","","","","","","","",""
"","response","","html-keyboard-response","294","373023","0.0-1.0-401.0-0.0","0","0","91212","","668","","","75","44","","","1","44","training","adjacent","EF","5","6","P.jpg","M.jpg","0","1","0","",""
"","feedback","","html-keyboard-response","295","374026","0.0-1.0-402.0-0.0","0","0","91212","","null","","","null","44","","","","","","","","","","","","","","","",""
"","time_out","","html-keyboard-response","296","376028","0.0-1.0-404.0-0.0","0","0","91212","","null","","","null","44","","","","","","","","","","","","","","","",""
"","ITI","","html-keyboard-response","297","377031","0.0-1.0-405.0","0","0","91212","","null","","","null","44","","","","","","","","","","","","","","","NaN",""
"","S1","","html-keyboard-response","298","377283","0.0-1.0-407.0","0","0","91212","","null","","","null","45","","","","","","","","","","","","","","","",""
"","ISI","","html-keyboard-response","299","378285","0.0-1.0-408.0","0","0","91212","","null","","","null","45","NaN","","","","","","","","","","","","","","",""
"","S2","","html-keyboard-response","300","378541","0.0-1.0-409.0","0","0","91212","","null","","","null","45","","NaN","","","","","","","","","","","","","",""
"","response","","html-keyboard-response","301","378775","0.0-1.0-410.0-0.0","0","0","91212","","233","","","68","45","","","1","45","training","adjacent","FG","6","7","M.jpg","N.jpg","1","1","1","",""
"","feedback","","html-keyboard-response","302","379779","0.0-1.0-411.0-0.0","0","0","91212","","null","","","null","45","","","","","","","","","","","","","","","",""
"","ITI","","html-keyboard-response","303","380784","0.0-1.0-414.0","0","0","91212","","null","","","null","45","","","","","","","","","","","","","","","NaN",""
"","S1","","html-keyboard-response","304","381040","0.0-1.0-416.0","0","0","91212","","null","","","null","46","","","","","","","","","","","","","","","",""
"","ISI","","html-keyboard-response","305","382043","0.0-1.0-417.0","0","0","91212","","null","","","null","46","NaN","","","","","","","","","","","","","","",""
"","S2","","html-keyboard-response","306","382297","0.0-1.0-418.0","0","0","91212","","null","","","null","46","","NaN","","","","","","","","","","","","","",""
"","response","","html-keyboard-response","307","382839","0.0-1.0-419.0-0.0","0","0","91212","","540","","","75","46","","","1","46","training","adjacent","BA","2","1","O.jpg","R.jpg","0","0","1","",""
"","feedback","","html-keyboard-response","308","383843","0.0-1.0-420.0-0.0","0","0","91212","","null","","","null","46","","","","","","","","","","","","","","","",""
"","ITI","","html-keyboard-response","309","384847","0.0-1.0-423.0","0","0","91212","","null","","","null","46","","","","","","","","","","","","","","","NaN",""
"","S1","","html-keyboard-response","310","385101","0.0-1.0-425.0","0","0","91212","","null","","","null","47","","","","","","","","","","","","","","","",""
"","ISI","","html-keyboard-response","311","386107","0.0-1.0-426.0","0","0","91212","","281","","","75","47","k","","","","","","","","","","","","","","",""
"","S2","","html-keyboard-response","312","386368","0.0-1.0-427.0","0","0","91212","","null","","","null","47","","NaN","","","","","","","","","","","","","",""
"","response","","html-keyboard-response","313","386538","0.0-1.0-428.0-0.0","0","0","91212","","168","","","75","47","","","1","47","training","adjacent","BC","2","3","O.jpg","L.jpg","0","1","0","",""
"","feedback","","html-keyboard-response","314","387543","0.0-1.0-429.0-0.0","0","0","91212","","null","","","null","47","","","","","","","","","","","","","","","",""
"","time_out","","html-keyboard-response","315","389546","0.0-1.0-431.0-0.0","0","0","91212","","null","","","null","47","","","","","","","","","","","","","","","",""
"","ITI","","html-keyboard-response","316","390551","0.0-1.0-432.0","0","0","91212","","null","","","null","47","","","","","","","","","","","","","","","NaN",""
"","block_over","","html-keyboard-response","317","494386","0.0-1.0-433.0-0.0","0","0","91212","","103828","","","32","47","","","","","","","","","","","","","","","",""
"","S1","","html-keyboard-response","318","494640","0.0-1.0-434.0","0","0","91212","","null","","","null","48","","","","","","","","","","","","","","","",""
"","ISI","","html-keyboard-response","319","495642","0.0-1.0-435.0","0","0","91212","","null","","","null","48","NaN","","","","","","","","","","","","","","",""
"","S2","","html-keyboard-response","320","495896","0.0-1.0-436.0","0","0","91212","","null","","","null","48","","NaN","","","","","","","","","","","","","",""
"","response","","html-keyboard-response","321","496205","0.0-1.0-437.0-0.0","0","0","91212","","308","","","75","48","","","2","48","training","adjacent","DC","4","3","Q.jpg","L.jpg","0","0","1","",""
"","feedback","","html-keyboard-response","322","497208","0.0-1.0-438.0-0.0","0","0","91212","","null","","","null","48","","","","","","","","","","","","","","","",""
"","ITI","","html-keyboard-response","323","498211","0.0-1.0-441.0","0","0","91212","","null","","","null","48","","","","","","","","","","","","","","","NaN",""
"","S1","","html-keyboard-response","324","498463","0.0-1.0-443.0","0","0","91212","","null","","","null","49","","","","","","","","","","","","","","","",""
"","ISI","","html-keyboard-response","325","499467","0.0-1.0-444.0","0","0","91212","","null","","","null","49","NaN","","","","","","","","","","","","","","",""
"","S2","","html-keyboard-response","326","499720","0.0-1.0-445.0","0","0","91212","","null","","","null","49","","NaN","","","","","","","","","","","","","",""
"","response","","html-keyboard-response","327","499955","0.0-1.0-446.0-0.0","0","0","91212","","232","","","75","49","","","2","49","training","adjacent","DC","4","3","Q.jpg","L.jpg","0","0","1","",""
"","feedback","","html-keyboard-response","328","500957","0.0-1.0-447.0-0.0","0","0","91212","","null","","","null","49","","","","","","","","","","","","","","","",""
"","ITI","","html-keyboard-response","329","501966","0.0-1.0-450.0","0","0","91212","","null","","","null","49","","","","","","","","","","","","","","","NaN",""
"","S1","","html-keyboard-response","330","502318","0.0-1.0-452.0","0","0","91212","","null","","","null","50","","","","","","","","","","","","","","","",""
"","ISI","","html-keyboard-response","331","503320","0.0-1.0-453.0","0","0","91212","","null","","","null","50","NaN","","","","","","","","","","","","","","",""
"","S2","","html-keyboard-response","332","503574","0.0-1.0-454.0","0","0","91212","","null","","","null","50","","NaN","","","","","","","","","","","","","",""
"","response","","html-keyboard-response","333","503863","0.0-1.0-455.0-0.0","0","0","91212","","286","","","75","50","","","2","50","training","adjacent","GF","7","6","N.jpg","M.jpg","0","0","1","",""
"","feedback","","html-keyboard-response","334","504868","0.0-1.0-456.0-0.0","0","0","91212","","null","","","null","50","","","","","","","","","","","","","","","",""
"","ITI","","html-keyboard-response","335","505871","0.0-1.0-459.0","0","0","91212","","null","","","null","50","","","","","","","","","","","","","","","NaN",""
"","S1","","html-keyboard-response","336","506124","0.0-1.0-461.0","0","0","91212","","null","","","null","51","","","","","","","","","","","","","","","",""
"","ISI","","html-keyboard-response","337","507128","0.0-1.0-462.0","0","0","91212","","null","","","null","51","NaN","","","","","","","","","","","","","","",""
"","S2","","html-keyboard-response","338","507381","0.0-1.0-463.0","0","0","91212","","null","","","null","51","","NaN","","","","","","","","","","","","","",""
"","response","","html-keyboard-response","339","507479","0.0-1.0-464.0-0.0","0","0","91212","","96","","","68","51","","","2","51","training","adjacent","CB","3","2","L.jpg","O.jpg","1","0","0","",""
"","feedback","","html-keyboard-response","340","508483","0.0-1.0-465.0-0.0","0","0","91212","","null","","","null","51","","","","","","","","","","","","","","","",""
"","time_out","","html-keyboard-response","341","510488","0.0-1.0-467.0-0.0","0","0","91212","","null","","","null","51","","","","","","","","","","","","","","","",""
"","ITI","","html-keyboard-response","342","511490","0.0-1.0-468.0","0","0","91212","","null","","","null","51","","","","","","","","","","","","","","","NaN",""
"","S1","","html-keyboard-response","343","511742","0.0-1.0-470.0","0","0","91212","","null","","","null","52","","","","","","","","","","","","","","","",""
"","ISI","","html-keyboard-response","344","512745","0.0-1.0-471.0","0","0","91212","","null","","","null","52","NaN","","","","","","","","","","","","","","",""
"","S2","","html-keyboard-response","345","512999","0.0-1.0-472.0","0","0","91212","","null","","","null","52","","NaN","","","","","","","","","","","","","",""
"","response","","html-keyboard-response","346","513199","0.0-1.0-473.0-0.0","0","0","91212","","197","","","68","52","","","2","52","training","adjacent","DE","4","5","Q.jpg","P.jpg","1","1","1","",""
"","feedback","","html-keyboard-response","347","514205","0.0-1.0-474.0-0.0","0","0","91212","","null","","","null","52","","","","","","","","","","","","","","","",""
"","ITI","","html-keyboard-response","348","515209","0.0-1.0-477.0","0","0","91212","","null","","","null","52","","","","","","","","","","","","","","","NaN",""
"","S1","","html-keyboard-response","349","515462","0.0-1.0-479.0","0","0","91212","","null","","","null","53","","","","","","","","","","","","","","","",""
"","ISI","","html-keyboard-response","350","516465","0.0-1.0-480.0","0","0","91212","","null","","","null","53","NaN","","","","","","","","","","","","","","",""
"","S2","","html-keyboard-response","351","516719","0.0-1.0-481.0","0","0","91212","","null","","","null","53","","NaN","","","","","","","","","","","","","",""
"","response","","html-keyboard-response","352","516989","0.0-1.0-482.0-0.0","0","0","91212","","268","","","75","53","","","2","53","training","adjacent","AB","1","2","R.jpg","O.jpg","0","1","0","",""
"","feedback","","html-keyboard-response","353","517997","0.0-1.0-483.0-0.0","0","0","91212","","null","","","null","53","","","","","","","","","","","","","","","",""
"","time_out","","html-keyboard-response","354","520013","0.0-1.0-485.0-0.0","0","0","91212","","null","","","null","53","","","","","","","","","","","","","","","",""
"","ITI","","html-keyboard-response","355","521020","0.0-1.0-486.0","0","0","91212","","null","","","null","53","","","","","","","","","","","","","","","NaN",""
"","S1","","html-keyboard-response","356","521273","0.0-1.0-488.0","0","0","91212","","null","","","null","54","","","","","","","","","","","","","","","",""
"","ISI","","html-keyboard-response","357","522278","0.0-1.0-489.0","0","0","91212","","612","","","68","54","d","","","","","","","","","","","","","","",""
"","S2","","html-keyboard-response","358","522532","0.0-1.0-490.0","0","0","91212","","null","","","null","54","","NaN","","","","","","","","","","","","","",""
"","response","","html-keyboard-response","359","522781","0.0-1.0-491.0-0.0","0","0","91212","","248","","","68","54","","","2","54","training","adjacent","FG","6","7","M.jpg","N.jpg","1","1","1","",""
"","feedback","","html-keyboard-response","360","523787","0.0-1.0-492.0-0.0","0","0","91212","","null","","","null","54","","","","","","","","","","","","","","","",""
"","ITI","","html-keyboard-response","361","524804","0.0-1.0-495.0","0","0","91212","","null","","","null","54","","","","","","","","","","","","","","","NaN",""
"","S1","","html-keyboard-response","362","525056","0.0-1.0-497.0","0","0","91212","","null","","","null","55","","","","","","","","","","","","","","","",""
"","ISI","","html-keyboard-response","363","526058","0.0-1.0-498.0","0","0","91212","","null","","","null","55","NaN","","","","","","","","","","","","","","",""
"","S2","","html-keyboard-response","364","526310","0.0-1.0-499.0","0","0","91212","","null","","","null","55","","NaN","","","","","","","","","","","","","",""
"","response","","html-keyboard-response","365","526541","0.0-1.0-500.0-0.0","0","0","91212","","229","","","75","55","","","2","55","training","adjacent","GF","7","6","N.jpg","M.jpg","0","0","1","",""
"","feedback","","html-keyboard-response","366","527545","0.0-1.0-501.0-0.0","0","0","91212","","null","","","null","55","","","","","","","","","","","","","","","",""
"","ITI","","html-keyboard-response","367","528547","0.0-1.0-504.0","0","0","91212","","null","","","null","55","","","","","","","","","","","","","","","NaN",""
"","S1","","html-keyboard-response","368","528804","0.0-1.0-506.0","0","0","91212","","null","","","null","56","","","","","","","","","","","","","","","",""
"","ISI","","html-keyboard-response","369","529808","0.0-1.0-507.0","0","0","91212","","null","","","null","56","NaN","","","","","","","","","","","","","","",""
"","S2","","html-keyboard-response","370","530062","0.0-1.0-508.0","0","0","91212","","null","","","null","56","","NaN","","","","","","","","","","","","","",""
"","response","","html-keyboard-response","371","530405","0.0-1.0-509.0-0.0","0","0","91212","","341","","","68","56","","","2","56","training","adjacent","BA","2","1","O.jpg","R.jpg","1","0","0","",""
"","feedback","","html-keyboard-response","372","531408","0.0-1.0-510.0-0.0","0","0","91212","","null","","","null","56","","","","","","","","","","","","","","","",""
"","time_out","","html-keyboard-response","373","533410","0.0-1.0-512.0-0.0","0","0","91212","","null","","","null","56","","","","","","","","","","","","","","","",""
"","ITI","","html-keyboard-response","374","534412","0.0-1.0-513.0","0","0","91212","","null","","","null","56","","","","","","","","","","","","","","","NaN",""
"","S1","","html-keyboard-response","375","534664","0.0-1.0-515.0","0","0","91212","","null","","","null","57","","","","","","","","","","","","","","","",""
"","ISI","","html-keyboard-response","376","535670","0.0-1.0-516.0","0","0","91212","","null","","","null","57","NaN","","","","","","","","","","","","","","",""
"","S2","","html-keyboard-response","377","535923","0.0-1.0-517.0","0","0","91212","","null","","","null","57","","NaN","","","","","","","","","","","","","",""
"","response","","html-keyboard-response","378","536191","0.0-1.0-518.0-0.0","0","0","91212","","266","","","68","57","","","2","57","training","adjacent","CD","3","4","L.jpg","Q.jpg","1","1","1","",""
"","feedback","","html-keyboard-response","379","537194","0.0-1.0-519.0-0.0","0","0","91212","","null","","","null","57","","","","","","","","","","","","","","","",""
"","ITI","","html-keyboard-response","380","538196","0.0-1.0-522.0","0","0","91212","","null","","","null","57","","","","","","","","","","","","","","","NaN",""
"","S1","","html-keyboard-response","381","538448","0.0-1.0-524.0","0","0","91212","","null","","","null","58","","","","","","","","","","","","","","","",""
"","ISI","","html-keyboard-response","382","539454","0.0-1.0-525.0","0","0","91212","","null","","","null","58","NaN","","","","","","","","","","","","","","",""
"","S2","","html-keyboard-response","383","539706","0.0-1.0-526.0","0","0","91212","","null","","","null","58","","NaN","","","","","","","","","","","","","",""
"","response","","html-keyboard-response","384","540109","0.0-1.0-527.0-0.0","0","0","91212","","401","","","75","58","","","2","58","training","adjacent","BA","2","1","O.jpg","R.jpg","0","0","1","",""
"","feedback","","html-keyboard-response","385","541113","0.0-1.0-528.0-0.0","0","0","91212","","null","","","null","58","","","","","","","","","","","","","","","",""
"","ITI","","html-keyboard-response","386","542120","0.0-1.0-531.0","0","0","91212","","null","","","null","58","","","","","","","","","","","","","","","NaN",""
"","S1","","html-keyboard-response","387","542373","0.0-1.0-533.0","0","0","91212","","null","","","null","59","","","","","","","","","","","","","","","",""
"","ISI","","html-keyboard-response","388","543376","0.0-1.0-534.0","0","0","91212","","null","","","null","59","NaN","","","","","","","","","","","","","","",""
"","S2","","html-keyboard-response","389","543632","0.0-1.0-535.0","0","0","91212","","null","","","null","59","","NaN","","","","","","","","","","","","","",""
"","response","","html-keyboard-response","390","543854","0.0-1.0-536.0-0.0","0","0","91212","","220","","","75","59","","","2","59","training","adjacent","EF","5","6","P.jpg","M.jpg","0","1","0","",""
"","feedback","","html-keyboard-response","391","544856","0.0-1.0-537.0-0.0","0","0","91212","","null","","","null","59","","","","","","","","","","","","","","","",""
"","time_out","","html-keyboard-response","392","546859","0.0-1.0-539.0-0.0","0","0","91212","","null","","","null","59","","","","","","","","","","","","","","","",""
"","ITI","","html-keyboard-response","393","547862","0.0-1.0-540.0","0","0","91212","","null","","","null","59","","","","","","","","","","","","","","","NaN",""
"","S1","","html-keyboard-response","394","548114","0.0-1.0-542.0","0","0","91212","","null","","","null","60","","","","","","","","","","","","","","","",""
"","ISI","","html-keyboard-response","395","549119","0.0-1.0-543.0","0","0","91212","","null","","","null","60","NaN","","","","","","","","","","","","","","",""
"","S2","","html-keyboard-response","396","549373","0.0-1.0-544.0","0","0","91212","","null","","","null","60","","NaN","","","","","","","","","","","","","",""
"","response","","html-keyboard-response","397","549622","0.0-1.0-545.0-0.0","0","0","91212","","247","","","75","60","","","2","60","training","adjacent","GF","7","6","N.jpg","M.jpg","0","0","1","",""
"","feedback","","html-keyboard-response","398","550625","0.0-1.0-546.0-0.0","0","0","91212","","null","","","null","60","","","","","","","","","","","","","","","",""
"","ITI","","html-keyboard-response","399","551629","0.0-1.0-549.0","0","0","91212","","null","","","null","60","","","","","","","","","","","","","","","NaN",""
"","S1","","html-keyboard-response","400","551888","0.0-1.0-551.0","0","0","91212","","null","","","null","61","","","","","","","","","","","","","","","",""
"","ISI","","html-keyboard-response","401","552892","0.0-1.0-552.0","0","0","91212","","null","","","null","61","NaN","","","","","","","","","","","","","","",""
"","S2","","html-keyboard-response","402","553146","0.0-1.0-553.0","0","0","91212","","null","","","null","61","","NaN","","","","","","","","","","","","","",""
"","response","","html-keyboard-response","403","553509","0.0-1.0-554.0-0.0","0","0","91212","","361","","","68","61","","","2","61","training","adjacent","DE","4","5","Q.jpg","P.jpg","1","1","1","",""
"","feedback","","html-keyboard-response","404","554512","0.0-1.0-555.0-0.0","0","0","91212","","null","","","null","61","","","","","","","","","","","","","","","",""
"","ITI","","html-keyboard-response","405","555515","0.0-1.0-558.0","0","0","91212","","null","","","null","61","","","","","","","","","","","","","","","NaN",""
"","S1","","html-keyboard-response","406","555770","0.0-1.0-560.0","0","0","91212","","null","","","null","62","","","","","","","","","","","","","","","",""
"","ISI","","html-keyboard-response","407","556773","0.0-1.0-561.0","0","0","91212","","null","","","null","62","NaN","","","","","","","","","","","","","","",""
"","S2","","html-keyboard-response","408","557026","0.0-1.0-562.0","0","0","91212","","null","","","null","62","","NaN","","","","","","","","","","","","","",""
"","response","","html-keyboard-response","409","557278","0.0-1.0-563.0-0.0","0","0","91212","","250","","","75","62","","","2","62","training","adjacent","BC","2","3","O.jpg","L.jpg","0","1","0","",""
"","feedback","","html-keyboard-response","410","558287","0.0-1.0-564.0-0.0","0","0","91212","","null","","","null","62","","","","","","","","","","","","","","","",""
"","time_out","","html-keyboard-response","411","560289","0.0-1.0-566.0-0.0","0","0","91212","","null","","","null","62","","","","","","","","","","","","","","","",""
"","ITI","","html-keyboard-response","412","561292","0.0-1.0-567.0","0","0","91212","","null","","","null","62","","","","","","","","","","","","","","","NaN",""
"","S1","","html-keyboard-response","413","561546","0.0-1.0-569.0","0","0","91212","","null","","","null","63","","","","","","","","","","","","","","","",""
"","ISI","","html-keyboard-response","414","562556","0.0-1.0-570.0","0","0","91212","","null","","","null","63","NaN","","","","","","","","","","","","","","",""
"","S2","","html-keyboard-response","415","562808","0.0-1.0-571.0","0","0","91212","","null","","","null","63","","NaN","","","","","","","","","","","","","",""
"","response","","html-keyboard-response","416","563288","0.0-1.0-572.0-0.0","0","0","91212","","477","","","68","63","","","2","63","training","adjacent","CB","3","2","L.jpg","O.jpg","1","0","0","",""
"","feedback","","html-keyboard-response","417","564291","0.0-1.0-573.0-0.0","0","0","91212","","null","","","null","63","","","","","","","","","","","","","","","",""
"","time_out","","html-keyboard-response","418","566294","0.0-1.0-575.0-0.0","0","0","91212","","null","","","null","63","","","","","","","","","","","","","","","",""
"","ITI","","html-keyboard-response","419","567297","0.0-1.0-576.0","0","0","91212","","null","","","null","63","","","","","","","","","","","","","","","NaN",""
"","S1","","html-keyboard-response","420","567550","0.0-1.0-578.0","0","0","91212","","null","","","null","64","","","","","","","","","","","","","","","",""
"","ISI","","html-keyboard-response","421","568555","0.0-1.0-579.0","0","0","91212","","null","","","null","64","NaN","","","","","","","","","","","","","","",""
"","S2","","html-keyboard-response","422","568809","0.0-1.0-580.0","0","0","91212","","null","","","null","64","","NaN","","","","","","","","","","","","","",""
"","response","","html-keyboard-response","423","569094","0.0-1.0-581.0-0.0","0","0","91212","","281","","","75","64","","","2","64","training","adjacent","EF","5","6","P.jpg","M.jpg","0","1","0","",""
"","feedback","","html-keyboard-response","424","570096","0.0-1.0-582.0-0.0","0","0","91212","","null","","","null","64","","","","","","","","","","","","","","","",""
"","time_out","","html-keyboard-response","425","572114","0.0-1.0-584.0-0.0","0","0","91212","","null","","","null","64","","","","","","","","","","","","","","","",""
"","ITI","","html-keyboard-response","426","573119","0.0-1.0-585.0","0","0","91212","","null","","","null","64","","","","","","","","","","","","","","","NaN",""
"","S1","","html-keyboard-response","427","573372","0.0-1.0-587.0","0","0","91212","","null","","","null","65","","","","","","","","","","","","","","","",""
"","ISI","","html-keyboard-response","428","574375","0.0-1.0-588.0","0","0","91212","","null","","","null","65","NaN","","","","","","","","","","","","","","",""
"","S2","","html-keyboard-response","429","574628","0.0-1.0-589.0","0","0","91212","","null","","","null","65","","NaN","","","","","","","","","","","","","",""
"","response","","html-keyboard-response","430","574935","0.0-1.0-590.0-0.0","0","0","91212","","306","","","68","65","","","2","65","training","adjacent","FG","6","7","M.jpg","N.jpg","1","1","1","",""
"","feedback","","html-keyboard-response","431","575938","0.0-1.0-591.0-0.0","0","0","91212","","null","","","null","65","","","","","","","","","","","","","","","",""
"","ITI","","html-keyboard-response","432","576942","0.0-1.0-594.0","0","0","91212","","null","","","null","65","","","","","","","","","","","","","","","NaN",""
"","S1","","html-keyboard-response","433","577195","0.0-1.0-596.0","0","0","91212","","null","","","null","66","","","","","","","","","","","","","","","",""
"","ISI","","html-keyboard-response","434","578197","0.0-1.0-597.0","0","0","91212","","null","","","null","66","NaN","","","","","","","","","","","","","","",""
"","S2","","html-keyboard-response","435","578451","0.0-1.0-598.0","0","0","91212","","null","","","null","66","","NaN","","","","","","","","","","","","","",""
"","response","","html-keyboard-response","436","578901","0.0-1.0-599.0-0.0","0","0","91212","","448","","","68","66","","","2","66","training","adjacent","CB","3","2","L.jpg","O.jpg","1","0","0","",""
"","feedback","","html-keyboard-response","437","579941","0.0-1.0-600.0-0.0","0","0","91212","","null","","","null","66","","","","","","","","","","","","","","","",""
"","time_out","","html-keyboard-response","438","581953","0.0-1.0-602.0-0.0","0","0","91212","","null","","","null","66","","","","","","","","","","","","","","","",""
"","ITI","","html-keyboard-response","439","582977","0.0-1.0-603.0","0","0","91212","","null","","","null","66","","","","","","","","","","","","","","","NaN",""
"","S1","","html-keyboard-response","440","583231","0.0-1.0-605.0","0","0","91212","","null","","","null","67","","","","","","","","","","","","","","","",""
"","ISI","","html-keyboard-response","441","584237","0.0-1.0-606.0","0","0","91212","","null","","","null","67","NaN","","","","","","","","","","","","","","",""
"","S2","","html-keyboard-response","442","584491","0.0-1.0-607.0","0","0","91212","","null","","","null","67","","NaN","","","","","","","","","","","","","",""
"","response","","html-keyboard-response","443","584750","0.0-1.0-608.0-0.0","0","0","91212","","255","","","75","67","","","2","67","training","adjacent","AB","1","2","R.jpg","O.jpg","0","1","0","",""
"","feedback","","html-keyboard-response","444","585753","0.0-1.0-609.0-0.0","0","0","91212","","null","","","null","67","","","","","","","","","","","","","","","",""
"","time_out","","html-keyboard-response","445","587756","0.0-1.0-611.0-0.0","0","0","91212","","null","","","null","67","","","","","","","","","","","","","","","",""
"","ITI","","html-keyboard-response","446","588758","0.0-1.0-612.0","0","0","91212","","null","","","null","67","","","","","","","","","","","","","","","NaN",""
"","S1","","html-keyboard-response","447","589012","0.0-1.0-614.0","0","0","91212","","null","","","null","68","","","","","","","","","","","","","","","",""
"","ISI","","html-keyboard-response","448","590020","0.0-1.0-615.0","0","0","91212","","null","","","null","68","NaN","","","","","","","","","","","","","","",""
"","S2","","html-keyboard-response","449","590275","0.0-1.0-616.0","0","0","91212","","null","","","null","68","","NaN","","","","","","","","","","","","","",""
"","response","","html-keyboard-response","450","590573","0.0-1.0-617.0-0.0","0","0","91212","","295","","","68","68","","","2","68","training","adjacent","FE","6","5","M.jpg","P.jpg","1","0","0","",""
"","feedback","","html-keyboard-response","451","591579","0.0-1.0-618.0-0.0","0","0","91212","","null","","","null","68","","","","","","","","","","","","","","","",""
"","time_out","","html-keyboard-response","452","593581","0.0-1.0-620.0-0.0","0","0","91212","","null","","","null","68","","","","","","","","","","","","","","","",""
"","ITI","","html-keyboard-response","453","594586","0.0-1.0-621.0","0","0","91212","","null","","","null","68","","","","","","","","","","","","","","","NaN",""
"","S1","","html-keyboard-response","454","594838","0.0-1.0-623.0","0","0","91212","","null","","","null","69","","","","","","","","","","","","","","","",""
"","ISI","","html-keyboard-response","455","595841","0.0-1.0-624.0","0","0","91212","","null","","","null","69","NaN","","","","","","","","","","","","","","",""
"","S2","","html-keyboard-response","456","596093","0.0-1.0-625.0","0","0","91212","","null","","","null","69","","NaN","","","","","","","","","","","","","",""
"","response","","html-keyboard-response","457","596397","0.0-1.0-626.0-0.0","0","0","91212","","302","","","75","69","","","2","69","training","adjacent","FE","6","5","M.jpg","P.jpg","0","0","1","",""
"","feedback","","html-keyboard-response","458","597402","0.0-1.0-627.0-0.0","0","0","91212","","null","","","null","69","","","","","","","","","","","","","","","",""
"","ITI","","html-keyboard-response","459","598404","0.0-1.0-630.0","0","0","91212","","null","","","null","69","","","","","","","","","","","","","","","NaN",""
"","S1","","html-keyboard-response","460","598657","0.0-1.0-632.0","0","0","91212","","null","","","null","70","","","","","","","","","","","","","","","",""
"","ISI","","html-keyboard-response","461","599659","0.0-1.0-633.0","0","0","91212","","null","","","null","70","NaN","","","","","","","","","","","","","","",""
"","S2","","html-keyboard-response","462","599912","0.0-1.0-634.0","0","0","91212","","null","","","null","70","","NaN","","","","","","","","","","","","","",""
"","response","","html-keyboard-response","463","600437","0.0-1.0-635.0-0.0","0","0","91212","","524","","","68","70","","","2","70","training","adjacent","GF","7","6","N.jpg","M.jpg","1","0","0","",""
"","feedback","","html-keyboard-response","464","601440","0.0-1.0-636.0-0.0","0","0","91212","","null","","","null","70","","","","","","","","","","","","","","","",""
"","time_out","","html-keyboard-response","465","603445","0.0-1.0-638.0-0.0","0","0","91212","","null","","","null","70","","","","","","","","","","","","","","","",""
"","ITI","","html-keyboard-response","466","604447","0.0-1.0-639.0","0","0","91212","","null","","","null","70","","","","","","","","","","","","","","","NaN",""
"","S1","","html-keyboard-response","467","604702","0.0-1.0-641.0","0","0","91212","","null","","","null","71","","","","","","","","","","","","","","","",""
"","ISI","","html-keyboard-response","468","605705","0.0-1.0-642.0","0","0","91212","","null","","","null","71","NaN","","","","","","","","","","","","","","",""
"","S2","","html-keyboard-response","469","605959","0.0-1.0-643.0","0","0","91212","","null","","","null","71","","NaN","","","","","","","","","","","","","",""
"","response","","html-keyboard-response","470","606396","0.0-1.0-644.0-0.0","0","0","91212","","435","","","68","71","","","2","71","training","adjacent","CD","3","4","L.jpg","Q.jpg","1","1","1","",""
"","feedback","","html-keyboard-response","471","607401","0.0-1.0-645.0-0.0","0","0","91212","","null","","","null","71","","","","","","","","","","","","","","","",""
"","ITI","","html-keyboard-response","472","608403","0.0-1.0-648.0","0","0","91212","","null","","","null","71","","","","","","","","","","","","","","","NaN",""
"","S1","","html-keyboard-response","473","608655","0.0-1.0-650.0","0","0","91212","","null","","","null","72","","","","","","","","","","","","","","","",""
"","ISI","","html-keyboard-response","474","609657","0.0-1.0-651.0","0","0","91212","","null","","","null","72","NaN","","","","","","","","","","","","","","",""
"","S2","","html-keyboard-response","475","609911","0.0-1.0-652.0","0","0","91212","","null","","","null","72","","NaN","","","","","","","","","","","","","",""
"","response","","html-keyboard-response","476","610190","0.0-1.0-653.0-0.0","0","0","91212","","278","","","68","72","","","2","72","training","adjacent","EF","5","6","P.jpg","M.jpg","1","1","1","",""
"","feedback","","html-keyboard-response","477","611195","0.0-1.0-654.0-0.0","0","0","91212","","null","","","null","72","","","","","","","","","","","","","","","",""
"","ITI","","html-keyboard-response","478","612198","0.0-1.0-657.0","0","0","91212","","null","","","null","72","","","","","","","","","","","","","","","NaN",""
"","S1","","html-keyboard-response","479","612454","0.0-1.0-659.0","0","0","91212","","null","","","null","73","","","","","","","","","","","","","","","",""
"","ISI","","html-keyboard-response","480","613456","0.0-1.0-660.0","0","0","91212","","null","","","null","73","NaN","","","","","","","","","","","","","","",""
"","S2","","html-keyboard-response","481","613709","0.0-1.0-661.0","0","0","91212","","null","","","null","73","","NaN","","","","","","","","","","","","","",""
"","response","","html-keyboard-response","482","614173","0.0-1.0-662.0-0.0","0","0","91212","","461","","","75","73","","","2","73","training","adjacent","AB","1","2","R.jpg","O.jpg","0","1","0","",""
"","feedback","","html-keyboard-response","483","615175","0.0-1.0-663.0-0.0","0","0","91212","","null","","","null","73","","","","","","","","","","","","","","","",""
"","time_out","","html-keyboard-response","484","617177","0.0-1.0-665.0-0.0","0","0","91212","","null","","","null","73","","","","","","","","","","","","","","","",""
"","ITI","","html-keyboard-response","485","618180","0.0-1.0-666.0","0","0","91212","","null","","","null","73","","","","","","","","","","","","","","","NaN",""
"","S1","","html-keyboard-response","486","618434","0.0-1.0-668.0","0","0","91212","","null","","","null","74","","","","","","","","","","","","","","","",""
"","ISI","","html-keyboard-response","487","619436","0.0-1.0-669.0","0","0","91212","","null","","","null","74","NaN","","","","","","","","","","","","","","",""
"","S2","","html-keyboard-response","488","619688","0.0-1.0-670.0","0","0","91212","","null","","","null","74","","NaN","","","","","","","","","","","","","",""
"","response","","html-keyboard-response","489","620469","0.0-1.0-671.0-0.0","0","0","91212","","779","","","68","74","","","2","74","training","adjacent","BA","2","1","O.jpg","R.jpg","1","0","0","",""
"","feedback","","html-keyboard-response","490","621473","0.0-1.0-672.0-0.0","0","0","91212","","null","","","null","74","","","","","","","","","","","","","","","",""
"","time_out","","html-keyboard-response","491","623476","0.0-1.0-674.0-0.0","0","0","91212","","null","","","null","74","","","","","","","","","","","","","","","",""
"","ITI","","html-keyboard-response","492","624482","0.0-1.0-675.0","0","0","91212","","null","","","null","74","","","","","","","","","","","","","","","NaN",""
"","S1","","html-keyboard-response","493","624737","0.0-1.0-677.0","0","0","91212","","null","","","null","75","","","","","","","","","","","","","","","",""
"","ISI","","html-keyboard-response","494","625741","0.0-1.0-678.0","0","0","91212","","null","","","null","75","NaN","","","","","","","","","","","","","","",""
"","S2","","html-keyboard-response","495","625994","0.0-1.0-679.0","0","0","91212","","null","","","null","75","","NaN","","","","","","","","","","","","","",""
"","response","","html-keyboard-response","496","626779","0.0-1.0-680.0-0.0","0","0","91212","","783","","","75","75","","","2","75","training","adjacent","EF","5","6","P.jpg","M.jpg","0","1","0","",""
"","feedback","","html-keyboard-response","497","627784","0.0-1.0-681.0-0.0","0","0","91212","","null","","","null","75","","","","","","","","","","","","","","","",""
"","time_out","","html-keyboard-response","498","629788","0.0-1.0-683.0-0.0","0","0","91212","","null","","","null","75","","","","","","","","","","","","","","","",""
"","ITI","","html-keyboard-response","499","630792","0.0-1.0-684.0","0","0","91212","","null","","","null","75","","","","","","","","","","","","","","","NaN",""
"","S1","","html-keyboard-response","500","631045","0.0-1.0-686.0","0","0","91212","","null","","","null","76","","","","","","","","","","","","","","","",""
"","ISI","","html-keyboard-response","501","632048","0.0-1.0-687.0","0","0","91212","","null","","","null","76","NaN","","","","","","","","","","","","","","",""
"","S2","","html-keyboard-response","502","632305","0.0-1.0-688.0","0","0","91212","","null","","","null","76","","NaN","","","","","","","","","","","","","",""
"","response","","html-keyboard-response","503","632905","0.0-1.0-689.0-0.0","0","0","91212","","597","","","68","76","","","2","76","training","adjacent","ED","5","4","P.jpg","Q.jpg","1","0","0","",""
"","feedback","","html-keyboard-response","504","633920","0.0-1.0-690.0-0.0","0","0","91212","","null","","","null","76","","","","","","","","","","","","","","","",""
"","time_out","","html-keyboard-response","505","635923","0.0-1.0-692.0-0.0","0","0","91212","","null","","","null","76","","","","","","","","","","","","","","","",""
"","ITI","","html-keyboard-response","506","636926","0.0-1.0-693.0","0","0","91212","","null","","","null","76","","","","","","","","","","","","","","","NaN",""
"","S1","","html-keyboard-response","507","637195","0.0-1.0-695.0","0","0","91212","","null","","","null","77","","","","","","","","","","","","","","","",""
"","ISI","","html-keyboard-response","508","638201","0.0-1.0-696.0","0","0","91212","","null","","","null","77","NaN","","","","","","","","","","","","","","",""
"","S2","","html-keyboard-response","509","638453","0.0-1.0-697.0","0","0","91212","","null","","","null","77","","NaN","","","","","","","","","","","","","",""
"","response","","html-keyboard-response","510","638996","0.0-1.0-698.0-0.0","0","0","91212","","540","","","75","77","","","2","77","training","adjacent","ED","5","4","P.jpg","Q.jpg","0","0","1","",""
"","feedback","","html-keyboard-response","511","640007","0.0-1.0-699.0-0.0","0","0","91212","","null","","","null","77","","","","","","","","","","","","","","","",""
"","ITI","","html-keyboard-response","512","641013","0.0-1.0-702.0","0","0","91212","","null","","","null","77","","","","","","","","","","","","","","","NaN",""
"","S1","","html-keyboard-response","513","641269","0.0-1.0-704.0","0","0","91212","","null","","","null","78","","","","","","","","","","","","","","","",""
"","ISI","","html-keyboard-response","514","642272","0.0-1.0-705.0","0","0","91212","","null","","","null","78","NaN","","","","","","","","","","","","","","",""
"","S2","","html-keyboard-response","515","642524","0.0-1.0-706.0","0","0","91212","","null","","","null","78","","NaN","","","","","","","","","","","","","",""
"","response","","html-keyboard-response","516","642723","0.0-1.0-707.0-0.0","0","0","91212","","197","","","75","78","","","2","78","training","adjacent","ED","5","4","P.jpg","Q.jpg","0","0","1","",""
"","feedback","","html-keyboard-response","517","643727","0.0-1.0-708.0-0.0","0","0","91212","","null","","","null","78","","","","","","","","","","","","","","","",""
"","ITI","","html-keyboard-response","518","644730","0.0-1.0-711.0","0","0","91212","","null","","","null","78","","","","","","","","","","","","","","","NaN",""
"","S1","","html-keyboard-response","519","644987","0.0-1.0-713.0","0","0","91212","","null","","","null","79","","","","","","","","","","","","","","","",""
"","ISI","","html-keyboard-response","520","645990","0.0-1.0-714.0","0","0","91212","","null","","","null","79","NaN","","","","","","","","","","","","","","",""
"","S2","","html-keyboard-response","521","646243","0.0-1.0-715.0","0","0","91212","","null","","","null","79","","NaN","","","","","","","","","","","","","",""
"","response","","html-keyboard-response","522","646404","0.0-1.0-716.0-0.0","0","0","91212","","160","","","75","79","","","2","79","training","adjacent","BC","2","3","O.jpg","L.jpg","0","1","0","",""
"","feedback","","html-keyboard-response","523","647408","0.0-1.0-717.0-0.0","0","0","91212","","null","","","null","79","","","","","","","","","","","","","","","",""
"","time_out","","html-keyboard-response","524","649410","0.0-1.0-719.0-0.0","0","0","91212","","null","","","null","79","","","","","","","","","","","","","","","",""
"","ITI","","html-keyboard-response","525","650418","0.0-1.0-720.0","0","0","91212","","null","","","null","79","","","","","","","","","","","","","","","NaN",""
"","S1","","html-keyboard-response","526","650672","0.0-1.0-722.0","0","0","91212","","null","","","null","80","","","","","","","","","","","","","","","",""
"","ISI","","html-keyboard-response","527","651674","0.0-1.0-723.0","0","0","91212","","null","","","null","80","NaN","","","","","","","","","","","","","","",""
"","S2","","html-keyboard-response","528","651929","0.0-1.0-724.0","0","0","91212","","null","","","null","80","","NaN","","","","","","","","","","","","","",""
"","response","","html-keyboard-response","529","652187","0.0-1.0-725.0-0.0","0","0","91212","","257","","","68","80","","","2","80","training","adjacent","FG","6","7","M.jpg","N.jpg","1","1","1","",""
"","feedback","","html-keyboard-response","530","653191","0.0-1.0-726.0-0.0","0","0","91212","","null","","","null","80","","","","","","","","","","","","","","","",""
"","ITI","","html-keyboard-response","531","654194","0.0-1.0-729.0","0","0","91212","","null","","","null","80","","","","","","","","","","","","","","","NaN",""
"","S1","","html-keyboard-response","532","654446","0.0-1.0-731.0","0","0","91212","","null","","","null","81","","","","","","","","","","","","","","","",""
"","ISI","","html-keyboard-response","533","655450","0.0-1.0-732.0","0","0","91212","","null","","","null","81","NaN","","","","","","","","","","","","","","",""
"","S2","","html-keyboard-response","534","655702","0.0-1.0-733.0","0","0","91212","","null","","","null","81","","NaN","","","","","","","","","","","","","",""
"","response","","html-keyboard-response","535","657455","0.0-1.0-734.0-0.0","0","0","91212","","null","","","null","81","","","2","81","training","adjacent","DE","4","5","Q.jpg","P.jpg","NaN","1","0","",""
"","too_slow_prompt","","html-keyboard-response","536","658456","0.0-1.0-736.0-0.0","1","0","91212","","null","","","null","","","","","","","","","","","","","","","","",""
"","time_out","","html-keyboard-response","537","660460","0.0-1.0-737.0-0.0","0","0","91212","","null","","","null","81","","","","","","","","","","","","","","","",""
"","ITI","","html-keyboard-response","538","661469","0.0-1.0-738.0","0","0","91212","","null","","","null","81","","","","","","","","","","","","","","","NaN",""
"","S1","","html-keyboard-response","539","661723","0.0-1.0-740.0","0","0","91212","","null","","","null","82","","","","","","","","","","","","","","","",""
"","ISI","","html-keyboard-response","540","662727","0.0-1.0-741.0","0","0","91212","","null","","","null","82","NaN","","","","","","","","","","","","","","",""
"","S2","","html-keyboard-response","541","662980","0.0-1.0-742.0","0","0","91212","","null","","","null","82","","NaN","","","","","","","","","","","","","",""
"","response","","html-keyboard-response","542","663186","0.0-1.0-743.0-0.0","0","0","91212","","204","","","75","82","","","2","82","training","adjacent","BA","2","1","O.jpg","R.jpg","0","0","1","",""
"","feedback","","html-keyboard-response","543","664189","0.0-1.0-744.0-0.0","0","0","91212","","null","","","null","82","","","","","","","","","","","","","","","",""
"","ITI","","html-keyboard-response","544","665194","0.0-1.0-747.0","0","0","91212","","null","","","null","82","","","","","","","","","","","","","","","NaN",""
"","S1","","html-keyboard-response","545","665446","0.0-1.0-749.0","0","0","91212","","null","","","null","83","","","","","","","","","","","","","","","",""
"","ISI","","html-keyboard-response","546","666450","0.0-1.0-750.0","0","0","91212","","null","","","null","83","NaN","","","","","","","","","","","","","","",""
"","S2","","html-keyboard-response","547","666703","0.0-1.0-751.0","0","0","91212","","null","","","null","83","","NaN","","","","","","","","","","","","","",""
"","response","","html-keyboard-response","548","667099","0.0-1.0-752.0-0.0","0","0","91212","","394","","","68","83","","","2","83","training","adjacent","CB","3","2","L.jpg","O.jpg","1","0","0","",""
"","feedback","","html-keyboard-response","549","668102","0.0-1.0-753.0-0.0","0","0","91212","","null","","","null","83","","","","","","","","","","","","","","","",""
"","time_out","","html-keyboard-response","550","670106","0.0-1.0-755.0-0.0","0","0","91212","","null","","","null","83","","","","","","","","","","","","","","","",""
"","ITI","","html-keyboard-response","551","671109","0.0-1.0-756.0","0","0","91212","","null","","","null","83","","","","","","","","","","","","","","","NaN",""
"","S1","","html-keyboard-response","552","671366","0.0-1.0-758.0","0","0","91212","","null","","","null","84","","","","","","","","","","","","","","","",""
"","ISI","","html-keyboard-response","553","672370","0.0-1.0-759.0","0","0","91212","","null","","","null","84","NaN","","","","","","","","","","","","","","",""
"","S2","","html-keyboard-response","554","672623","0.0-1.0-760.0","0","0","91212","","null","","","null","84","","NaN","","","","","","","","","","","","","",""
"","response","","html-keyboard-response","555","673213","0.0-1.0-761.0-0.0","0","0","91212","","587","","","68","84","","","2","84","training","adjacent","FE","6","5","M.jpg","P.jpg","1","0","0","",""
"","feedback","","html-keyboard-response","556","674220","0.0-1.0-762.0-0.0","0","0","91212","","null","","","null","84","","","","","","","","","","","","","","","",""
"","time_out","","html-keyboard-response","557","676224","0.0-1.0-764.0-0.0","0","0","91212","","null","","","null","84","","","","","","","","","","","","","","","",""
"","ITI","","html-keyboard-response","558","677227","0.0-1.0-765.0","0","0","91212","","null","","","null","84","","","","","","","","","","","","","","","NaN",""
"","S1","","html-keyboard-response","559","677479","0.0-1.0-767.0","0","0","91212","","null","","","null","85","","","","","","","","","","","","","","","",""
"","ISI","","html-keyboard-response","560","678484","0.0-1.0-768.0","0","0","91212","","null","","","null","85","NaN","","","","","","","","","","","","","","",""
"","S2","","html-keyboard-response","561","678736","0.0-1.0-769.0","0","0","91212","","null","","","null","85","","NaN","","","","","","","","","","","","","",""
"","response","","html-keyboard-response","562","679195","0.0-1.0-770.0-0.0","0","0","91212","","457","","","68","85","","","2","85","training","adjacent","FG","6","7","M.jpg","N.jpg","1","1","1","",""
"","feedback","","html-keyboard-response","563","680203","0.0-1.0-771.0-0.0","0","0","91212","","null","","","null","85","","","","","","","","","","","","","","","",""
"","ITI","","html-keyboard-response","564","681207","0.0-1.0-774.0","0","0","91212","","null","","","null","85","","","","","","","","","","","","","","","NaN",""
"","S1","","html-keyboard-response","565","681461","0.0-1.0-776.0","0","0","91212","","null","","","null","86","","","","","","","","","","","","","","","",""
"","ISI","","html-keyboard-response","566","682467","0.0-1.0-777.0","0","0","91212","","null","","","null","86","NaN","","","","","","","","","","","","","","",""
"","S2","","html-keyboard-response","567","682720","0.0-1.0-778.0","0","0","91212","","null","","","null","86","","NaN","","","","","","","","","","","","","",""
"","response","","html-keyboard-response","568","683335","0.0-1.0-779.0-0.0","0","0","91212","","610","","","75","86","","","2","86","training","adjacent","FE","6","5","M.jpg","P.jpg","0","0","1","",""
"","feedback","","html-keyboard-response","569","684338","0.0-1.0-780.0-0.0","0","0","91212","","null","","","null","86","","","","","","","","","","","","","","","",""
"","ITI","","html-keyboard-response","570","685341","0.0-1.0-783.0","0","0","91212","","null","","","null","86","","","","","","","","","","","","","","","NaN",""
"","S1","","html-keyboard-response","571","685593","0.0-1.0-785.0","0","0","91212","","null","","","null","87","","","","","","","","","","","","","","","",""
"","ISI","","html-keyboard-response","572","686597","0.0-1.0-786.0","0","0","91212","","null","","","null","87","NaN","","","","","","","","","","","","","","",""
"","S2","","html-keyboard-response","573","686858","0.0-1.0-787.0","0","0","91212","","null","","","null","87","","NaN","","","","","","","","","","","","","",""
"","response","","html-keyboard-response","574","687360","0.0-1.0-788.0-0.0","0","0","91212","","499","","","68","87","","","2","87","training","adjacent","CD","3","4","L.jpg","Q.jpg","1","1","1","",""
"","feedback","","html-keyboard-response","575","688373","0.0-1.0-789.0-0.0","0","0","91212","","null","","","null","87","","","","","","","","","","","","","","","",""
"","ITI","","html-keyboard-response","576","689376","0.0-1.0-792.0","0","0","91212","","null","","","null","87","","","","","","","","","","","","","","","NaN",""
"","S1","","html-keyboard-response","577","689630","0.0-1.0-794.0","0","0","91212","","null","","","null","88","","","","","","","","","","","","","","","",""
"","ISI","","html-keyboard-response","578","690637","0.0-1.0-795.0","0","0","91212","","null","","","null","88","NaN","","","","","","","","","","","","","","",""
"","S2","","html-keyboard-response","579","690890","0.0-1.0-796.0","0","0","91212","","null","","","null","88","","NaN","","","","","","","","","","","","","",""
"","response","","html-keyboard-response","580","691275","0.0-1.0-797.0-0.0","0","0","91212","","383","","","75","88","","","2","88","training","adjacent","DE","4","5","Q.jpg","P.jpg","0","1","0","",""
"","feedback","","html-keyboard-response","581","692280","0.0-1.0-798.0-0.0","0","0","91212","","null","","","null","88","","","","","","","","","","","","","","","",""
