"success","ttype","start_time","trial_type","trial_index","time_elapsed","internal_node_id","warning","missed_checkup","PID","view_history","rt","responses","repeat_instructions","key_press","index","keypress_isi","keypress_S2","block","trial_num","phase","group_type","pair_type","S1_stim","S2_stim","S1_img","S2_img","S1_chosen","S1_higher","accuracy","keypress_iti","total_bonus_tally"
"true","full_screen","d03042023hr2138","fullscreen","0","4470","0.0-0.0","0","0","37652","","","","","","","","","","","","","","","","","","","","","",""
"","instructions","","instructions","1","77662","0.0-1.0-0.0-0.0","0","0","37652","[{""page_index"":0,""viewing_time"":16741},{""page_index"":1,""viewing_time"":42816},{""page_index"":2,""viewing_time"":8769},{""page_index"":3,""viewing_time"":4855}]","73184","","","","","","","","","","","","","","","","","","","",""
"","comprehension_check","","survey-multi-choice","2","130768","0.0-1.0-0.0-1.0","0","0","37652","","53069","{""Q0"":""True"",""Q1"":""D"",""Q2"":""Once the second image appears and while the screen 'MAKE A CHOICE' is shown"",""Q3"":""Green mark"",""Q4"":""either D or K""}","0","","","","","","","","","","","","","","","","","",""
"","start_exp","","html-keyboard-response","3","490681","0.0-1.0-1.0","0","0","37652","","359893","","","32","","","","","","","","","","","","","","","","",""
"","S1","","html-keyboard-response","4","491016","0.0-1.0-2.0","0","0","37652","","null","","","null","0","","","","","","","","","","","","","","","",""
"","ISI","","html-keyboard-response","5","491624","0.0-1.0-3.0","0","0","37652","","null","","","null","0","NaN","","","","","","","","","","","","","","",""
"","S2","","html-keyboard-response","6","491885","0.0-1.0-4.0","0","0","37652","","null","","","null","0","","NaN","","","","","","","","","","","","","",""
"","response","","html-keyboard-response","7","493641","0.0-1.0-5.0-0.0","0","0","37652","","null","","","null","0","","","1","0","training","adjacent","AB","1","2","O.jpg","M.jpg","NaN","1","0","",""
"","too_slow_prompt","","html-keyboard-response","8","494646","0.0-1.0-7.0-0.0","1","0","37652","","null","","","null","","","","","","","","","","","","","","","","",""
"","time_out","","html-keyboard-response","9","496651","0.0-1.0-8.0-0.0","0","0","37652","","null","","","null","0","","","","","","","","","","","","","","","",""
"","ITI","","html-keyboard-response","10","497655","0.0-1.0-9.0","0","0","37652","","null","","","null","0","","","","","","","","","","","","","","","NaN",""
"","S1","","html-keyboard-response","11","497912","0.0-1.0-11.0","0","0","37652","","null","","","null","1","","","","","","","","","","","","","","","",""
"","ISI","","html-keyboard-response","12","498469","0.0-1.0-12.0","0","0","37652","","538","","","75","1","k","","","","","","","","","","","","","","",""
"","S2","","html-keyboard-response","13","498736","0.0-1.0-13.0","0","0","37652","","null","","","null","1","","NaN","","","","","","","","","","","","","",""
"","response","","html-keyboard-response","14","499739","0.0-1.0-14.0-0.0","0","0","37652","","1001","","","75","1","","","1","1","training","adjacent","DC","4","3","P.jpg","N.jpg","0","0","1","",""
"","feedback","","html-keyboard-response","15","500746","0.0-1.0-15.0-0.0","0","0","37652","","null","","","null","1","","","","","","","","","","","","","","","",""
"","ITI","","html-keyboard-response","16","501751","0.0-1.0-18.0","0","0","37652","","null","","","null","1","","","","","","","","","","","","","","","NaN",""
"","S1","","html-keyboard-response","17","502016","0.0-1.0-20.0","0","0","37652","","null","","","null","2","","","","","","","","","","","","","","","",""
"","ISI","","html-keyboard-response","18","502524","0.0-1.0-21.0","0","0","37652","","392","","","75","2","k","","","","","","","","","","","","","","",""
"","S2","","html-keyboard-response","19","502781","0.0-1.0-22.0","0","0","37652","","null","","","null","2","","NaN","","","","","","","","","","","","","",""
"","response","","html-keyboard-response","20","503018","0.0-1.0-23.0-0.0","0","0","37652","","233","","","75","2","","","1","2","training","adjacent","CD","3","4","N.jpg","P.jpg","0","1","0","",""
"","feedback","","html-keyboard-response","21","504059","0.0-1.0-24.0-0.0","0","0","37652","","null","","","null","2","","","","","","","","","","","","","","","",""
"","time_out","","html-keyboard-response","22","506090","0.0-1.0-26.0-0.0","0","0","37652","","null","","","null","2","","","","","","","","","","","","","","","",""
"","ITI","","html-keyboard-response","23","507100","0.0-1.0-27.0","0","0","37652","","null","","","null","2","","","","","","","","","","","","","","","NaN",""
"","S1","","html-keyboard-response","24","507362","0.0-1.0-29.0","0","0","37652","","null","","","null","3","","","","","","","","","","","","","","","",""
"","ISI","","html-keyboard-response","25","507867","0.0-1.0-30.0","0","0","37652","","317","","","75","3","k","","","","","","","","","","","","","","",""
"","S2","","html-keyboard-response","26","508126","0.0-1.0-31.0","0","0","37652","","null","","","null","3","","NaN","","","","","","","","","","","","","",""
"","response","","html-keyboard-response","27","508751","0.0-1.0-32.0-0.0","0","0","37652","","619","","","75","3","","","1","3","training","adjacent","BA","2","1","M.jpg","O.jpg","0","0","1","",""
"","feedback","","html-keyboard-response","28","509758","0.0-1.0-33.0-0.0","0","0","37652","","null","","","null","3","","","","","","","","","","","","","","","",""
"","ITI","","html-keyboard-response","29","510766","0.0-1.0-36.0","0","0","37652","","null","","","null","3","","","","","","","","","","","","","","","NaN",""
"","S1","","html-keyboard-response","30","511022","0.0-1.0-38.0","0","0","37652","","null","","","null","4","","","","","","","","","","","","","","","",""
"","ISI","","html-keyboard-response","31","511556","0.0-1.0-39.0","0","0","37652","","null","","","null","4","NaN","","","","","","","","","","","","","","",""
"","S2","","html-keyboard-response","32","511820","0.0-1.0-40.0","0","0","37652","","null","","","null","4","","NaN","","","","","","","","","","","","","",""
"","response","","html-keyboard-response","33","512283","0.0-1.0-41.0-0.0","0","0","37652","","458","","","75","4","","","1","4","training","adjacent","DC","4","3","P.jpg","N.jpg","0","0","1","",""
"","feedback","","html-keyboard-response","34","513288","0.0-1.0-42.0-0.0","0","0","37652","","null","","","null","4","","","","","","","","","","","","","","","",""
"","ITI","","html-keyboard-response","35","514299","0.0-1.0-45.0","0","0","37652","","null","","","null","4","","","","","","","","","","","","","","","NaN",""
"","S1","","html-keyboard-response","36","514553","0.0-1.0-47.0","0","0","37652","","null","","","null","5","","","","","","","","","","","","","","","",""
"","ISI","","html-keyboard-response","37","515058","0.0-1.0-48.0","0","0","37652","","null","","","null","5","NaN","","","","","","","","","","","","","","",""
"","S2","","html-keyboard-response","38","515328","0.0-1.0-49.0","0","0","37652","","null","","","null","5","","NaN","","","","","","","","","","","","","",""
"","response","","html-keyboard-response","39","515388","0.0-1.0-50.0-0.0","0","0","37652","","56","","","68","5","","","1","5","training","adjacent","ED","5","4","Q.jpg","P.jpg","1","0","0","",""
"","feedback","","html-keyboard-response","40","516397","0.0-1.0-51.0-0.0","0","0","37652","","null","","","null","5","","","","","","","","","","","","","","","",""
"","time_out","","html-keyboard-response","41","518403","0.0-1.0-53.0-0.0","0","0","37652","","null","","","null","5","","","","","","","","","","","","","","","",""
"","ITI","","html-keyboard-response","42","519408","0.0-1.0-54.0","0","0","37652","","null","","","null","5","","","","","","","","","","","","","","","NaN",""
"","S1","","html-keyboard-response","43","519665","0.0-1.0-56.0","0","0","37652","","null","","","null","6","","","","","","","","","","","","","","","",""
"","ISI","","html-keyboard-response","44","520170","0.0-1.0-57.0","0","0","37652","","null","","","null","6","NaN","","","","","","","","","","","","","","",""
"","S2","","html-keyboard-response","45","520431","0.0-1.0-58.0","0","0","37652","","null","","","null","6","","NaN","","","","","","","","","","","","","",""
"","response","","html-keyboard-response","46","520494","0.0-1.0-59.0-0.0","0","0","37652","","58","","","75","6","","","1","6","training","adjacent","DE","4","5","P.jpg","Q.jpg","0","1","0","",""
"","feedback","","html-keyboard-response","47","521502","0.0-1.0-60.0-0.0","0","0","37652","","null","","","null","6","","","","","","","","","","","","","","","",""
"","time_out","","html-keyboard-response","48","523515","0.0-1.0-62.0-0.0","0","0","37652","","null","","","null","6","","","","","","","","","","","","","","","",""
"","ITI","","html-keyboard-response","49","524519","0.0-1.0-63.0","0","0","37652","","null","","","null","6","","","","","","","","","","","","","","","NaN",""
"","S1","","html-keyboard-response","50","524775","0.0-1.0-65.0","0","0","37652","","null","","","null","7","","","","","","","","","","","","","","","",""
"","ISI","","html-keyboard-response","51","525281","0.0-1.0-66.0","0","0","37652","","null","","","null","7","NaN","","","","","","","","","","","","","","",""
"","S2","","html-keyboard-response","52","525535","0.0-1.0-67.0","0","0","37652","","null","","","null","7","","NaN","","","","","","","","","","","","","",""
"","response","","html-keyboard-response","53","525992","0.0-1.0-68.0-0.0","0","0","37652","","452","","","75","7","","","1","7","training","adjacent","ED","5","4","Q.jpg","P.jpg","0","0","1","",""
"","feedback","","html-keyboard-response","54","527001","0.0-1.0-69.0-0.0","0","0","37652","","null","","","null","7","","","","","","","","","","","","","","","",""
"","ITI","","html-keyboard-response","55","528007","0.0-1.0-72.0","0","0","37652","","null","","","null","7","","","","","","","","","","","","","","","NaN",""
"","S1","","html-keyboard-response","56","528266","0.0-1.0-74.0","0","0","37652","","null","","","null","8","","","","","","","","","","","","","","","",""
"","ISI","","html-keyboard-response","57","528772","0.0-1.0-75.0","0","0","37652","","null","","","null","8","NaN","","","","","","","","","","","","","","",""
"","S2","","html-keyboard-response","58","529033","0.0-1.0-76.0","0","0","37652","","null","","","null","8","","NaN","","","","","","","","","","","","","",""
"","response","","html-keyboard-response","59","529433","0.0-1.0-77.0-0.0","0","0","37652","","396","","","75","8","","","1","8","training","adjacent","CB","3","2","N.jpg","M.jpg","0","0","1","",""
"","feedback","","html-keyboard-response","60","530451","0.0-1.0-78.0-0.0","0","0","37652","","null","","","null","8","","","","","","","","","","","","","","","",""
"","ITI","","html-keyboard-response","61","531456","0.0-1.0-81.0","0","0","37652","","null","","","null","8","","","","","","","","","","","","","","","NaN",""
"","S1","","html-keyboard-response","62","531715","0.0-1.0-83.0","0","0","37652","","null","","","null","9","","","","","","","","","","","","","","","",""
"","ISI","","html-keyboard-response","63","532221","0.0-1.0-84.0","0","0","37652","","null","","","null","9","NaN","","","","","","","","","","","","","","",""
"","S2","","html-keyboard-response","64","532480","0.0-1.0-85.0","0","0","37652","","null","","","null","9","","NaN","","","","","","","","","","","","","",""
"","response","","html-keyboard-response","65","533008","0.0-1.0-86.0-0.0","0","0","37652","","521","","","68","9","","","1","9","training","adjacent","BC","2","3","M.jpg","N.jpg","1","1","1","",""
"","feedback","","html-keyboard-response","66","534018","0.0-1.0-87.0-0.0","0","0","37652","","null","","","null","9","","","","","","","","","","","","","","","",""
"","ITI","","html-keyboard-response","67","535025","0.0-1.0-90.0","0","0","37652","","null","","","null","9","","","","","","","","","","","","","","","NaN",""
"","S1","","html-keyboard-response","68","535281","0.0-1.0-92.0","0","0","37652","","null","","","null","10","","","","","","","","","","","","","","","",""
"","ISI","","html-keyboard-response","69","535786","0.0-1.0-93.0","0","0","37652","","null","","","null","10","NaN","","","","","","","","","","","","","","",""
"","S2","","html-keyboard-response","70","536044","0.0-1.0-94.0","0","0","37652","","null","","","null","10","","NaN","","","","","","","","","","","","","",""
"","response","","html-keyboard-response","71","536453","0.0-1.0-95.0-0.0","0","0","37652","","400","","","68","10","","","1","10","training","adjacent","FE","6","5","R.jpg","Q.jpg","1","0","0","",""
"","feedback","","html-keyboard-response","72","537460","0.0-1.0-96.0-0.0","0","0","37652","","null","","","null","10","","","","","","","","","","","","","","","",""
"","time_out","","html-keyboard-response","73","539485","0.0-1.0-98.0-0.0","0","0","37652","","null","","","null","10","","","","","","","","","","","","","","","",""
"","ITI","","html-keyboard-response","74","540491","0.0-1.0-99.0","0","0","37652","","null","","","null","10","","","","","","","","","","","","","","","NaN",""
"","S1","","html-keyboard-response","75","540747","0.0-1.0-101.0","0","0","37652","","null","","","null","11","","","","","","","","","","","","","","","",""
"","ISI","","html-keyboard-response","76","541254","0.0-1.0-102.0","0","0","37652","","null","","","null","11","NaN","","","","","","","","","","","","","","",""
"","S2","","html-keyboard-response","77","541510","0.0-1.0-103.0","0","0","37652","","null","","","null","11","","NaN","","","","","","","","","","","","","",""
"","response","","html-keyboard-response","78","541985","0.0-1.0-104.0-0.0","0","0","37652","","467","","","75","11","","","1","11","training","adjacent","FG","6","7","R.jpg","L.jpg","0","1","0","",""
"","feedback","","html-keyboard-response","79","542993","0.0-1.0-105.0-0.0","0","0","37652","","null","","","null","11","","","","","","","","","","","","","","","",""
"","time_out","","html-keyboard-response","80","545002","0.0-1.0-107.0-0.0","0","0","37652","","null","","","null","11","","","","","","","","","","","","","","","",""
"","ITI","","html-keyboard-response","81","546008","0.0-1.0-108.0","0","0","37652","","null","","","null","11","","","","","","","","","","","","","","","NaN",""
"","S1","","html-keyboard-response","82","546266","0.0-1.0-110.0","0","0","37652","","null","","","null","12","","","","","","","","","","","","","","","",""
"","ISI","","html-keyboard-response","83","546771","0.0-1.0-111.0","0","0","37652","","null","","","null","12","NaN","","","","","","","","","","","","","","",""
"","S2","","html-keyboard-response","84","547032","0.0-1.0-112.0","0","0","37652","","null","","","null","12","","NaN","","","","","","","","","","","","","",""
"","response","","html-keyboard-response","85","547247","0.0-1.0-113.0-0.0","0","0","37652","","206","","","75","12","","","1","12","training","adjacent","GF","7","6","L.jpg","R.jpg","0","0","1","",""
"","feedback","","html-keyboard-response","86","548254","0.0-1.0-114.0-0.0","0","0","37652","","null","","","null","12","","","","","","","","","","","","","","","",""
"","ITI","","html-keyboard-response","87","549264","0.0-1.0-117.0","0","0","37652","","null","","","null","12","","","","","","","","","","","","","","","NaN",""
"","S1","","html-keyboard-response","88","549520","0.0-1.0-119.0","0","0","37652","","null","","","null","13","","","","","","","","","","","","","","","",""
"","ISI","","html-keyboard-response","89","550030","0.0-1.0-120.0","0","0","37652","","null","","","null","13","NaN","","","","","","","","","","","","","","",""
"","S2","","html-keyboard-response","90","550285","0.0-1.0-121.0","0","0","37652","","null","","","null","13","","NaN","","","","","","","","","","","","","",""
"","response","","html-keyboard-response","91","550765","0.0-1.0-122.0-0.0","0","0","37652","","472","","","68","13","","","1","13","training","adjacent","FE","6","5","R.jpg","Q.jpg","1","0","0","",""
"","feedback","","html-keyboard-response","92","551772","0.0-1.0-123.0-0.0","0","0","37652","","null","","","null","13","","","","","","","","","","","","","","","",""
"","time_out","","html-keyboard-response","93","553785","0.0-1.0-125.0-0.0","0","0","37652","","null","","","null","13","","","","","","","","","","","","","","","",""
"","ITI","","html-keyboard-response","94","554791","0.0-1.0-126.0","0","0","37652","","null","","","null","13","","","","","","","","","","","","","","","NaN",""
"","S1","","html-keyboard-response","95","555072","0.0-1.0-128.0","0","0","37652","","null","","","null","14","","","","","","","","","","","","","","","",""
"","ISI","","html-keyboard-response","96","555598","0.0-1.0-129.0","0","0","37652","","null","","","null","14","NaN","","","","","","","","","","","","","","",""
"","S2","","html-keyboard-response","97","555860","0.0-1.0-130.0","0","0","37652","","null","","","null","14","","NaN","","","","","","","","","","","","","",""
"","response","","html-keyboard-response","98","556496","0.0-1.0-131.0-0.0","0","0","37652","","628","","","75","14","","","1","14","training","adjacent","GF","7","6","L.jpg","R.jpg","0","0","1","",""
"","feedback","","html-keyboard-response","99","557518","0.0-1.0-132.0-0.0","0","0","37652","","null","","","null","14","","","","","","","","","","","","","","","",""
"","ITI","","html-keyboard-response","100","558523","0.0-1.0-135.0","0","0","37652","","null","","","null","14","","","","","","","","","","","","","","","NaN",""
"","S1","","html-keyboard-response","101","558783","0.0-1.0-137.0","0","0","37652","","null","","","null","15","","","","","","","","","","","","","","","",""
"","ISI","","html-keyboard-response","102","559340","0.0-1.0-138.0","0","0","37652","","null","","","null","15","NaN","","","","","","","","","","","","","","",""
"","S2","","html-keyboard-response","103","559735","0.0-1.0-139.0","0","0","37652","","null","","","null","15","","NaN","","","","","","","","","","","","","",""
"","response","","html-keyboard-response","104","560383","0.0-1.0-140.0-0.0","0","0","37652","","645","","","75","15","","","1","15","training","adjacent","FE","6","5","R.jpg","Q.jpg","0","0","1","",""
"","feedback","","html-keyboard-response","105","561389","0.0-1.0-141.0-0.0","0","0","37652","","null","","","null","15","","","","","","","","","","","","","","","",""
"","ITI","","html-keyboard-response","106","562400","0.0-1.0-144.0","0","0","37652","","null","","","null","15","","","","","","","","","","","","","","","NaN",""
"","S1","","html-keyboard-response","107","562658","0.0-1.0-146.0","0","0","37652","","null","","","null","16","","","","","","","","","","","","","","","",""
"","ISI","","html-keyboard-response","108","563165","0.0-1.0-147.0","0","0","37652","","null","","","null","16","NaN","","","","","","","","","","","","","","",""
"","S2","","html-keyboard-response","109","563421","0.0-1.0-148.0","0","0","37652","","null","","","null","16","","NaN","","","","","","","","","","","","","",""
"","response","","html-keyboard-response","110","563735","0.0-1.0-149.0-0.0","0","0","37652","","308","","","68","16","","","1","16","training","adjacent","FE","6","5","R.jpg","Q.jpg","1","0","0","",""
"","feedback","","html-keyboard-response","111","564740","0.0-1.0-150.0-0.0","0","0","37652","","null","","","null","16","","","","","","","","","","","","","","","",""
"","time_out","","html-keyboard-response","112","566748","0.0-1.0-152.0-0.0","0","0","37652","","null","","","null","16","","","","","","","","","","","","","","","",""
"","ITI","","html-keyboard-response","113","567756","0.0-1.0-153.0","0","0","37652","","null","","","null","16","","","","","","","","","","","","","","","NaN",""
"","S1","","html-keyboard-response","114","568015","0.0-1.0-155.0","0","0","37652","","null","","","null","17","","","","","","","","","","","","","","","",""
"","ISI","","html-keyboard-response","115","568521","0.0-1.0-156.0","0","0","37652","","null","","","null","17","NaN","","","","","","","","","","","","","","",""
"","S2","","html-keyboard-response","116","568778","0.0-1.0-157.0","0","0","37652","","null","","","null","17","","NaN","","","","","","","","","","","","","",""
"","response","","html-keyboard-response","117","569181","0.0-1.0-158.0-0.0","0","0","37652","","399","","","75","17","","","1","17","training","adjacent","CD","3","4","N.jpg","P.jpg","0","1","0","",""
"","feedback","","html-keyboard-response","118","570186","0.0-1.0-159.0-0.0","0","0","37652","","null","","","null","17","","","","","","","","","","","","","","","",""
"","time_out","","html-keyboard-response","119","572189","0.0-1.0-161.0-0.0","0","0","37652","","null","","","null","17","","","","","","","","","","","","","","","",""
"","ITI","","html-keyboard-response","120","573196","0.0-1.0-162.0","0","0","37652","","null","","","null","17","","","","","","","","","","","","","","","NaN",""
"","S1","","html-keyboard-response","121","573450","0.0-1.0-164.0","0","0","37652","","null","","","null","18","","","","","","","","","","","","","","","",""
"","ISI","","html-keyboard-response","122","573955","0.0-1.0-165.0","0","0","37652","","null","","","null","18","NaN","","","","","","","","","","","","","","",""
"","S2","","html-keyboard-response","123","574214","0.0-1.0-166.0","0","0","37652","","null","","","null","18","","NaN","","","","","","","","","","","","","",""
"","response","","html-keyboard-response","124","574634","0.0-1.0-167.0-0.0","0","0","37652","","415","","","75","18","","","1","18","training","adjacent","BA","2","1","M.jpg","O.jpg","0","0","1","",""
"","feedback","","html-keyboard-response","125","575646","0.0-1.0-168.0-0.0","0","0","37652","","null","","","null","18","","","","","","","","","","","","","","","",""
"","ITI","","html-keyboard-response","126","576654","0.0-1.0-171.0","0","0","37652","","null","","","null","18","","","","","","","","","","","","","","","NaN",""
"","S1","","html-keyboard-response","127","576919","0.0-1.0-173.0","0","0","37652","","null","","","null","19","","","","","","","","","","","","","","","",""
"","ISI","","html-keyboard-response","128","577430","0.0-1.0-174.0","0","0","37652","","null","","","null","19","NaN","","","","","","","","","","","","","","",""
"","S2","","html-keyboard-response","129","577686","0.0-1.0-175.0","0","0","37652","","null","","","null","19","","NaN","","","","","","","","","","","","","",""
"","response","","html-keyboard-response","130","578101","0.0-1.0-176.0-0.0","0","0","37652","","408","","","75","19","","","1","19","training","adjacent","DE","4","5","P.jpg","Q.jpg","0","1","0","",""
"","feedback","","html-keyboard-response","131","579108","0.0-1.0-177.0-0.0","0","0","37652","","null","","","null","19","","","","","","","","","","","","","","","",""
"","time_out","","html-keyboard-response","132","581117","0.0-1.0-179.0-0.0","0","0","37652","","null","","","null","19","","","","","","","","","","","","","","","",""
"","ITI","","html-keyboard-response","133","582124","0.0-1.0-180.0","0","0","37652","","null","","","null","19","","","","","","","","","","","","","","","NaN",""
"","S1","","html-keyboard-response","134","582384","0.0-1.0-182.0","0","0","37652","","null","","","null","20","","","","","","","","","","","","","","","",""
"","ISI","","html-keyboard-response","135","582889","0.0-1.0-183.0","0","0","37652","","null","","","null","20","NaN","","","","","","","","","","","","","","",""
"","S2","","html-keyboard-response","136","583146","0.0-1.0-184.0","0","0","37652","","null","","","null","20","","NaN","","","","","","","","","","","","","",""
"","response","","html-keyboard-response","137","583358","0.0-1.0-185.0-0.0","0","0","37652","","208","","","75","20","","","1","20","training","adjacent","ED","5","4","Q.jpg","P.jpg","0","0","1","",""
"","feedback","","html-keyboard-response","138","584366","0.0-1.0-186.0-0.0","0","0","37652","","null","","","null","20","","","","","","","","","","","","","","","",""
"","ITI","","html-keyboard-response","139","585386","0.0-1.0-189.0","0","0","37652","","null","","","null","20","","","","","","","","","","","","","","","NaN",""
"","S1","","html-keyboard-response","140","585665","0.0-1.0-191.0","0","0","37652","","null","","","null","21","","","","","","","","","","","","","","","",""
"","ISI","","html-keyboard-response","141","586196","0.0-1.0-192.0","0","0","37652","","null","","","null","21","NaN","","","","","","","","","","","","","","",""
"","S2","","html-keyboard-response","142","586454","0.0-1.0-193.0","0","0","37652","","null","","","null","21","","NaN","","","","","","","","","","","","","",""
"","response","","html-keyboard-response","143","586697","0.0-1.0-194.0-0.0","0","0","37652","","239","","","75","21","","","1","21","training","adjacent","EF","5","6","Q.jpg","R.jpg","0","1","0","",""
"","feedback","","html-keyboard-response","144","587701","0.0-1.0-195.0-0.0","0","0","37652","","null","","","null","21","","","","","","","","","","","","","","","",""
"","time_out","","html-keyboard-response","145","589706","0.0-1.0-197.0-0.0","0","0","37652","","null","","","null","21","","","","","","","","","","","","","","","",""
"","ITI","","html-keyboard-response","146","590712","0.0-1.0-198.0","0","0","37652","","null","","","null","21","","","","","","","","","","","","","","","NaN",""
"","S1","","html-keyboard-response","147","590968","0.0-1.0-200.0","0","0","37652","","null","","","null","22","","","","","","","","","","","","","","","",""
"","ISI","","html-keyboard-response","148","591473","0.0-1.0-201.0","0","0","37652","","null","","","null","22","NaN","","","","","","","","","","","","","","",""
"","S2","","html-keyboard-response","149","591730","0.0-1.0-202.0","0","0","37652","","null","","","null","22","","NaN","","","","","","","","","","","","","",""
"","response","","html-keyboard-response","150","591939","0.0-1.0-203.0-0.0","0","0","37652","","206","","","75","22","","","1","22","training","adjacent","EF","5","6","Q.jpg","R.jpg","0","1","0","",""
"","feedback","","html-keyboard-response","151","592947","0.0-1.0-204.0-0.0","0","0","37652","","null","","","null","22","","","","","","","","","","","","","","","",""
"","time_out","","html-keyboard-response","152","594952","0.0-1.0-206.0-0.0","0","0","37652","","null","","","null","22","","","","","","","","","","","","","","","",""
"","ITI","","html-keyboard-response","153","595961","0.0-1.0-207.0","0","0","37652","","null","","","null","22","","","","","","","","","","","","","","","NaN",""
"","S1","","html-keyboard-response","154","596215","0.0-1.0-209.0","0","0","37652","","null","","","null","23","","","","","","","","","","","","","","","",""
"","ISI","","html-keyboard-response","155","596720","0.0-1.0-210.0","0","0","37652","","null","","","null","23","NaN","","","","","","","","","","","","","","",""
"","S2","","html-keyboard-response","156","596976","0.0-1.0-211.0","0","0","37652","","null","","","null","23","","NaN","","","","","","","","","","","","","",""
"","response","","html-keyboard-response","157","597298","0.0-1.0-212.0-0.0","0","0","37652","","318","","","68","23","","","1","23","training","adjacent","BA","2","1","M.jpg","O.jpg","1","0","0","",""
"","feedback","","html-keyboard-response","158","598303","0.0-1.0-213.0-0.0","0","0","37652","","null","","","null","23","","","","","","","","","","","","","","","",""
"","time_out","","html-keyboard-response","159","600310","0.0-1.0-215.0-0.0","0","0","37652","","null","","","null","23","","","","","","","","","","","","","","","",""
"","ITI","","html-keyboard-response","160","601314","0.0-1.0-216.0","0","0","37652","","null","","","null","23","","","","","","","","","","","","","","","NaN",""
"","S1","","html-keyboard-response","161","601569","0.0-1.0-218.0","0","0","37652","","null","","","null","24","","","","","","","","","","","","","","","",""
"","ISI","","html-keyboard-response","162","602073","0.0-1.0-219.0","0","0","37652","","null","","","null","24","NaN","","","","","","","","","","","","","","",""
"","S2","","html-keyboard-response","163","602330","0.0-1.0-220.0","0","0","37652","","null","","","null","24","","NaN","","","","","","","","","","","","","",""
"","response","","html-keyboard-response","164","602583","0.0-1.0-221.0-0.0","0","0","37652","","249","","","68","24","","","1","24","training","adjacent","DE","4","5","P.jpg","Q.jpg","1","1","1","",""
"","feedback","","html-keyboard-response","165","603588","0.0-1.0-222.0-0.0","0","0","37652","","null","","","null","24","","","","","","","","","","","","","","","",""
"","ITI","","html-keyboard-response","166","604601","0.0-1.0-225.0","0","0","37652","","null","","","null","24","","","","","","","","","","","","","","","NaN",""
"","S1","","html-keyboard-response","167","604857","0.0-1.0-227.0","0","0","37652","","null","","","null","25","","","","","","","","","","","","","","","",""
"","ISI","","html-keyboard-response","168","605363","0.0-1.0-228.0","0","0","37652","","null","","","null","25","NaN","","","","","","","","","","","","","","",""
"","S2","","html-keyboard-response","169","605618","0.0-1.0-229.0","0","0","37652","","null","","","null","25","","NaN","","","","","","","","","","","","","",""
"","response","","html-keyboard-response","170","605977","0.0-1.0-230.0-0.0","0","0","37652","","353","","","75","25","","","1","25","training","adjacent","CD","3","4","N.jpg","P.jpg","0","1","0","",""
"","feedback","","html-keyboard-response","171","606983","0.0-1.0-231.0-0.0","0","0","37652","","null","","","null","25","","","","","","","","","","","","","","","",""
"","time_out","","html-keyboard-response","172","608987","0.0-1.0-233.0-0.0","0","0","37652","","null","","","null","25","","","","","","","","","","","","","","","",""
"","ITI","","html-keyboard-response","173","609993","0.0-1.0-234.0","0","0","37652","","null","","","null","25","","","","","","","","","","","","","","","NaN",""
"","S1","","html-keyboard-response","174","610247","0.0-1.0-236.0","0","0","37652","","null","","","null","26","","","","","","","","","","","","","","","",""
"","ISI","","html-keyboard-response","175","610752","0.0-1.0-237.0","0","0","37652","","null","","","null","26","NaN","","","","","","","","","","","","","","",""
"","S2","","html-keyboard-response","176","611006","0.0-1.0-238.0","0","0","37652","","null","","","null","26","","NaN","","","","","","","","","","","","","",""
"","response","","html-keyboard-response","177","611236","0.0-1.0-239.0-0.0","0","0","37652","","224","","","75","26","","","1","26","training","adjacent","AB","1","2","O.jpg","M.jpg","0","1","0","",""
"","feedback","","html-keyboard-response","178","612242","0.0-1.0-240.0-0.0","0","0","37652","","null","","","null","26","","","","","","","","","","","","","","","",""
"","time_out","","html-keyboard-response","179","614246","0.0-1.0-242.0-0.0","0","0","37652","","null","","","null","26","","","","","","","","","","","","","","","",""
"","ITI","","html-keyboard-response","180","615250","0.0-1.0-243.0","0","0","37652","","null","","","null","26","","","","","","","","","","","","","","","NaN",""
"","S1","","html-keyboard-response","181","615506","0.0-1.0-245.0","0","0","37652","","null","","","null","27","","","","","","","","","","","","","","","",""
"","ISI","","html-keyboard-response","182","616013","0.0-1.0-246.0","0","0","37652","","null","","","null","27","NaN","","","","","","","","","","","","","","",""
"","S2","","html-keyboard-response","183","616268","0.0-1.0-247.0","0","0","37652","","null","","","null","27","","NaN","","","","","","","","","","","","","",""
"","response","","html-keyboard-response","184","616297","0.0-1.0-248.0-0.0","0","0","37652","","26","","","75","27","","","1","27","training","adjacent","EF","5","6","Q.jpg","R.jpg","0","1","0","",""
"","feedback","","html-keyboard-response","185","617313","0.0-1.0-249.0-0.0","0","0","37652","","null","","","null","27","","","","","","","","","","","","","","","",""
"","time_out","","html-keyboard-response","186","619317","0.0-1.0-251.0-0.0","0","0","37652","","null","","","null","27","","","","","","","","","","","","","","","",""
"","ITI","","html-keyboard-response","187","620325","0.0-1.0-252.0","0","0","37652","","null","","","null","27","","","","","","","","","","","","","","","NaN",""
"","S1","","html-keyboard-response","188","620580","0.0-1.0-254.0","0","0","37652","","null","","","null","28","","","","","","","","","","","","","","","",""
"","ISI","","html-keyboard-response","189","621085","0.0-1.0-255.0","0","0","37652","","null","","","null","28","NaN","","","","","","","","","","","","","","",""
"","S2","","html-keyboard-response","190","621341","0.0-1.0-256.0","0","0","37652","","null","","","null","28","","NaN","","","","","","","","","","","","","",""
"","response","","html-keyboard-response","191","621412","0.0-1.0-257.0-0.0","0","0","37652","","67","","","75","28","","","1","28","training","adjacent","AB","1","2","O.jpg","M.jpg","0","1","0","",""
"","feedback","","html-keyboard-response","192","622417","0.0-1.0-258.0-0.0","0","0","37652","","null","","","null","28","","","","","","","","","","","","","","","",""
"","time_out","","html-keyboard-response","193","624425","0.0-1.0-260.0-0.0","0","0","37652","","null","","","null","28","","","","","","","","","","","","","","","",""
"","ITI","","html-keyboard-response","194","625430","0.0-1.0-261.0","0","0","37652","","null","","","null","28","","","","","","","","","","","","","","","NaN",""
"","S1","","html-keyboard-response","195","625697","0.0-1.0-263.0","0","0","37652","","null","","","null","29","","","","","","","","","","","","","","","",""
"","ISI","","html-keyboard-response","196","626201","0.0-1.0-264.0","0","0","37652","","null","","","null","29","NaN","","","","","","","","","","","","","","",""
"","S2","","html-keyboard-response","197","626460","0.0-1.0-265.0","0","0","37652","","null","","","null","29","","NaN","","","","","","","","","","","","","",""
"","response","","html-keyboard-response","198","626609","0.0-1.0-266.0-0.0","0","0","37652","","144","","","75","29","","","1","29","training","adjacent","BC","2","3","M.jpg","N.jpg","0","1","0","",""
"","feedback","","html-keyboard-response","199","627615","0.0-1.0-267.0-0.0","0","0","37652","","null","","","null","29","","","","","","","","","","","","","","","",""
"","time_out","","html-keyboard-response","200","629620","0.0-1.0-269.0-0.0","0","0","37652","","null","","","null","29","","","","","","","","","","","","","","","",""
"","ITI","","html-keyboard-response","201","630626","0.0-1.0-270.0","0","0","37652","","null","","","null","29","","","","","","","","","","","","","","","NaN",""
"","S1","","html-keyboard-response","202","630881","0.0-1.0-272.0","0","0","37652","","null","","","null","30","","","","","","","","","","","","","","","",""
"","ISI","","html-keyboard-response","203","631387","0.0-1.0-273.0","0","0","37652","","null","","","null","30","NaN","","","","","","","","","","","","","","",""
"","S2","","html-keyboard-response","204","631628","0.0-1.0-274.0","0","0","37652","","237","","","75","30","","k","1","30","training","adjacent","BC","2","3","M.jpg","N.jpg","0","1","0","",""
"","feedback","","html-keyboard-response","205","632633","0.0-1.0-276.0-0.0","0","0","37652","","null","","","null","30","","","","","","","","","","","","","","","",""
"","time_out","","html-keyboard-response","206","634638","0.0-1.0-278.0-0.0","0","0","37652","","null","","","null","30","","","","","","","","","","","","","","","",""
"","ITI","","html-keyboard-response","207","635647","0.0-1.0-279.0","0","0","37652","","null","","","null","30","","","","","","","","","","","","","","","NaN",""
"","S1","","html-keyboard-response","208","635905","0.0-1.0-281.0","0","0","37652","","null","","","null","31","","","","","","","","","","","","","","","",""
"","ISI","","html-keyboard-response","209","636412","0.0-1.0-282.0","0","0","37652","","null","","","null","31","NaN","","","","","","","","","","","","","","",""
"","S2","","html-keyboard-response","210","636668","0.0-1.0-283.0","0","0","37652","","null","","","null","31","","NaN","","","","","","","","","","","","","",""
"","response","","html-keyboard-response","211","636935","0.0-1.0-284.0-0.0","0","0","37652","","262","","","75","31","","","1","31","training","adjacent","CB","3","2","N.jpg","M.jpg","0","0","1","",""
"","feedback","","html-keyboard-response","212","637946","0.0-1.0-285.0-0.0","0","0","37652","","null","","","null","31","","","","","","","","","","","","","","","",""
"","ITI","","html-keyboard-response","213","638952","0.0-1.0-288.0","0","0","37652","","null","","","null","31","","","","","","","","","","","","","","","NaN",""
"","S1","","html-keyboard-response","214","639209","0.0-1.0-290.0","0","0","37652","","null","","","null","32","","","","","","","","","","","","","","","",""
"","ISI","","html-keyboard-response","215","639714","0.0-1.0-291.0","0","0","37652","","null","","","null","32","NaN","","","","","","","","","","","","","","",""
"","S2","","html-keyboard-response","216","639910","0.0-1.0-292.0","0","0","37652","","191","","","75","32","","k","1","32","training","adjacent","FG","6","7","R.jpg","L.jpg","0","1","0","",""
"","feedback","","html-keyboard-response","217","640916","0.0-1.0-294.0-0.0","0","0","37652","","null","","","null","32","","","","","","","","","","","","","","","",""
"","time_out","","html-keyboard-response","218","642922","0.0-1.0-296.0-0.0","0","0","37652","","null","","","null","32","","","","","","","","","","","","","","","",""
"","ITI","","html-keyboard-response","219","643929","0.0-1.0-297.0","0","0","37652","","null","","","null","32","","","","","","","","","","","","","","","NaN",""
"","S1","","html-keyboard-response","220","644185","0.0-1.0-299.0","0","0","37652","","null","","","null","33","","","","","","","","","","","","","","","",""
"","ISI","","html-keyboard-response","221","644692","0.0-1.0-300.0","0","0","37652","","null","","","null","33","NaN","","","","","","","","","","","","","","",""
"","S2","","html-keyboard-response","222","644946","0.0-1.0-301.0","0","0","37652","","null","","","null","33","","NaN","","","","","","","","","","","","","",""
"","response","","html-keyboard-response","223","645188","0.0-1.0-302.0-0.0","0","0","37652","","239","","","75","33","","","1","33","training","adjacent","GF","7","6","L.jpg","R.jpg","0","0","1","",""
"","feedback","","html-keyboard-response","224","646196","0.0-1.0-303.0-0.0","0","0","37652","","null","","","null","33","","","","","","","","","","","","","","","",""
"","ITI","","html-keyboard-response","225","647203","0.0-1.0-306.0","0","0","37652","","null","","","null","33","","","","","","","","","","","","","","","NaN",""
"","S1","","html-keyboard-response","226","647462","0.0-1.0-308.0","0","0","37652","","null","","","null","34","","","","","","","","","","","","","","","",""
"","ISI","","html-keyboard-response","227","647966","0.0-1.0-309.0","0","0","37652","","null","","","null","34","NaN","","","","","","","","","","","","","","",""
"","S2","","html-keyboard-response","228","648220","0.0-1.0-310.0","0","0","37652","","null","","","null","34","","NaN","","","","","","","","","","","","","",""
"","response","","html-keyboard-response","229","648555","0.0-1.0-311.0-0.0","0","0","37652","","330","","","75","34","","","1","34","training","adjacent","CD","3","4","N.jpg","P.jpg","0","1","0","",""
"","feedback","","html-keyboard-response","230","649566","0.0-1.0-312.0-0.0","0","0","37652","","null","","","null","34","","","","","","","","","","","","","","","",""
"","time_out","","html-keyboard-response","231","651572","0.0-1.0-314.0-0.0","0","0","37652","","null","","","null","34","","","","","","","","","","","","","","","",""
"","ITI","","html-keyboard-response","232","652580","0.0-1.0-315.0","0","0","37652","","null","","","null","34","","","","","","","","","","","","","","","NaN",""
"","S1","","html-keyboard-response","233","652835","0.0-1.0-317.0","0","0","37652","","null","","","null","35","","","","","","","","","","","","","","","",""
"","ISI","","html-keyboard-response","234","653341","0.0-1.0-318.0","0","0","37652","","245","","","68","35","d","","","","","","","","","","","","","","",""
"","S2","","html-keyboard-response","235","653596","0.0-1.0-319.0","0","0","37652","","null","","","null","35","","NaN","","","","","","","","","","","","","",""
"","response","","html-keyboard-response","236","653666","0.0-1.0-320.0-0.0","0","0","37652","","68","","","68","35","","","1","35","training","adjacent","FG","6","7","R.jpg","L.jpg","1","1","1","",""
"","feedback","","html-keyboard-response","237","654671","0.0-1.0-321.0-0.0","0","0","37652","","null","","","null","35","","","","","","","","","","","","","","","",""
"","ITI","","html-keyboard-response","238","655676","0.0-1.0-324.0","0","0","37652","","null","","","null","35","","","","","","","","","","","","","","","NaN",""
"","S1","","html-keyboard-response","239","655936","0.0-1.0-326.0","0","0","37652","","null","","","null","36","","","","","","","","","","","","","","","",""
"","ISI","","html-keyboard-response","240","656442","0.0-1.0-327.0","0","0","37652","","null","","","null","36","NaN","","","","","","","","","","","","","","",""
"","S2","","html-keyboard-response","241","656698","0.0-1.0-328.0","0","0","37652","","null","","","null","36","","NaN","","","","","","","","","","","","","",""
"","response","","html-keyboard-response","242","656998","0.0-1.0-329.0-0.0","0","0","37652","","293","","","75","36","","","1","36","training","adjacent","GF","7","6","L.jpg","R.jpg","0","0","1","",""
"","feedback","","html-keyboard-response","243","658005","0.0-1.0-330.0-0.0","0","0","37652","","null","","","null","36","","","","","","","","","","","","","","","",""
"","ITI","","html-keyboard-response","244","659013","0.0-1.0-333.0","0","0","37652","","null","","","null","36","","","","","","","","","","","","","","","NaN",""
"","S1","","html-keyboard-response","245","659268","0.0-1.0-335.0","0","0","37652","","null","","","null","37","","","","","","","","","","","","","","","",""
"","ISI","","html-keyboard-response","246","659777","0.0-1.0-336.0","0","0","37652","","null","","","null","37","NaN","","","","","","","","","","","","","","",""
"","S2","","html-keyboard-response","247","660035","0.0-1.0-337.0","0","0","37652","","null","","","null","37","","NaN","","","","","","","","","","","","","",""
"","response","","html-keyboard-response","248","660575","0.0-1.0-338.0-0.0","0","0","37652","","534","","","75","37","","","1","37","training","adjacent","BC","2","3","M.jpg","N.jpg","0","1","0","",""
"","feedback","","html-keyboard-response","249","661581","0.0-1.0-339.0-0.0","0","0","37652","","null","","","null","37","","","","","","","","","","","","","","","",""
"","time_out","","html-keyboard-response","250","663585","0.0-1.0-341.0-0.0","0","0","37652","","null","","","null","37","","","","","","","","","","","","","","","",""
"","ITI","","html-keyboard-response","251","664591","0.0-1.0-342.0","0","0","37652","","null","","","null","37","","","","","","","","","","","","","","","NaN",""
"","S1","","html-keyboard-response","252","664846","0.0-1.0-344.0","0","0","37652","","null","","","null","38","","","","","","","","","","","","","","","",""
"","ISI","","html-keyboard-response","253","665349","0.0-1.0-345.0","0","0","37652","","297","","","75","38","k","","","","","","","","","","","","","","",""
"","S2","","html-keyboard-response","254","665604","0.0-1.0-346.0","0","0","37652","","null","","","null","38","","NaN","","","","","","","","","","","","","",""
"","response","","html-keyboard-response","255","665619","0.0-1.0-347.0-0.0","0","0","37652","","12","","","75","38","","","1","38","training","adjacent","DC","4","3","P.jpg","N.jpg","0","0","1","",""
"","feedback","","html-keyboard-response","256","666630","0.0-1.0-348.0-0.0","0","0","37652","","null","","","null","38","","","","","","","","","","","","","","","",""
"","ITI","","html-keyboard-response","257","667635","0.0-1.0-351.0","0","0","37652","","null","","","null","38","","","","","","","","","","","","","","","NaN",""
"","S1","","html-keyboard-response","258","667895","0.0-1.0-353.0","0","0","37652","","null","","","null","39","","","","","","","","","","","","","","","",""
"","ISI","","html-keyboard-response","259","668401","0.0-1.0-354.0","0","0","37652","","null","","","null","39","NaN","","","","","","","","","","","","","","",""
"","S2","","html-keyboard-response","260","668659","0.0-1.0-355.0","0","0","37652","","null","","","null","39","","NaN","","","","","","","","","","","","","",""
"","response","","html-keyboard-response","261","669208","0.0-1.0-356.0-0.0","0","0","37652","","543","","","75","39","","","1","39","training","adjacent","AB","1","2","O.jpg","M.jpg","0","1","0","",""
"","feedback","","html-keyboard-response","262","670214","0.0-1.0-357.0-0.0","0","0","37652","","null","","","null","39","","","","","","","","","","","","","","","",""
"","time_out","","html-keyboard-response","263","672219","0.0-1.0-359.0-0.0","0","0","37652","","null","","","null","39","","","","","","","","","","","","","","","",""
"","ITI","","html-keyboard-response","264","673225","0.0-1.0-360.0","0","0","37652","","null","","","null","39","","","","","","","","","","","","","","","NaN",""
"","S1","","html-keyboard-response","265","673483","0.0-1.0-362.0","0","0","37652","","null","","","null","40","","","","","","","","","","","","","","","",""
"","ISI","","html-keyboard-response","266","673993","0.0-1.0-363.0","0","0","37652","","null","","","null","40","NaN","","","","","","","","","","","","","","",""
"","S2","","html-keyboard-response","267","674218","0.0-1.0-364.0","0","0","37652","","220","","","75","40","","k","1","40","training","adjacent","CB","3","2","N.jpg","M.jpg","0","0","1","",""
"","feedback","","html-keyboard-response","268","675227","0.0-1.0-366.0-0.0","0","0","37652","","null","","","null","40","","","","","","","","","","","","","","","",""
"","ITI","","html-keyboard-response","269","676233","0.0-1.0-369.0","0","0","37652","","null","","","null","40","","","","","","","","","","","","","","","NaN",""
"","S1","","html-keyboard-response","270","676492","0.0-1.0-371.0","0","0","37652","","null","","","null","41","","","","","","","","","","","","","","","",""
"","ISI","","html-keyboard-response","271","676998","0.0-1.0-372.0","0","0","37652","","null","","","null","41","NaN","","","","","","","","","","","","","","",""
"","S2","","html-keyboard-response","272","677263","0.0-1.0-373.0","0","0","37652","","null","","","null","41","","NaN","","","","","","","","","","","","","",""
"","response","","html-keyboard-response","273","677727","0.0-1.0-374.0-0.0","0","0","37652","","460","","","75","41","","","1","41","training","adjacent","EF","5","6","Q.jpg","R.jpg","0","1","0","",""
"","feedback","","html-keyboard-response","274","678731","0.0-1.0-375.0-0.0","0","0","37652","","null","","","null","41","","","","","","","","","","","","","","","",""
"","time_out","","html-keyboard-response","275","680736","0.0-1.0-377.0-0.0","0","0","37652","","null","","","null","41","","","","","","","","","","","","","","","",""
"","ITI","","html-keyboard-response","276","681742","0.0-1.0-378.0","0","0","37652","","null","","","null","41","","","","","","","","","","","","","","","NaN",""
"","S1","","html-keyboard-response","277","681997","0.0-1.0-380.0","0","0","37652","","null","","","null","42","","","","","","","","","","","","","","","",""
"","ISI","","html-keyboard-response","278","682501","0.0-1.0-381.0","0","0","37652","","null","","","null","42","NaN","","","","","","","","","","","","","","",""
"","S2","","html-keyboard-response","279","682757","0.0-1.0-382.0","0","0","37652","","null","","","null","42","","NaN","","","","","","","","","","","","","",""
"","response","","html-keyboard-response","280","683537","0.0-1.0-383.0-0.0","0","0","37652","","777","","","75","42","","","1","42","training","adjacent","BA","2","1","M.jpg","O.jpg","0","0","1","",""
"","feedback","","html-keyboard-response","281","684543","0.0-1.0-384.0-0.0","0","0","37652","","null","","","null","42","","","","","","","","","","","","","","","",""
"","ITI","","html-keyboard-response","282","685573","0.0-1.0-387.0","0","0","37652","","null","","","null","42","","","","","","","","","","","","","","","NaN",""
"","S1","","html-keyboard-response","283","685846","0.0-1.0-389.0","0","0","37652","","null","","","null","43","","","","","","","","","","","","","","","",""
"","ISI","","html-keyboard-response","284","686357","0.0-1.0-390.0","0","0","37652","","null","","","null","43","NaN","","","","","","","","","","","","","","",""
"","S2","","html-keyboard-response","285","686766","0.0-1.0-391.0","0","0","37652","","null","","","null","43","","NaN","","","","","","","","","","","","","",""
"","response","","html-keyboard-response","286","687328","0.0-1.0-392.0-0.0","0","0","37652","","558","","","75","43","","","1","43","training","adjacent","FG","6","7","R.jpg","L.jpg","0","1","0","",""
"","feedback","","html-keyboard-response","287","688335","0.0-1.0-393.0-0.0","0","0","37652","","null","","","null","43","","","","","","","","","","","","","","","",""
"","time_out","","html-keyboard-response","288","690344","0.0-1.0-395.0-0.0","0","0","37652","","null","","","null","43","","","","","","","","","","","","","","","",""
"","ITI","","html-keyboard-response","289","691363","0.0-1.0-396.0","0","0","37652","","null","","","null","43","","","","","","","","","","","","","","","NaN",""
"","S1","","html-keyboard-response","290","691617","0.0-1.0-398.0","0","0","37652","","null","","","null","44","","","","","","","","","","","","","","","",""
"","ISI","","html-keyboard-response","291","692124","0.0-1.0-399.0","0","0","37652","","null","","","null","44","NaN","","","","","","","","","","","","","","",""
"","S2","","html-keyboard-response","292","692407","0.0-1.0-400.0","0","0","37652","","null","","","null","44","","NaN","","","","","","","","","","","","","",""
"","response","","html-keyboard-response","293","693102","0.0-1.0-401.0-0.0","0","0","37652","","691","","","68","44","","","1","44","training","adjacent","DE","4","5","P.jpg","Q.jpg","1","1","1","",""
"","feedback","","html-keyboard-response","294","694113","0.0-1.0-402.0-0.0","0","0","37652","","null","","","null","44","","","","","","","","","","","","","","","",""
"","ITI","","html-keyboard-response","295","695119","0.0-1.0-405.0","0","0","37652","","null","","","null","44","","","","","","","","","","","","","","","NaN",""
"","S1","","html-keyboard-response","296","695379","0.0-1.0-407.0","0","0","37652","","null","","","null","45","","","","","","","","","","","","","","","",""
"","ISI","","html-keyboard-response","297","695886","0.0-1.0-408.0","0","0","37652","","null","","","null","45","NaN","","","","","","","","","","","","","","",""
"","S2","","html-keyboard-response","298","696146","0.0-1.0-409.0","0","0","37652","","null","","","null","45","","NaN","","","","","","","","","","","","","",""
"","response","","html-keyboard-response","299","696630","0.0-1.0-410.0-0.0","0","0","37652","","480","","","75","45","","","1","45","training","adjacent","ED","5","4","Q.jpg","P.jpg","0","0","1","",""
"","feedback","","html-keyboard-response","300","697635","0.0-1.0-411.0-0.0","0","0","37652","","null","","","null","45","","","","","","","","","","","","","","","",""
"","ITI","","html-keyboard-response","301","698644","0.0-1.0-414.0","0","0","37652","","null","","","null","45","","","","","","","","","","","","","","","NaN",""
"","S1","","html-keyboard-response","302","698908","0.0-1.0-416.0","0","0","37652","","null","","","null","46","","","","","","","","","","","","","","","",""
"","ISI","","html-keyboard-response","303","699415","0.0-1.0-417.0","0","0","37652","","null","","","null","46","NaN","","","","","","","","","","","","","","",""
"","S2","","html-keyboard-response","304","699672","0.0-1.0-418.0","0","0","37652","","null","","","null","46","","NaN","","","","","","","","","","","","","",""
"","response","","html-keyboard-response","305","699829","0.0-1.0-419.0-0.0","0","0","37652","","153","","","75","46","","","1","46","training","adjacent","CB","3","2","N.jpg","M.jpg","0","0","1","",""
"","feedback","","html-keyboard-response","306","700835","0.0-1.0-420.0-0.0","0","0","37652","","null","","","null","46","","","","","","","","","","","","","","","",""
"","ITI","","html-keyboard-response","307","701843","0.0-1.0-423.0","0","0","37652","","null","","","null","46","","","","","","","","","","","","","","","NaN",""
"","S1","","html-keyboard-response","308","702100","0.0-1.0-425.0","0","0","37652","","null","","","null","47","","","","","","","","","","","","","","","",""
"","ISI","","html-keyboard-response","309","702606","0.0-1.0-426.0","0","0","37652","","null","","","null","47","NaN","","","","","","","","","","","","","","",""
"","S2","","html-keyboard-response","310","702863","0.0-1.0-427.0","0","0","37652","","null","","","null","47","","NaN","","","","","","","","","","","","","",""
"","response","","html-keyboard-response","311","702879","0.0-1.0-428.0-0.0","0","0","37652","","12","","","75","47","","","1","47","training","adjacent","DC","4","3","P.jpg","N.jpg","0","0","1","",""
"","feedback","","html-keyboard-response","312","703889","0.0-1.0-429.0-0.0","0","0","37652","","null","","","null","47","","","","","","","","","","","","","","","",""
"","ITI","","html-keyboard-response","313","704909","0.0-1.0-432.0","0","0","37652","","null","","","null","47","","","","","","","","","","","","","","","NaN",""
"","block_over","","html-keyboard-response","314","759723","0.0-1.0-433.0-0.0","0","0","37652","","54803","","","32","47","","","","","","","","","","","","","","","",""
"","S1","","html-keyboard-response","315","759979","0.0-1.0-434.0","0","0","37652","","null","","","null","48","","","","","","","","","","","","","","","",""
"","ISI","","html-keyboard-response","316","760498","0.0-1.0-435.0","0","0","37652","","null","","","null","48","NaN","","","","","","","","","","","","","","",""
"","S2","","html-keyboard-response","317","760763","0.0-1.0-436.0","0","0","37652","","null","","","null","48","","NaN","","","","","","","","","","","","","",""
"","response","","html-keyboard-response","318","762521","0.0-1.0-437.0-0.0","0","0","37652","","null","","","null","48","","","2","48","training","adjacent","DC","4","3","P.jpg","N.jpg","NaN","0","0","",""
"","too_slow_prompt","","html-keyboard-response","319","763527","0.0-1.0-439.0-0.0","1","0","37652","","null","","","null","","","","","","","","","","","","","","","","",""
"","time_out","","html-keyboard-response","320","765531","0.0-1.0-440.0-0.0","0","0","37652","","null","","","null","48","","","","","","","","","","","","","","","",""
"","ITI","","html-keyboard-response","321","766538","0.0-1.0-441.0","0","0","37652","","null","","","null","48","","","","","","","","","","","","","","","NaN",""
"","S1","","html-keyboard-response","322","766793","0.0-1.0-443.0","0","0","37652","","null","","","null","49","","","","","","","","","","","","","","","",""
"","ISI","","html-keyboard-response","323","767299","0.0-1.0-444.0","0","0","37652","","null","","","null","49","NaN","","","","","","","","","","","","","","",""
"","S2","","html-keyboard-response","324","767554","0.0-1.0-445.0","0","0","37652","","null","","","null","49","","NaN","","","","","","","","","","","","","",""
"","response","","html-keyboard-response","325","767870","0.0-1.0-446.0-0.0","0","0","37652","","310","","","75","49","","","2","49","training","adjacent","CB","3","2","N.jpg","M.jpg","0","0","1","",""
"","feedback","","html-keyboard-response","326","768876","0.0-1.0-447.0-0.0","0","0","37652","","null","","","null","49","","","","","","","","","","","","","","","",""
"","ITI","","html-keyboard-response","327","769960","0.0-1.0-450.0","0","0","37652","","null","","","null","49","","","","","","","","","","","","","","","NaN",""
"","S1","","html-keyboard-response","328","770221","0.0-1.0-452.0","0","0","37652","","null","","","null","50","","","","","","","","","","","","","","","",""
"","ISI","","html-keyboard-response","329","770725","0.0-1.0-453.0","0","0","37652","","null","","","null","50","NaN","","","","","","","","","","","","","","",""
"","S2","","html-keyboard-response","330","770980","0.0-1.0-454.0","0","0","37652","","null","","","null","50","","NaN","","","","","","","","","","","","","",""
"","response","","html-keyboard-response","331","771407","0.0-1.0-455.0-0.0","0","0","37652","","423","","","75","50","","","2","50","training","adjacent","ED","5","4","Q.jpg","P.jpg","0","0","1","",""
"","feedback","","html-keyboard-response","332","772414","0.0-1.0-456.0-0.0","0","0","37652","","null","","","null","50","","","","","","","","","","","","","","","",""
"","ITI","","html-keyboard-response","333","773423","0.0-1.0-459.0","0","0","37652","","null","","","null","50","","","","","","","","","","","","","","","NaN",""
"","S1","","html-keyboard-response","334","773678","0.0-1.0-461.0","0","0","37652","","null","","","null","51","","","","","","","","","","","","","","","",""
"","ISI","","html-keyboard-response","335","774187","0.0-1.0-462.0","0","0","37652","","null","","","null","51","NaN","","","","","","","","","","","","","","",""
"","S2","","html-keyboard-response","336","774443","0.0-1.0-463.0","0","0","37652","","null","","","null","51","","NaN","","","","","","","","","","","","","",""
"","response","","html-keyboard-response","337","774771","0.0-1.0-464.0-0.0","0","0","37652","","324","","","75","51","","","2","51","training","adjacent","FE","6","5","R.jpg","Q.jpg","0","0","1","",""
"","feedback","","html-keyboard-response","338","775775","0.0-1.0-465.0-0.0","0","0","37652","","null","","","null","51","","","","","","","","","","","","","","","",""
"","ITI","","html-keyboard-response","339","776780","0.0-1.0-468.0","0","0","37652","","null","","","null","51","","","","","","","","","","","","","","","NaN",""
"","S1","","html-keyboard-response","340","777037","0.0-1.0-470.0","0","0","37652","","null","","","null","52","","","","","","","","","","","","","","","",""
"","ISI","","html-keyboard-response","341","777543","0.0-1.0-471.0","0","0","37652","","null","","","null","52","NaN","","","","","","","","","","","","","","",""
"","S2","","html-keyboard-response","342","777798","0.0-1.0-472.0","0","0","37652","","null","","","null","52","","NaN","","","","","","","","","","","","","",""
"","response","","html-keyboard-response","343","778133","0.0-1.0-473.0-0.0","0","0","37652","","331","","","68","52","","","2","52","training","adjacent","GF","7","6","L.jpg","R.jpg","1","0","0","",""
"","feedback","","html-keyboard-response","344","779141","0.0-1.0-474.0-0.0","0","0","37652","","null","","","null","52","","","","","","","","","","","","","","","",""
"","time_out","","html-keyboard-response","345","781147","0.0-1.0-476.0-0.0","0","0","37652","","null","","","null","52","","","","","","","","","","","","","","","",""
"","ITI","","html-keyboard-response","346","782154","0.0-1.0-477.0","0","0","37652","","null","","","null","52","","","","","","","","","","","","","","","NaN",""
"","S1","","html-keyboard-response","347","782409","0.0-1.0-479.0","0","0","37652","","null","","","null","53","","","","","","","","","","","","","","","",""
"","ISI","","html-keyboard-response","348","782914","0.0-1.0-480.0","0","0","37652","","null","","","null","53","NaN","","","","","","","","","","","","","","",""
"","S2","","html-keyboard-response","349","783172","0.0-1.0-481.0","0","0","37652","","null","","","null","53","","NaN","","","","","","","","","","","","","",""
"","response","","html-keyboard-response","350","783678","0.0-1.0-482.0-0.0","0","0","37652","","501","","","68","53","","","2","53","training","adjacent","FG","6","7","R.jpg","L.jpg","1","1","1","",""
"","feedback","","html-keyboard-response","351","784685","0.0-1.0-483.0-0.0","0","0","37652","","null","","","null","53","","","","","","","","","","","","","","","",""
"","ITI","","html-keyboard-response","352","785689","0.0-1.0-486.0","0","0","37652","","null","","","null","53","","","","","","","","","","","","","","","NaN",""
"","S1","","html-keyboard-response","353","785944","0.0-1.0-488.0","0","0","37652","","null","","","null","54","","","","","","","","","","","","","","","",""
"","ISI","","html-keyboard-response","354","786449","0.0-1.0-489.0","0","0","37652","","null","","","null","54","NaN","","","","","","","","","","","","","","",""
"","S2","","html-keyboard-response","355","786707","0.0-1.0-490.0","0","0","37652","","null","","","null","54","","NaN","","","","","","","","","","","","","",""
"","response","","html-keyboard-response","356","787287","0.0-1.0-491.0-0.0","0","0","37652","","573","","","68","54","","","2","54","training","adjacent","BC","2","3","M.jpg","N.jpg","1","1","1","",""
"","feedback","","html-keyboard-response","357","788293","0.0-1.0-492.0-0.0","0","0","37652","","null","","","null","54","","","","","","","","","","","","","","","",""
"","ITI","","html-keyboard-response","358","789301","0.0-1.0-495.0","0","0","37652","","null","","","null","54","","","","","","","","","","","","","","","NaN",""
"","S1","","html-keyboard-response","359","789556","0.0-1.0-497.0","0","0","37652","","null","","","null","55","","","","","","","","","","","","","","","",""
"","ISI","","html-keyboard-response","360","790082","0.0-1.0-498.0","0","0","37652","","null","","","null","55","NaN","","","","","","","","","","","","","","",""
"","S2","","html-keyboard-response","361","790344","0.0-1.0-499.0","0","0","37652","","null","","","null","55","","NaN","","","","","","","","","","","","","",""
"","response","","html-keyboard-response","362","790830","0.0-1.0-500.0-0.0","0","0","37652","","481","","","75","55","","","2","55","training","adjacent","FG","6","7","R.jpg","L.jpg","0","1","0","",""
"","feedback","","html-keyboard-response","363","791837","0.0-1.0-501.0-0.0","0","0","37652","","null","","","null","55","","","","","","","","","","","","","","","",""
"","time_out","","html-keyboard-response","364","793842","0.0-1.0-503.0-0.0","0","0","37652","","null","","","null","55","","","","","","","","","","","","","","","",""
"","ITI","","html-keyboard-response","365","794849","0.0-1.0-504.0","0","0","37652","","null","","","null","55","","","","","","","","","","","","","","","NaN",""
"","S1","","html-keyboard-response","366","795108","0.0-1.0-506.0","0","0","37652","","null","","","null","56","","","","","","","","","","","","","","","",""
"","ISI","","html-keyboard-response","367","795614","0.0-1.0-507.0","0","0","37652","","null","","","null","56","NaN","","","","","","","","","","","","","","",""
"","S2","","html-keyboard-response","368","795870","0.0-1.0-508.0","0","0","37652","","null","","","null","56","","NaN","","","","","","","","","","","","","",""
"","response","","html-keyboard-response","369","796114","0.0-1.0-509.0-0.0","0","0","37652","","240","","","68","56","","","2","56","training","adjacent","GF","7","6","L.jpg","R.jpg","1","0","0","",""
"","feedback","","html-keyboard-response","370","797120","0.0-1.0-510.0-0.0","0","0","37652","","null","","","null","56","","","","","","","","","","","","","","","",""
"","time_out","","html-keyboard-response","371","799124","0.0-1.0-512.0-0.0","0","0","37652","","null","","","null","56","","","","","","","","","","","","","","","",""
"","ITI","","html-keyboard-response","372","800130","0.0-1.0-513.0","0","0","37652","","null","","","null","56","","","","","","","","","","","","","","","NaN",""
"","S1","","html-keyboard-response","373","800389","0.0-1.0-515.0","0","0","37652","","null","","","null","57","","","","","","","","","","","","","","","",""
"","ISI","","html-keyboard-response","374","800894","0.0-1.0-516.0","0","0","37652","","null","","","null","57","NaN","","","","","","","","","","","","","","",""
"","S2","","html-keyboard-response","375","801148","0.0-1.0-517.0","0","0","37652","","null","","","null","57","","NaN","","","","","","","","","","","","","",""
"","response","","html-keyboard-response","376","801360","0.0-1.0-518.0-0.0","0","0","37652","","207","","","75","57","","","2","57","training","adjacent","ED","5","4","Q.jpg","P.jpg","0","0","1","",""
"","feedback","","html-keyboard-response","377","802365","0.0-1.0-519.0-0.0","0","0","37652","","null","","","null","57","","","","","","","","","","","","","","","",""
"","ITI","","html-keyboard-response","378","803371","0.0-1.0-522.0","0","0","37652","","null","","","null","57","","","","","","","","","","","","","","","NaN",""
"","S1","","html-keyboard-response","379","803626","0.0-1.0-524.0","0","0","37652","","null","","","null","58","","","","","","","","","","","","","","","",""
"","ISI","","html-keyboard-response","380","804131","0.0-1.0-525.0","0","0","37652","","null","","","null","58","NaN","","","","","","","","","","","","","","",""
"","S2","","html-keyboard-response","381","804386","0.0-1.0-526.0","0","0","37652","","null","","","null","58","","NaN","","","","","","","","","","","","","",""
"","response","","html-keyboard-response","382","804762","0.0-1.0-527.0-0.0","0","0","37652","","372","","","75","58","","","2","58","training","adjacent","FE","6","5","R.jpg","Q.jpg","0","0","1","",""
"","feedback","","html-keyboard-response","383","805769","0.0-1.0-528.0-0.0","0","0","37652","","null","","","null","58","","","","","","","","","","","","","","","",""
"","ITI","","html-keyboard-response","384","806776","0.0-1.0-531.0","0","0","37652","","null","","","null","58","","","","","","","","","","","","","","","NaN",""
"","S1","","html-keyboard-response","385","807032","0.0-1.0-533.0","0","0","37652","","null","","","null","59","","","","","","","","","","","","","","","",""
"","ISI","","html-keyboard-response","386","807538","0.0-1.0-534.0","0","0","37652","","null","","","null","59","NaN","","","","","","","","","","","","","","",""
"","S2","","html-keyboard-response","387","807793","0.0-1.0-535.0","0","0","37652","","null","","","null","59","","NaN","","","","","","","","","","","","","",""
"","response","","html-keyboard-response","388","808471","0.0-1.0-536.0-0.0","0","0","37652","","668","","","75","59","","","2","59","training","adjacent","DE","4","5","P.jpg","Q.jpg","0","1","0","",""
"","feedback","","html-keyboard-response","389","809479","0.0-1.0-537.0-0.0","0","0","37652","","null","","","null","59","","","","","","","","","","","","","","","",""
"","time_out","","html-keyboard-response","390","811488","0.0-1.0-539.0-0.0","0","0","37652","","null","","","null","59","","","","","","","","","","","","","","","",""
"","ITI","","html-keyboard-response","391","812502","0.0-1.0-540.0","0","0","37652","","null","","","null","59","","","","","","","","","","","","","","","NaN",""
"","S1","","html-keyboard-response","392","812785","0.0-1.0-542.0","0","0","37652","","null","","","null","60","","","","","","","","","","","","","","","",""
"","ISI","","html-keyboard-response","393","813289","0.0-1.0-543.0","0","0","37652","","null","","","null","60","NaN","","","","","","","","","","","","","","",""
"","S2","","html-keyboard-response","394","813544","0.0-1.0-544.0","0","0","37652","","null","","","null","60","","NaN","","","","","","","","","","","","","",""
"","response","","html-keyboard-response","395","814004","0.0-1.0-545.0-0.0","0","0","37652","","456","","","68","60","","","2","60","training","adjacent","BC","2","3","M.jpg","N.jpg","1","1","1","",""
"","feedback","","html-keyboard-response","396","815010","0.0-1.0-546.0-0.0","0","0","37652","","null","","","null","60","","","","","","","","","","","","","","","",""
"","ITI","","html-keyboard-response","397","816017","0.0-1.0-549.0","0","0","37652","","null","","","null","60","","","","","","","","","","","","","","","NaN",""
"","S1","","html-keyboard-response","398","816275","0.0-1.0-551.0","0","0","37652","","null","","","null","61","","","","","","","","","","","","","","","",""
"","ISI","","html-keyboard-response","399","816787","0.0-1.0-552.0","0","0","37652","","null","","","null","61","NaN","","","","","","","","","","","","","","",""
"","S2","","html-keyboard-response","400","817042","0.0-1.0-553.0","0","0","37652","","null","","","null","61","","NaN","","","","","","","","","","","","","",""
"","response","","html-keyboard-response","401","817437","0.0-1.0-554.0-0.0","0","0","37652","","391","","","75","61","","","2","61","training","adjacent","CD","3","4","N.jpg","P.jpg","0","1","0","",""
"","feedback","","html-keyboard-response","402","818442","0.0-1.0-555.0-0.0","0","0","37652","","null","","","null","61","","","","","","","","","","","","","","","",""
"","time_out","","html-keyboard-response","403","820447","0.0-1.0-557.0-0.0","0","0","37652","","null","","","null","61","","","","","","","","","","","","","","","",""
"","ITI","","html-keyboard-response","404","821455","0.0-1.0-558.0","0","0","37652","","null","","","null","61","","","","","","","","","","","","","","","NaN",""
"","S1","","html-keyboard-response","405","821711","0.0-1.0-560.0","0","0","37652","","null","","","null","62","","","","","","","","","","","","","","","",""
"","ISI","","html-keyboard-response","406","822217","0.0-1.0-561.0","0","0","37652","","null","","","null","62","NaN","","","","","","","","","","","","","","",""
"","S2","","html-keyboard-response","407","822476","0.0-1.0-562.0","0","0","37652","","null","","","null","62","","NaN","","","","","","","","","","","","","",""
"","response","","html-keyboard-response","408","823021","0.0-1.0-563.0-0.0","0","0","37652","","541","","","68","62","","","2","62","training","adjacent","AB","1","2","O.jpg","M.jpg","1","1","1","",""
"","feedback","","html-keyboard-response","409","824028","0.0-1.0-564.0-0.0","0","0","37652","","null","","","null","62","","","","","","","","","","","","","","","",""
"","ITI","","html-keyboard-response","410","825042","0.0-1.0-567.0","0","0","37652","","null","","","null","62","","","","","","","","","","","","","","","NaN",""
"","S1","","html-keyboard-response","411","825310","0.0-1.0-569.0","0","0","37652","","null","","","null","63","","","","","","","","","","","","","","","",""
"","ISI","","html-keyboard-response","412","825816","0.0-1.0-570.0","0","0","37652","","null","","","null","63","NaN","","","","","","","","","","","","","","",""
"","S2","","html-keyboard-response","413","826076","0.0-1.0-571.0","0","0","37652","","null","","","null","63","","NaN","","","","","","","","","","","","","",""
"","response","","html-keyboard-response","414","826624","0.0-1.0-572.0-0.0","0","0","37652","","544","","","68","63","","","2","63","training","adjacent","BC","2","3","M.jpg","N.jpg","1","1","1","",""
"","feedback","","html-keyboard-response","415","827629","0.0-1.0-573.0-0.0","0","0","37652","","null","","","null","63","","","","","","","","","","","","","","","",""
"","ITI","","html-keyboard-response","416","828637","0.0-1.0-576.0","0","0","37652","","null","","","null","63","","","","","","","","","","","","","","","NaN",""
"","S1","","html-keyboard-response","417","828894","0.0-1.0-578.0","0","0","37652","","null","","","null","64","","","","","","","","","","","","","","","",""
"","ISI","","html-keyboard-response","418","829403","0.0-1.0-579.0","0","0","37652","","null","","","null","64","NaN","","","","","","","","","","","","","","",""
"","S2","","html-keyboard-response","419","829659","0.0-1.0-580.0","0","0","37652","","null","","","null","64","","NaN","","","","","","","","","","","","","",""
"","response","","html-keyboard-response","420","830364","0.0-1.0-581.0-0.0","0","0","37652","","700","","","75","64","","","2","64","training","adjacent","GF","7","6","L.jpg","R.jpg","0","0","1","",""
"","feedback","","html-keyboard-response","421","831373","0.0-1.0-582.0-0.0","0","0","37652","","null","","","null","64","","","","","","","","","","","","","","","",""
"","ITI","","html-keyboard-response","422","832378","0.0-1.0-585.0","0","0","37652","","null","","","null","64","","","","","","","","","","","","","","","NaN",""
"","S1","","html-keyboard-response","423","832634","0.0-1.0-587.0","0","0","37652","","null","","","null","65","","","","","","","","","","","","","","","",""
"","ISI","","html-keyboard-response","424","833140","0.0-1.0-588.0","0","0","37652","","null","","","null","65","NaN","","","","","","","","","","","","","","",""
"","S2","","html-keyboard-response","425","833396","0.0-1.0-589.0","0","0","37652","","null","","","null","65","","NaN","","","","","","","","","","","","","",""
"","response","","html-keyboard-response","426","833839","0.0-1.0-590.0-0.0","0","0","37652","","435","","","68","65","","","2","65","training","adjacent","FE","6","5","R.jpg","Q.jpg","1","0","0","",""
"","feedback","","html-keyboard-response","427","834847","0.0-1.0-591.0-0.0","0","0","37652","","null","","","null","65","","","","","","","","","","","","","","","",""
"","time_out","","html-keyboard-response","428","836855","0.0-1.0-593.0-0.0","0","0","37652","","null","","","null","65","","","","","","","","","","","","","","","",""
"","ITI","","html-keyboard-response","429","837861","0.0-1.0-594.0","0","0","37652","","null","","","null","65","","","","","","","","","","","","","","","NaN",""
"","S1","","html-keyboard-response","430","838120","0.0-1.0-596.0","0","0","37652","","null","","","null","66","","","","","","","","","","","","","","","",""
"","ISI","","html-keyboard-response","431","838624","0.0-1.0-597.0","0","0","37652","","null","","","null","66","NaN","","","","","","","","","","","","","","",""
"","S2","","html-keyboard-response","432","838883","0.0-1.0-598.0","0","0","37652","","null","","","null","66","","NaN","","","","","","","","","","","","","",""
"","response","","html-keyboard-response","433","839226","0.0-1.0-599.0-0.0","0","0","37652","","338","","","68","66","","","2","66","training","adjacent","FG","6","7","R.jpg","L.jpg","1","1","1","",""
"","feedback","","html-keyboard-response","434","840236","0.0-1.0-600.0-0.0","0","0","37652","","null","","","null","66","","","","","","","","","","","","","","","",""
"","ITI","","html-keyboard-response","435","841243","0.0-1.0-603.0","0","0","37652","","null","","","null","66","","","","","","","","","","","","","","","NaN",""
"","S1","","html-keyboard-response","436","841503","0.0-1.0-605.0","0","0","37652","","null","","","null","67","","","","","","","","","","","","","","","",""
"","ISI","","html-keyboard-response","437","842007","0.0-1.0-606.0","0","0","37652","","null","","","null","67","NaN","","","","","","","","","","","","","","",""
"","S2","","html-keyboard-response","438","842262","0.0-1.0-607.0","0","0","37652","","null","","","null","67","","NaN","","","","","","","","","","","","","",""
"","response","","html-keyboard-response","439","842812","0.0-1.0-608.0-0.0","0","0","37652","","546","","","68","67","","","2","67","training","adjacent","BC","2","3","M.jpg","N.jpg","1","1","1","",""
"","feedback","","html-keyboard-response","440","843818","0.0-1.0-609.0-0.0","0","0","37652","","null","","","null","67","","","","","","","","","","","","","","","",""
"","ITI","","html-keyboard-response","441","844822","0.0-1.0-612.0","0","0","37652","","null","","","null","67","","","","","","","","","","","","","","","NaN",""
"","S1","","html-keyboard-response","442","845079","0.0-1.0-614.0","0","0","37652","","null","","","null","68","","","","","","","","","","","","","","","",""
"","ISI","","html-keyboard-response","443","845585","0.0-1.0-615.0","0","0","37652","","null","","","null","68","NaN","","","","","","","","","","","","","","",""
"","S2","","html-keyboard-response","444","845839","0.0-1.0-616.0","0","0","37652","","null","","","null","68","","NaN","","","","","","","","","","","","","",""
"","response","","html-keyboard-response","445","846501","0.0-1.0-617.0-0.0","0","0","37652","","659","","","75","68","","","2","68","training","adjacent","BA","2","1","M.jpg","O.jpg","0","0","1","",""
"","feedback","","html-keyboard-response","446","847508","0.0-1.0-618.0-0.0","0","0","37652","","null","","","null","68","","","","","","","","","","","","","","","",""
"","ITI","","html-keyboard-response","447","848517","0.0-1.0-621.0","0","0","37652","","null","","","null","68","","","","","","","","","","","","","","","NaN",""
"","S1","","html-keyboard-response","448","848772","0.0-1.0-623.0","0","0","37652","","null","","","null","69","","","","","","","","","","","","","","","",""
"","ISI","","html-keyboard-response","449","849276","0.0-1.0-624.0","0","0","37652","","null","","","null","69","NaN","","","","","","","","","","","","","","",""
"","S2","","html-keyboard-response","450","849534","0.0-1.0-625.0","0","0","37652","","null","","","null","69","","NaN","","","","","","","","","","","","","",""
"","response","","html-keyboard-response","451","850176","0.0-1.0-626.0-0.0","0","0","37652","","636","","","68","69","","","2","69","training","adjacent","CB","3","2","N.jpg","M.jpg","1","0","0","",""
"","feedback","","html-keyboard-response","452","851186","0.0-1.0-627.0-0.0","0","0","37652","","null","","","null","69","","","","","","","","","","","","","","","",""
"","time_out","","html-keyboard-response","453","853194","0.0-1.0-629.0-0.0","0","0","37652","","null","","","null","69","","","","","","","","","","","","","","","",""
"","ITI","","html-keyboard-response","454","854204","0.0-1.0-630.0","0","0","37652","","null","","","null","69","","","","","","","","","","","","","","","NaN",""
"","S1","","html-keyboard-response","455","854461","0.0-1.0-632.0","0","0","37652","","null","","","null","70","","","","","","","","","","","","","","","",""
"","ISI","","html-keyboard-response","456","854969","0.0-1.0-633.0","0","0","37652","","null","","","null","70","NaN","","","","","","","","","","","","","","",""
"","S2","","html-keyboard-response","457","855225","0.0-1.0-634.0","0","0","37652","","null","","","null","70","","NaN","","","","","","","","","","","","","",""
"","response","","html-keyboard-response","458","855415","0.0-1.0-635.0-0.0","0","0","37652","","184","","","75","70","","","2","70","training","adjacent","EF","5","6","Q.jpg","R.jpg","0","1","0","",""
"","feedback","","html-keyboard-response","459","856422","0.0-1.0-636.0-0.0","0","0","37652","","null","","","null","70","","","","","","","","","","","","","","","",""
"","time_out","","html-keyboard-response","460","858428","0.0-1.0-638.0-0.0","0","0","37652","","null","","","null","70","","","","","","","","","","","","","","","",""
"","ITI","","html-keyboard-response","461","859437","0.0-1.0-639.0","0","0","37652","","null","","","null","70","","","","","","","","","","","","","","","NaN",""
"","S1","","html-keyboard-response","462","859692","0.0-1.0-641.0","0","0","37652","","null","","","null","71","","","","","","","","","","","","","","","",""
"","ISI","","html-keyboard-response","463","860199","0.0-1.0-642.0","0","0","37652","","null","","","null","71","NaN","","","","","","","","","","","","","","",""
"","S2","","html-keyboard-response","464","860455","0.0-1.0-643.0","0","0","37652","","null","","","null","71","","NaN","","","","","","","","","","","","","",""
"","response","","html-keyboard-response","465","860908","0.0-1.0-644.0-0.0","0","0","37652","","448","","","68","71","","","2","71","training","adjacent","DC","4","3","P.jpg","N.jpg","1","0","0","",""
"","feedback","","html-keyboard-response","466","861918","0.0-1.0-645.0-0.0","0","0","37652","","null","","","null","71","","","","","","","","","","","","","","","",""
"","time_out","","html-keyboard-response","467","863925","0.0-1.0-647.0-0.0","0","0","37652","","null","","","null","71","","","","","","","","","","","","","","","",""
"","ITI","","html-keyboard-response","468","864935","0.0-1.0-648.0","0","0","37652","","null","","","null","71","","","","","","","","","","","","","","","NaN",""
"","S1","","html-keyboard-response","469","865192","0.0-1.0-650.0","0","0","37652","","null","","","null","72","","","","","","","","","","","","","","","",""
"","ISI","","html-keyboard-response","470","865700","0.0-1.0-651.0","0","0","37652","","null","","","null","72","NaN","","","","","","","","","","","","","","",""
"","S2","","html-keyboard-response","471","865958","0.0-1.0-652.0","0","0","37652","","null","","","null","72","","NaN","","","","","","","","","","","","","",""
"","response","","html-keyboard-response","472","866418","0.0-1.0-653.0-0.0","0","0","37652","","450","","","68","72","","","2","72","training","adjacent","FG","6","7","R.jpg","L.jpg","1","1","1","",""
"","feedback","","html-keyboard-response","473","867426","0.0-1.0-654.0-0.0","0","0","37652","","null","","","null","72","","","","","","","","","","","","","","","",""
"","ITI","","html-keyboard-response","474","868435","0.0-1.0-657.0","0","0","37652","","null","","","null","72","","","","","","","","","","","","","","","NaN",""
"","S1","","html-keyboard-response","475","868693","0.0-1.0-659.0","0","0","37652","","null","","","null","73","","","","","","","","","","","","","","","",""
"","ISI","","html-keyboard-response","476","869201","0.0-1.0-660.0","0","0","37652","","null","","","null","73","NaN","","","","","","","","","","","","","","",""
"","S2","","html-keyboard-response","477","869457","0.0-1.0-661.0","0","0","37652","","null","","","null","73","","NaN","","","","","","","","","","","","","",""
"","response","","html-keyboard-response","478","869822","0.0-1.0-662.0-0.0","0","0","37652","","358","","","68","73","","","2","73","training","adjacent","DC","4","3","P.jpg","N.jpg","1","0","0","",""
"","feedback","","html-keyboard-response","479","870828","0.0-1.0-663.0-0.0","0","0","37652","","null","","","null","73","","","","","","","","","","","","","","","",""
"","time_out","","html-keyboard-response","480","872835","0.0-1.0-665.0-0.0","0","0","37652","","null","","","null","73","","","","","","","","","","","","","","","",""
"","ITI","","html-keyboard-response","481","873843","0.0-1.0-666.0","0","0","37652","","null","","","null","73","","","","","","","","","","","","","","","NaN",""
"","S1","","html-keyboard-response","482","874101","0.0-1.0-668.0","0","0","37652","","null","","","null","74","","","","","","","","","","","","","","","",""
"","ISI","","html-keyboard-response","483","874607","0.0-1.0-669.0","0","0","37652","","null","","","null","74","NaN","","","","","","","","","","","","","","",""
"","S2","","html-keyboard-response","484","874868","0.0-1.0-670.0","0","0","37652","","null","","","null","74","","NaN","","","","","","","","","","","","","",""
"","response","","html-keyboard-response","485","874976","0.0-1.0-671.0-0.0","0","0","37652","","102","","","75","74","","","2","74","training","adjacent","ED","5","4","Q.jpg","P.jpg","0","0","1","",""
"","feedback","","html-keyboard-response","486","875986","0.0-1.0-672.0-0.0","0","0","37652","","null","","","null","74","","","","","","","","","","","","","","","",""
"","ITI","","html-keyboard-response","487","876993","0.0-1.0-675.0","0","0","37652","","null","","","null","74","","","","","","","","","","","","","","","NaN",""
"","S1","","html-keyboard-response","488","877251","0.0-1.0-677.0","0","0","37652","","null","","","null","75","","","","","","","","","","","","","","","",""
"","ISI","","html-keyboard-response","489","877757","0.0-1.0-678.0","0","0","37652","","null","","","null","75","NaN","","","","","","","","","","","","","","",""
"","S2","","html-keyboard-response","490","878017","0.0-1.0-679.0","0","0","37652","","null","","","null","75","","NaN","","","","","","","","","","","","","",""
"","response","","html-keyboard-response","491","878928","0.0-1.0-680.0-0.0","0","0","37652","","905","","","75","75","","","2","75","training","adjacent","BA","2","1","M.jpg","O.jpg","0","0","1","",""
"","feedback","","html-keyboard-response","492","879936","0.0-1.0-681.0-0.0","0","0","37652","","null","","","null","75","","","","","","","","","","","","","","","",""
"","ITI","","html-keyboard-response","493","880942","0.0-1.0-684.0","0","0","37652","","null","","","null","75","","","","","","","","","","","","","","","NaN",""
"","S1","","html-keyboard-response","494","881199","0.0-1.0-686.0","0","0","37652","","null","","","null","76","","","","","","","","","","","","","","","",""
"","ISI","","html-keyboard-response","495","881702","0.0-1.0-687.0","0","0","37652","","null","","","null","76","NaN","","","","","","","","","","","","","","",""
"","S2","","html-keyboard-response","496","881957","0.0-1.0-688.0","0","0","37652","","null","","","null","76","","NaN","","","","","","","","","","","","","",""
"","response","","html-keyboard-response","497","882574","0.0-1.0-689.0-0.0","0","0","37652","","613","","","75","76","","","2","76","training","adjacent","BA","2","1","M.jpg","O.jpg","0","0","1","",""
"","feedback","","html-keyboard-response","498","883584","0.0-1.0-690.0-0.0","0","0","37652","","null","","","null","76","","","","","","","","","","","","","","","",""
"","ITI","","html-keyboard-response","499","884591","0.0-1.0-693.0","0","0","37652","","null","","","null","76","","","","","","","","","","","","","","","NaN",""
"","S1","","html-keyboard-response","500","884846","0.0-1.0-695.0","0","0","37652","","null","","","null","77","","","","","","","","","","","","","","","",""
"","ISI","","html-keyboard-response","501","885353","0.0-1.0-696.0","0","0","37652","","null","","","null","77","NaN","","","","","","","","","","","","","","",""
"","S2","","html-keyboard-response","502","885609","0.0-1.0-697.0","0","0","37652","","null","","","null","77","","NaN","","","","","","","","","","","","","",""
"","response","","html-keyboard-response","503","885983","0.0-1.0-698.0-0.0","0","0","37652","","365","","","68","77","","","2","77","training","adjacent","DE","4","5","P.jpg","Q.jpg","1","1","1","",""
"","feedback","","html-keyboard-response","504","886991","0.0-1.0-699.0-0.0","0","0","37652","","null","","","null","77","","","","","","","","","","","","","","","",""
"","ITI","","html-keyboard-response","505","888001","0.0-1.0-702.0","0","0","37652","","null","","","null","77","","","","","","","","","","","","","","","NaN",""
"","S1","","html-keyboard-response","506","888267","0.0-1.0-704.0","0","0","37652","","null","","","null","78","","","","","","","","","","","","","","","",""
"","ISI","","html-keyboard-response","507","888771","0.0-1.0-705.0","0","0","37652","","null","","","null","78","NaN","","","","","","","","","","","","","","",""
"","S2","","html-keyboard-response","508","889040","0.0-1.0-706.0","0","0","37652","","null","","","null","78","","NaN","","","","","","","","","","","","","",""
"","response","","html-keyboard-response","509","889539","0.0-1.0-707.0-0.0","0","0","37652","","495","","","75","78","","","2","78","training","adjacent","CD","3","4","N.jpg","P.jpg","0","1","0","",""
"","feedback","","html-keyboard-response","510","890548","0.0-1.0-708.0-0.0","0","0","37652","","null","","","null","78","","","","","","","","","","","","","","","",""
"","time_out","","html-keyboard-response","511","892553","0.0-1.0-710.0-0.0","0","0","37652","","null","","","null","78","","","","","","","","","","","","","","","",""
"","ITI","","html-keyboard-response","512","893565","0.0-1.0-711.0","0","0","37652","","null","","","null","78","","","","","","","","","","","","","","","NaN",""
"","S1","","html-keyboard-response","513","893819","0.0-1.0-713.0","0","0","37652","","null","","","null","79","","","","","","","","","","","","","","","",""
"","ISI","","html-keyboard-response","514","894325","0.0-1.0-714.0","0","0","37652","","null","","","null","79","NaN","","","","","","","","","","","","","","",""
"","S2","","html-keyboard-response","515","894582","0.0-1.0-715.0","0","0","37652","","null","","","null","79","","NaN","","","","","","","","","","","","","",""
"","response","","html-keyboard-response","516","895127","0.0-1.0-716.0-0.0","0","0","37652","","542","","","75","79","","","2","79","training","adjacent","EF","5","6","Q.jpg","R.jpg","0","1","0","",""
"","feedback","","html-keyboard-response","517","896135","0.0-1.0-717.0-0.0","0","0","37652","","null","","","null","79","","","","","","","","","","","","","","","",""
"","time_out","","html-keyboard-response","518","898140","0.0-1.0-719.0-0.0","0","0","37652","","null","","","null","79","","","","","","","","","","","","","","","",""
"","ITI","","html-keyboard-response","519","899148","0.0-1.0-720.0","0","0","37652","","null","","","null","79","","","","","","","","","","","","","","","NaN",""
"","S1","","html-keyboard-response","520","899403","0.0-1.0-722.0","0","0","37652","","null","","","null","80","","","","","","","","","","","","","","","",""
"","ISI","","html-keyboard-response","521","899919","0.0-1.0-723.0","0","0","37652","","null","","","null","80","NaN","","","","","","","","","","","","","","",""
"","S2","","html-keyboard-response","522","900175","0.0-1.0-724.0","0","0","37652","","null","","","null","80","","NaN","","","","","","","","","","","","","",""
"","response","","html-keyboard-response","523","901243","0.0-1.0-725.0-0.0","0","0","37652","","1062","","","68","80","","","2","80","training","adjacent","FE","6","5","R.jpg","Q.jpg","1","0","0","",""
"","feedback","","html-keyboard-response","524","902253","0.0-1.0-726.0-0.0","0","0","37652","","null","","","null","80","","","","","","","","","","","","","","","",""
"","time_out","","html-keyboard-response","525","904259","0.0-1.0-728.0-0.0","0","0","37652","","null","","","null","80","","","","","","","","","","","","","","","",""
"","ITI","","html-keyboard-response","526","905266","0.0-1.0-729.0","0","0","37652","","null","","","null","80","","","","","","","","","","","","","","","NaN",""
"","S1","","html-keyboard-response","527","905524","0.0-1.0-731.0","0","0","37652","","null","","","null","81","","","","","","","","","","","","","","","",""
"","ISI","","html-keyboard-response","528","906033","0.0-1.0-732.0","0","0","37652","","null","","","null","81","NaN","","","","","","","","","","","","","","",""
"","S2","","html-keyboard-response","529","906291","0.0-1.0-733.0","0","0","37652","","null","","","null","81","","NaN","","","","","","","","","","","","","",""
"","response","","html-keyboard-response","530","906671","0.0-1.0-734.0-0.0","0","0","37652","","374","","","75","81","","","2","81","training","adjacent","EF","5","6","Q.jpg","R.jpg","0","1","0","",""
"","feedback","","html-keyboard-response","531","907682","0.0-1.0-735.0-0.0","0","0","37652","","null","","","null","81","","","","","","","","","","","","","","","",""
"","time_out","","html-keyboard-response","532","909690","0.0-1.0-737.0-0.0","0","0","37652","","null","","","null","81","","","","","","","","","","","","","","","",""
"","ITI","","html-keyboard-response","533","910699","0.0-1.0-738.0","0","0","37652","","null","","","null","81","","","","","","","","","","","","","","","NaN",""
"","S1","","html-keyboard-response","534","910956","0.0-1.0-740.0","0","0","37652","","null","","","null","82","","","","","","","","","","","","","","","",""
"","ISI","","html-keyboard-response","535","911465","0.0-1.0-741.0","0","0","37652","","466","","","68","82","d","","","","","","","","","","","","","","",""
"","S2","","html-keyboard-response","536","911722","0.0-1.0-742.0","0","0","37652","","null","","","null","82","","NaN","","","","","","","","","","","","","",""
"","response","","html-keyboard-response","537","911980","0.0-1.0-743.0-0.0","0","0","37652","","251","","","68","82","","","2","82","training","adjacent","DC","4","3","P.jpg","N.jpg","1","0","0","",""
"","feedback","","html-keyboard-response","538","912985","0.0-1.0-744.0-0.0","0","0","37652","","null","","","null","82","","","","","","","","","","","","","","","",""
"","time_out","","html-keyboard-response","539","914991","0.0-1.0-746.0-0.0","0","0","37652","","null","","","null","82","","","","","","","","","","","","","","","",""
"","ITI","","html-keyboard-response","540","915999","0.0-1.0-747.0","0","0","37652","","null","","","null","82","","","","","","","","","","","","","","","NaN",""
"","S1","","html-keyboard-response","541","916254","0.0-1.0-749.0","0","0","37652","","null","","","null","83","","","","","","","","","","","","","","","",""
"","ISI","","html-keyboard-response","542","916759","0.0-1.0-750.0","0","0","37652","","null","","","null","83","NaN","","","","","","","","","","","","","","",""
"","S2","","html-keyboard-response","543","917015","0.0-1.0-751.0","0","0","37652","","null","","","null","83","","NaN","","","","","","","","","","","","","",""
"","response","","html-keyboard-response","544","917397","0.0-1.0-752.0-0.0","0","0","37652","","375","","","75","83","","","2","83","training","adjacent","AB","1","2","O.jpg","M.jpg","0","1","0","",""
"","feedback","","html-keyboard-response","545","918404","0.0-1.0-753.0-0.0","0","0","37652","","null","","","null","83","","","","","","","","","","","","","","","",""
"","time_out","","html-keyboard-response","546","920412","0.0-1.0-755.0-0.0","0","0","37652","","null","","","null","83","","","","","","","","","","","","","","","",""
"","ITI","","html-keyboard-response","547","921417","0.0-1.0-756.0","0","0","37652","","null","","","null","83","","","","","","","","","","","","","","","NaN",""
"","S1","","html-keyboard-response","548","921674","0.0-1.0-758.0","0","0","37652","","null","","","null","84","","","","","","","","","","","","","","","",""
"","ISI","","html-keyboard-response","549","922183","0.0-1.0-759.0","0","0","37652","","null","","","null","84","NaN","","","","","","","","","","","","","","",""
"","S2","","html-keyboard-response","550","922439","0.0-1.0-760.0","0","0","37652","","null","","","null","84","","NaN","","","","","","","","","","","","","",""
"","response","","html-keyboard-response","551","922841","0.0-1.0-761.0-0.0","0","0","37652","","397","","","68","84","","","2","84","training","adjacent","AB","1","2","O.jpg","M.jpg","1","1","1","",""
"","feedback","","html-keyboard-response","552","923846","0.0-1.0-762.0-0.0","0","0","37652","","null","","","null","84","","","","","","","","","","","","","","","",""
"","ITI","","html-keyboard-response","553","924852","0.0-1.0-765.0","0","0","37652","","null","","","null","84","","","","","","","","","","","","","","","NaN",""
"","S1","","html-keyboard-response","554","925109","0.0-1.0-767.0","0","0","37652","","null","","","null","85","","","","","","","","","","","","","","","",""
"","ISI","","html-keyboard-response","555","925618","0.0-1.0-768.0","0","0","37652","","null","","","null","85","NaN","","","","","","","","","","","","","","",""
"","S2","","html-keyboard-response","556","925875","0.0-1.0-769.0","0","0","37652","","null","","","null","85","","NaN","","","","","","","","","","","","","",""
"","response","","html-keyboard-response","557","926558","0.0-1.0-770.0-0.0","0","0","37652","","676","","","75","85","","","2","85","training","adjacent","CB","3","2","N.jpg","M.jpg","0","0","1","",""
"","feedback","","html-keyboard-response","558","927566","0.0-1.0-771.0-0.0","0","0","37652","","null","","","null","85","","","","","","","","","","","","","","","",""
"","ITI","","html-keyboard-response","559","928574","0.0-1.0-774.0","0","0","37652","","null","","","null","85","","","","","","","","","","","","","","","NaN",""
"","S1","","html-keyboard-response","560","928833","0.0-1.0-776.0","0","0","37652","","null","","","null","86","","","","","","","","","","","","","","","",""
"","ISI","","html-keyboard-response","561","929337","0.0-1.0-777.0","0","0","37652","","null","","","null","86","NaN","","","","","","","","","","","","","","",""
"","S2","","html-keyboard-response","562","929592","0.0-1.0-778.0","0","0","37652","","null","","","null","86","","NaN","","","","","","","","","","","","","",""
"","response","","html-keyboard-response","563","930313","0.0-1.0-779.0-0.0","0","0","37652","","716","","","75","86","","","2","86","training","adjacent","AB","1","2","O.jpg","M.jpg","0","1","0","",""
"","feedback","","html-keyboard-response","564","931323","0.0-1.0-780.0-0.0","0","0","37652","","null","","","null","86","","","","","","","","","","","","","","","",""
"","time_out","","html-keyboard-response","565","933334","0.0-1.0-782.0-0.0","0","0","37652","","null","","","null","86","","","","","","","","","","","","","","","",""
"","ITI","","html-keyboard-response","566","934349","0.0-1.0-783.0","0","0","37652","","null","","","null","86","","","","","","","","","","","","","","","NaN",""
"","S1","","html-keyboard-response","567","934608","0.0-1.0-785.0","0","0","37652","","null","","","null","87","","","","","","","","","","","","","","","",""
"","ISI","","html-keyboard-response","568","935116","0.0-1.0-786.0","0","0","37652","","null","","","null","87","NaN","","","","","","","","","","","","","","",""
"","S2","","html-keyboard-response","569","935373","0.0-1.0-787.0","0","0","37652","","null","","","null","87","","NaN","","","","","","","","","","","","","",""
"","response","","html-keyboard-response","570","935665","0.0-1.0-788.0-0.0","0","0","37652","","284","","","75","87","","","2","87","training","adjacent","CD","3","4","N.jpg","P.jpg","0","1","0","",""
"","feedback","","html-keyboard-response","571","936673","0.0-1.0-789.0-0.0","0","0","37652","","null","","","null","87","","","","","","","","","","","","","","","",""
"","time_out","","html-keyboard-response","572","938682","0.0-1.0-791.0-0.0","0","0","37652","","null","","","null","87","","","","","","","","","","","","","","","",""
"","ITI","","html-keyboard-response","573","939705","0.0-1.0-792.0","0","0","37652","","null","","","null","87","","","","","","","","","","","","","","","NaN",""
"","S1","","html-keyboard-response","574","939963","0.0-1.0-794.0","0","0","37652","","null","","","null","88","","","","","","","","","","","","","","","",""
"","ISI","","html-keyboard-response","575","940468","0.0-1.0-795.0","0","0","37652","","null","","","null","88","NaN","","","","","","","","","","","","","","",""
"","S2","","html-keyboard-response","576","940725","0.0-1.0-796.0","0","0","37652","","null","","","null","88","","NaN","","","","","","","","","","","","","",""
"","response","","html-keyboard-response","577","941288","0.0-1.0-797.0-0.0","0","0","37652","","554","","","75","88","","","2","88","training","adjacent","GF","7","6","L.jpg","R.jpg","0","0","1","",""
"","feedback","","html-keyboard-response","578","942296","0.0-1.0-798.0-0.0","0","0","37652","","null","","","null","88","","","","","","","","","","","","","","","",""
"","ITI","","html-keyboard-response","579","943303","0.0-1.0-801.0","0","0","37652","","null","","","null","88","","","","","","","","","","","","","","","NaN",""
"","S1","","html-keyboard-response","580","943562","0.0-1.0-803.0","0","0","37652","","null","","","null","89","","","","","","","","","","","","","","","",""
"","ISI","","html-keyboard-response","581","944067","0.0-1.0-804.0","0","0","37652","","null","","","null","89","NaN","","","","","","","","","","","","","","",""
"","S2","","html-keyboard-response","582","944325","0.0-1.0-805.0","0","0","37652","","null","","","null","89","","NaN","","","","","","","","","","","","","",""
