"success","ttype","start_time","trial_type","trial_index","time_elapsed","internal_node_id","warning","missed_checkup","PID","view_history","rt","responses","repeat_instructions","key_press","index","keypress_isi","keypress_S2","block","trial_num","phase","group_type","pair_type","S1_stim","S2_stim","S1_img","S2_img","S1_chosen","S1_higher","accuracy","keypress_iti","total_bonus_tally"
"true","full_screen","d03072023hr2041","fullscreen","0","116294","0.0-0.0","0","0","88778","","","","","","","","","","","","","","","","","","","","","",""
"","instructions","","instructions","1","185905","0.0-1.0-0.0-0.0","0","0","88778","[{""page_index"":0,""viewing_time"":16859},{""page_index"":1,""viewing_time"":21446},{""page_index"":2,""viewing_time"":3496},{""page_index"":1,""viewing_time"":6328},{""page_index"":2,""viewing_time"":12088},{""page_index"":1,""viewing_time"":6831},{""page_index"":2,""viewing_time"":584},{""page_index"":3,""viewing_time"":1976}]","69608","","","","","","","","","","","","","","","","","","","",""
"","comprehension_check","","survey-multi-choice","2","227997","0.0-1.0-0.0-1.0","0","0","88778","","42088","{""Q0"":""True"",""Q1"":""D"",""Q2"":""Only when the screen 'MAKE A CHOICE' is shown"",""Q3"":""Green mark"",""Q4"":""either D or K""}","1","","","","","","","","","","","","","","","","","",""
"","missed_instruction_checkup","","html-keyboard-response","3","231201","0.0-1.0-0.0-2.0-0.0","0","1","88778","","3199","","","32","","","","","","","","","","","","","","","","",""
"","instructions","","instructions","4","246845","0.0-1.0-0.1-0.1","0","0","88778","[{""page_index"":0,""viewing_time"":1948},{""page_index"":1,""viewing_time"":11973},{""page_index"":2,""viewing_time"":1082},{""page_index"":3,""viewing_time"":640}]","15643","","","","","","","","","","","","","","","","","","","",""
"","comprehension_check","","survey-multi-choice","5","265360","0.0-1.0-0.1-1.1","0","0","88778","","18511","{""Q0"":""True"",""Q1"":""D"",""Q2"":""Once the second image appears and while the screen 'MAKE A CHOICE' is shown"",""Q3"":""Green mark"",""Q4"":""either D or K""}","0","","","","","","","","","","","","","","","","","",""
"","start_exp","","html-keyboard-response","6","267249","0.0-1.0-1.0","0","0","88778","","1887","","","32","","","","","","","","","","","","","","","","",""
"","S1","","html-keyboard-response","7","267502","0.0-1.0-2.0","0","0","88778","","null","","","null","0","","","","","","","","","","","","","","","",""
"","ISI","","html-keyboard-response","8","268503","0.0-1.0-3.0","0","0","88778","","null","","","null","0","NaN","","","","","","","","","","","","","","",""
"","S2","","html-keyboard-response","9","268756","0.0-1.0-4.0","0","0","88778","","null","","","null","0","","NaN","","","","","","","","","","","","","",""
"","response","","html-keyboard-response","10","269961","0.0-1.0-5.0-0.0","0","0","88778","","1203","","","75","0","","","1","0","training","adjacent","CB","3","2","R.jpg","Q.jpg","0","0","1","",""
"","feedback","","html-keyboard-response","11","270965","0.0-1.0-6.0-0.0","0","0","88778","","null","","","null","0","","","","","","","","","","","","","","","",""
"","ITI","","html-keyboard-response","12","271967","0.0-1.0-9.0","0","0","88778","","null","","","null","0","","","","","","","","","","","","","","","NaN",""
"","S1","","html-keyboard-response","13","272220","0.0-1.0-11.0","0","0","88778","","null","","","null","1","","","","","","","","","","","","","","","",""
"","ISI","","html-keyboard-response","14","273222","0.0-1.0-12.0","0","0","88778","","null","","","null","1","NaN","","","","","","","","","","","","","","",""
"","S2","","html-keyboard-response","15","273475","0.0-1.0-13.0","0","0","88778","","null","","","null","1","","NaN","","","","","","","","","","","","","",""
"","response","","html-keyboard-response","16","273985","0.0-1.0-14.0-0.0","0","0","88778","","509","","","68","1","","","1","1","training","adjacent","FG","6","7","O.jpg","L.jpg","1","1","1","",""
"","feedback","","html-keyboard-response","17","274988","0.0-1.0-15.0-0.0","0","0","88778","","null","","","null","1","","","","","","","","","","","","","","","",""
"","ITI","","html-keyboard-response","18","275991","0.0-1.0-18.0","0","0","88778","","null","","","null","1","","","","","","","","","","","","","","","NaN",""
"","S1","","html-keyboard-response","19","276244","0.0-1.0-20.0","0","0","88778","","null","","","null","2","","","","","","","","","","","","","","","",""
"","ISI","","html-keyboard-response","20","277248","0.0-1.0-21.0","0","0","88778","","null","","","null","2","NaN","","","","","","","","","","","","","","",""
"","S2","","html-keyboard-response","21","277501","0.0-1.0-22.0","0","0","88778","","null","","","null","2","","NaN","","","","","","","","","","","","","",""
"","response","","html-keyboard-response","22","278233","0.0-1.0-23.0-0.0","0","0","88778","","731","","","68","2","","","1","2","training","adjacent","DC","4","3","P.jpg","R.jpg","1","0","0","",""
"","feedback","","html-keyboard-response","23","279235","0.0-1.0-24.0-0.0","0","0","88778","","null","","","null","2","","","","","","","","","","","","","","","",""
"","time_out","","html-keyboard-response","24","281239","0.0-1.0-26.0-0.0","0","0","88778","","null","","","null","2","","","","","","","","","","","","","","","",""
"","ITI","","html-keyboard-response","25","282242","0.0-1.0-27.0","0","0","88778","","null","","","null","2","","","","","","","","","","","","","","","NaN",""
"","S1","","html-keyboard-response","26","282494","0.0-1.0-29.0","0","0","88778","","null","","","null","3","","","","","","","","","","","","","","","",""
"","ISI","","html-keyboard-response","27","283496","0.0-1.0-30.0","0","0","88778","","null","","","null","3","NaN","","","","","","","","","","","","","","",""
"","S2","","html-keyboard-response","28","283749","0.0-1.0-31.0","0","0","88778","","null","","","null","3","","NaN","","","","","","","","","","","","","",""
"","response","","html-keyboard-response","29","284057","0.0-1.0-32.0-0.0","0","0","88778","","306","","","68","3","","","1","3","training","adjacent","DC","4","3","P.jpg","R.jpg","1","0","0","",""
"","feedback","","html-keyboard-response","30","285061","0.0-1.0-33.0-0.0","0","0","88778","","null","","","null","3","","","","","","","","","","","","","","","",""
"","time_out","","html-keyboard-response","31","287063","0.0-1.0-35.0-0.0","0","0","88778","","null","","","null","3","","","","","","","","","","","","","","","",""
"","ITI","","html-keyboard-response","32","288065","0.0-1.0-36.0","0","0","88778","","null","","","null","3","","","","","","","","","","","","","","","NaN",""
"","S1","","html-keyboard-response","33","288318","0.0-1.0-38.0","0","0","88778","","null","","","null","4","","","","","","","","","","","","","","","",""
"","ISI","","html-keyboard-response","34","289321","0.0-1.0-39.0","0","0","88778","","null","","","null","4","NaN","","","","","","","","","","","","","","",""
"","S2","","html-keyboard-response","35","289573","0.0-1.0-40.0","0","0","88778","","null","","","null","4","","NaN","","","","","","","","","","","","","",""
"","response","","html-keyboard-response","36","289849","0.0-1.0-41.0-0.0","0","0","88778","","274","","","75","4","","","1","4","training","adjacent","GF","7","6","L.jpg","O.jpg","0","0","1","",""
"","feedback","","html-keyboard-response","37","290851","0.0-1.0-42.0-0.0","0","0","88778","","null","","","null","4","","","","","","","","","","","","","","","",""
"","ITI","","html-keyboard-response","38","291853","0.0-1.0-45.0","0","0","88778","","null","","","null","4","","","","","","","","","","","","","","","NaN",""
"","S1","","html-keyboard-response","39","292107","0.0-1.0-47.0","0","0","88778","","null","","","null","5","","","","","","","","","","","","","","","",""
"","ISI","","html-keyboard-response","40","293109","0.0-1.0-48.0","0","0","88778","","null","","","null","5","NaN","","","","","","","","","","","","","","",""
"","S2","","html-keyboard-response","41","293362","0.0-1.0-49.0","0","0","88778","","null","","","null","5","","NaN","","","","","","","","","","","","","",""
"","response","","html-keyboard-response","42","293873","0.0-1.0-50.0-0.0","0","0","88778","","508","","","68","5","","","1","5","training","adjacent","FE","6","5","O.jpg","M.jpg","1","0","0","",""
"","feedback","","html-keyboard-response","43","294876","0.0-1.0-51.0-0.0","0","0","88778","","null","","","null","5","","","","","","","","","","","","","","","",""
"","time_out","","html-keyboard-response","44","296878","0.0-1.0-53.0-0.0","0","0","88778","","null","","","null","5","","","","","","","","","","","","","","","",""
"","ITI","","html-keyboard-response","45","297882","0.0-1.0-54.0","0","0","88778","","null","","","null","5","","","","","","","","","","","","","","","NaN",""
"","S1","","html-keyboard-response","46","298135","0.0-1.0-56.0","0","0","88778","","null","","","null","6","","","","","","","","","","","","","","","",""
"","ISI","","html-keyboard-response","47","299137","0.0-1.0-57.0","0","0","88778","","null","","","null","6","NaN","","","","","","","","","","","","","","",""
"","S2","","html-keyboard-response","48","299390","0.0-1.0-58.0","0","0","88778","","null","","","null","6","","NaN","","","","","","","","","","","","","",""
"","response","","html-keyboard-response","49","299673","0.0-1.0-59.0-0.0","0","0","88778","","282","","","75","6","","","1","6","training","adjacent","ED","5","4","M.jpg","P.jpg","0","0","1","",""
"","feedback","","html-keyboard-response","50","300676","0.0-1.0-60.0-0.0","0","0","88778","","null","","","null","6","","","","","","","","","","","","","","","",""
"","ITI","","html-keyboard-response","51","301679","0.0-1.0-63.0","0","0","88778","","null","","","null","6","","","","","","","","","","","","","","","NaN",""
"","S1","","html-keyboard-response","52","301931","0.0-1.0-65.0","0","0","88778","","null","","","null","7","","","","","","","","","","","","","","","",""
"","ISI","","html-keyboard-response","53","302935","0.0-1.0-66.0","0","0","88778","","null","","","null","7","NaN","","","","","","","","","","","","","","",""
"","S2","","html-keyboard-response","54","303188","0.0-1.0-67.0","0","0","88778","","null","","","null","7","","NaN","","","","","","","","","","","","","",""
"","response","","html-keyboard-response","55","303489","0.0-1.0-68.0-0.0","0","0","88778","","298","","","75","7","","","1","7","training","adjacent","CD","3","4","R.jpg","P.jpg","0","1","0","",""
"","feedback","","html-keyboard-response","56","304491","0.0-1.0-69.0-0.0","0","0","88778","","null","","","null","7","","","","","","","","","","","","","","","",""
"","time_out","","html-keyboard-response","57","306495","0.0-1.0-71.0-0.0","0","0","88778","","null","","","null","7","","","","","","","","","","","","","","","",""
"","ITI","","html-keyboard-response","58","307497","0.0-1.0-72.0","0","0","88778","","null","","","null","7","","","","","","","","","","","","","","","NaN",""
"","S1","","html-keyboard-response","59","307751","0.0-1.0-74.0","0","0","88778","","null","","","null","8","","","","","","","","","","","","","","","",""
"","ISI","","html-keyboard-response","60","308764","0.0-1.0-75.0","0","0","88778","","null","","","null","8","NaN","","","","","","","","","","","","","","",""
"","S2","","html-keyboard-response","61","309017","0.0-1.0-76.0","0","0","88778","","null","","","null","8","","NaN","","","","","","","","","","","","","",""
"","response","","html-keyboard-response","62","309449","0.0-1.0-77.0-0.0","0","0","88778","","430","","","68","8","","","1","8","training","adjacent","GF","7","6","L.jpg","O.jpg","1","0","0","",""
"","feedback","","html-keyboard-response","63","310452","0.0-1.0-78.0-0.0","0","0","88778","","null","","","null","8","","","","","","","","","","","","","","","",""
"","time_out","","html-keyboard-response","64","312453","0.0-1.0-80.0-0.0","0","0","88778","","null","","","null","8","","","","","","","","","","","","","","","",""
"","ITI","","html-keyboard-response","65","313456","0.0-1.0-81.0","0","0","88778","","null","","","null","8","","","","","","","","","","","","","","","NaN",""
"","S1","","html-keyboard-response","66","313708","0.0-1.0-83.0","0","0","88778","","null","","","null","9","","","","","","","","","","","","","","","",""
"","ISI","","html-keyboard-response","67","314714","0.0-1.0-84.0","0","0","88778","","null","","","null","9","NaN","","","","","","","","","","","","","","",""
"","S2","","html-keyboard-response","68","314966","0.0-1.0-85.0","0","0","88778","","null","","","null","9","","NaN","","","","","","","","","","","","","",""
"","response","","html-keyboard-response","69","315266","0.0-1.0-86.0-0.0","0","0","88778","","297","","","75","9","","","1","9","training","adjacent","ED","5","4","M.jpg","P.jpg","0","0","1","",""
"","feedback","","html-keyboard-response","70","316268","0.0-1.0-87.0-0.0","0","0","88778","","null","","","null","9","","","","","","","","","","","","","","","",""
"","ITI","","html-keyboard-response","71","317271","0.0-1.0-90.0","0","0","88778","","null","","","null","9","","","","","","","","","","","","","","","NaN",""
"","S1","","html-keyboard-response","72","317524","0.0-1.0-92.0","0","0","88778","","null","","","null","10","","","","","","","","","","","","","","","",""
"","ISI","","html-keyboard-response","73","318528","0.0-1.0-93.0","0","0","88778","","null","","","null","10","NaN","","","","","","","","","","","","","","",""
"","S2","","html-keyboard-response","74","318782","0.0-1.0-94.0","0","0","88778","","null","","","null","10","","NaN","","","","","","","","","","","","","",""
"","response","","html-keyboard-response","75","319193","0.0-1.0-95.0-0.0","0","0","88778","","410","","","75","10","","","1","10","training","adjacent","AB","1","2","N.jpg","Q.jpg","0","1","0","",""
"","feedback","","html-keyboard-response","76","320196","0.0-1.0-96.0-0.0","0","0","88778","","null","","","null","10","","","","","","","","","","","","","","","",""
"","time_out","","html-keyboard-response","77","322198","0.0-1.0-98.0-0.0","0","0","88778","","null","","","null","10","","","","","","","","","","","","","","","",""
"","ITI","","html-keyboard-response","78","323200","0.0-1.0-99.0","0","0","88778","","null","","","null","10","","","","","","","","","","","","","","","NaN",""
"","S1","","html-keyboard-response","79","323454","0.0-1.0-101.0","0","0","88778","","null","","","null","11","","","","","","","","","","","","","","","",""
"","ISI","","html-keyboard-response","80","324456","0.0-1.0-102.0","0","0","88778","","null","","","null","11","NaN","","","","","","","","","","","","","","",""
"","S2","","html-keyboard-response","81","324709","0.0-1.0-103.0","0","0","88778","","null","","","null","11","","NaN","","","","","","","","","","","","","",""
"","response","","html-keyboard-response","82","324913","0.0-1.0-104.0-0.0","0","0","88778","","202","","","68","11","","","1","11","training","adjacent","BA","2","1","Q.jpg","N.jpg","1","0","0","",""
"","feedback","","html-keyboard-response","83","325916","0.0-1.0-105.0-0.0","0","0","88778","","null","","","null","11","","","","","","","","","","","","","","","",""
"","time_out","","html-keyboard-response","84","327919","0.0-1.0-107.0-0.0","0","0","88778","","null","","","null","11","","","","","","","","","","","","","","","",""
"","ITI","","html-keyboard-response","85","328922","0.0-1.0-108.0","0","0","88778","","null","","","null","11","","","","","","","","","","","","","","","NaN",""
"","S1","","html-keyboard-response","86","329174","0.0-1.0-110.0","0","0","88778","","null","","","null","12","","","","","","","","","","","","","","","",""
"","ISI","","html-keyboard-response","87","330176","0.0-1.0-111.0","0","0","88778","","null","","","null","12","NaN","","","","","","","","","","","","","","",""
"","S2","","html-keyboard-response","88","330428","0.0-1.0-112.0","0","0","88778","","null","","","null","12","","NaN","","","","","","","","","","","","","",""
"","response","","html-keyboard-response","89","330769","0.0-1.0-113.0-0.0","0","0","88778","","339","","","68","12","","","1","12","training","adjacent","DE","4","5","P.jpg","M.jpg","1","1","1","",""
"","feedback","","html-keyboard-response","90","331771","0.0-1.0-114.0-0.0","0","0","88778","","null","","","null","12","","","","","","","","","","","","","","","",""
"","ITI","","html-keyboard-response","91","332774","0.0-1.0-117.0","0","0","88778","","null","","","null","12","","","","","","","","","","","","","","","NaN",""
"","S1","","html-keyboard-response","92","333027","0.0-1.0-119.0","0","0","88778","","null","","","null","13","","","","","","","","","","","","","","","",""
"","ISI","","html-keyboard-response","93","334030","0.0-1.0-120.0","0","0","88778","","null","","","null","13","NaN","","","","","","","","","","","","","","",""
"","S2","","html-keyboard-response","94","334282","0.0-1.0-121.0","0","0","88778","","null","","","null","13","","NaN","","","","","","","","","","","","","",""
"","response","","html-keyboard-response","95","334769","0.0-1.0-122.0-0.0","0","0","88778","","486","","","68","13","","","1","13","training","adjacent","AB","1","2","N.jpg","Q.jpg","1","1","1","",""
"","feedback","","html-keyboard-response","96","335771","0.0-1.0-123.0-0.0","0","0","88778","","null","","","null","13","","","","","","","","","","","","","","","",""
"","ITI","","html-keyboard-response","97","336773","0.0-1.0-126.0","0","0","88778","","null","","","null","13","","","","","","","","","","","","","","","NaN",""
"","S1","","html-keyboard-response","98","337027","0.0-1.0-128.0","0","0","88778","","null","","","null","14","","","","","","","","","","","","","","","",""
"","ISI","","html-keyboard-response","99","338029","0.0-1.0-129.0","0","0","88778","","null","","","null","14","NaN","","","","","","","","","","","","","","",""
"","S2","","html-keyboard-response","100","338282","0.0-1.0-130.0","0","0","88778","","null","","","null","14","","NaN","","","","","","","","","","","","","",""
"","response","","html-keyboard-response","101","338505","0.0-1.0-131.0-0.0","0","0","88778","","222","","","75","14","","","1","14","training","adjacent","FG","6","7","O.jpg","L.jpg","0","1","0","",""
"","feedback","","html-keyboard-response","102","339510","0.0-1.0-132.0-0.0","0","0","88778","","null","","","null","14","","","","","","","","","","","","","","","",""
"","time_out","","html-keyboard-response","103","341513","0.0-1.0-134.0-0.0","0","0","88778","","null","","","null","14","","","","","","","","","","","","","","","",""
"","ITI","","html-keyboard-response","104","342515","0.0-1.0-135.0","0","0","88778","","null","","","null","14","","","","","","","","","","","","","","","NaN",""
"","S1","","html-keyboard-response","105","342768","0.0-1.0-137.0","0","0","88778","","null","","","null","15","","","","","","","","","","","","","","","",""
"","ISI","","html-keyboard-response","106","343771","0.0-1.0-138.0","0","0","88778","","null","","","null","15","NaN","","","","","","","","","","","","","","",""
"","S2","","html-keyboard-response","107","344024","0.0-1.0-139.0","0","0","88778","","null","","","null","15","","NaN","","","","","","","","","","","","","",""
"","response","","html-keyboard-response","108","344217","0.0-1.0-140.0-0.0","0","0","88778","","192","","","75","15","","","1","15","training","adjacent","CB","3","2","R.jpg","Q.jpg","0","0","1","",""
"","feedback","","html-keyboard-response","109","345220","0.0-1.0-141.0-0.0","0","0","88778","","null","","","null","15","","","","","","","","","","","","","","","",""
"","ITI","","html-keyboard-response","110","346222","0.0-1.0-144.0","0","0","88778","","null","","","null","15","","","","","","","","","","","","","","","NaN",""
"","S1","","html-keyboard-response","111","346475","0.0-1.0-146.0","0","0","88778","","null","","","null","16","","","","","","","","","","","","","","","",""
"","ISI","","html-keyboard-response","112","347478","0.0-1.0-147.0","0","0","88778","","null","","","null","16","NaN","","","","","","","","","","","","","","",""
"","S2","","html-keyboard-response","113","347730","0.0-1.0-148.0","0","0","88778","","null","","","null","16","","NaN","","","","","","","","","","","","","",""
"","response","","html-keyboard-response","114","348113","0.0-1.0-149.0-0.0","0","0","88778","","381","","","68","16","","","1","16","training","adjacent","CB","3","2","R.jpg","Q.jpg","1","0","0","",""
"","feedback","","html-keyboard-response","115","349119","0.0-1.0-150.0-0.0","0","0","88778","","null","","","null","16","","","","","","","","","","","","","","","",""
"","time_out","","html-keyboard-response","116","351122","0.0-1.0-152.0-0.0","0","0","88778","","null","","","null","16","","","","","","","","","","","","","","","",""
"","ITI","","html-keyboard-response","117","352124","0.0-1.0-153.0","0","0","88778","","null","","","null","16","","","","","","","","","","","","","","","NaN",""
"","S1","","html-keyboard-response","118","352377","0.0-1.0-155.0","0","0","88778","","null","","","null","17","","","","","","","","","","","","","","","",""
"","ISI","","html-keyboard-response","119","353379","0.0-1.0-156.0","0","0","88778","","null","","","null","17","NaN","","","","","","","","","","","","","","",""
"","S2","","html-keyboard-response","120","353631","0.0-1.0-157.0","0","0","88778","","null","","","null","17","","NaN","","","","","","","","","","","","","",""
"","response","","html-keyboard-response","121","354064","0.0-1.0-158.0-0.0","0","0","88778","","432","","","68","17","","","1","17","training","adjacent","BC","2","3","Q.jpg","R.jpg","1","1","1","",""
"","feedback","","html-keyboard-response","122","355066","0.0-1.0-159.0-0.0","0","0","88778","","null","","","null","17","","","","","","","","","","","","","","","",""
"","ITI","","html-keyboard-response","123","356069","0.0-1.0-162.0","0","0","88778","","null","","","null","17","","","","","","","","","","","","","","","NaN",""
"","S1","","html-keyboard-response","124","356321","0.0-1.0-164.0","0","0","88778","","null","","","null","18","","","","","","","","","","","","","","","",""
"","ISI","","html-keyboard-response","125","357323","0.0-1.0-165.0","0","0","88778","","null","","","null","18","NaN","","","","","","","","","","","","","","",""
"","S2","","html-keyboard-response","126","357576","0.0-1.0-166.0","0","0","88778","","null","","","null","18","","NaN","","","","","","","","","","","","","",""
"","response","","html-keyboard-response","127","357993","0.0-1.0-167.0-0.0","0","0","88778","","415","","","75","18","","","1","18","training","adjacent","CD","3","4","R.jpg","P.jpg","0","1","0","",""
"","feedback","","html-keyboard-response","128","358995","0.0-1.0-168.0-0.0","0","0","88778","","null","","","null","18","","","","","","","","","","","","","","","",""
"","time_out","","html-keyboard-response","129","360999","0.0-1.0-170.0-0.0","0","0","88778","","null","","","null","18","","","","","","","","","","","","","","","",""
"","ITI","","html-keyboard-response","130","362003","0.0-1.0-171.0","0","0","88778","","null","","","null","18","","","","","","","","","","","","","","","NaN",""
"","S1","","html-keyboard-response","131","362255","0.0-1.0-173.0","0","0","88778","","null","","","null","19","","","","","","","","","","","","","","","",""
"","ISI","","html-keyboard-response","132","363259","0.0-1.0-174.0","0","0","88778","","null","","","null","19","NaN","","","","","","","","","","","","","","",""
"","S2","","html-keyboard-response","133","363512","0.0-1.0-175.0","0","0","88778","","null","","","null","19","","NaN","","","","","","","","","","","","","",""
"","response","","html-keyboard-response","134","363785","0.0-1.0-176.0-0.0","0","0","88778","","271","","","75","19","","","1","19","training","adjacent","CD","3","4","R.jpg","P.jpg","0","1","0","",""
"","feedback","","html-keyboard-response","135","364787","0.0-1.0-177.0-0.0","0","0","88778","","null","","","null","19","","","","","","","","","","","","","","","",""
"","time_out","","html-keyboard-response","136","366791","0.0-1.0-179.0-0.0","0","0","88778","","null","","","null","19","","","","","","","","","","","","","","","",""
"","ITI","","html-keyboard-response","137","367794","0.0-1.0-180.0","0","0","88778","","null","","","null","19","","","","","","","","","","","","","","","NaN",""
"","S1","","html-keyboard-response","138","368047","0.0-1.0-182.0","0","0","88778","","null","","","null","20","","","","","","","","","","","","","","","",""
"","ISI","","html-keyboard-response","139","369049","0.0-1.0-183.0","0","0","88778","","null","","","null","20","NaN","","","","","","","","","","","","","","",""
"","S2","","html-keyboard-response","140","369302","0.0-1.0-184.0","0","0","88778","","null","","","null","20","","NaN","","","","","","","","","","","","","",""
"","response","","html-keyboard-response","141","369641","0.0-1.0-185.0-0.0","0","0","88778","","337","","","68","20","","","1","20","training","adjacent","BA","2","1","Q.jpg","N.jpg","1","0","0","",""
"","feedback","","html-keyboard-response","142","370643","0.0-1.0-186.0-0.0","0","0","88778","","null","","","null","20","","","","","","","","","","","","","","","",""
"","time_out","","html-keyboard-response","143","372645","0.0-1.0-188.0-0.0","0","0","88778","","null","","","null","20","","","","","","","","","","","","","","","",""
"","ITI","","html-keyboard-response","144","373647","0.0-1.0-189.0","0","0","88778","","null","","","null","20","","","","","","","","","","","","","","","NaN",""
"","S1","","html-keyboard-response","145","373901","0.0-1.0-191.0","0","0","88778","","null","","","null","21","","","","","","","","","","","","","","","",""
"","ISI","","html-keyboard-response","146","374903","0.0-1.0-192.0","0","0","88778","","null","","","null","21","NaN","","","","","","","","","","","","","","",""
"","S2","","html-keyboard-response","147","375155","0.0-1.0-193.0","0","0","88778","","null","","","null","21","","NaN","","","","","","","","","","","","","",""
"","response","","html-keyboard-response","148","375432","0.0-1.0-194.0-0.0","0","0","88778","","276","","","75","21","","","1","21","training","adjacent","DC","4","3","P.jpg","R.jpg","0","0","1","",""
"","feedback","","html-keyboard-response","149","376435","0.0-1.0-195.0-0.0","0","0","88778","","null","","","null","21","","","","","","","","","","","","","","","",""
"","ITI","","html-keyboard-response","150","377438","0.0-1.0-198.0","0","0","88778","","null","","","null","21","","","","","","","","","","","","","","","NaN",""
"","S1","","html-keyboard-response","151","377691","0.0-1.0-200.0","0","0","88778","","null","","","null","22","","","","","","","","","","","","","","","",""
"","ISI","","html-keyboard-response","152","378692","0.0-1.0-201.0","0","0","88778","","null","","","null","22","NaN","","","","","","","","","","","","","","",""
"","S2","","html-keyboard-response","153","378945","0.0-1.0-202.0","0","0","88778","","null","","","null","22","","NaN","","","","","","","","","","","","","",""
"","response","","html-keyboard-response","154","379377","0.0-1.0-203.0-0.0","0","0","88778","","431","","","75","22","","","1","22","training","adjacent","BA","2","1","Q.jpg","N.jpg","0","0","1","",""
"","feedback","","html-keyboard-response","155","380379","0.0-1.0-204.0-0.0","0","0","88778","","null","","","null","22","","","","","","","","","","","","","","","",""
"","ITI","","html-keyboard-response","156","381381","0.0-1.0-207.0","0","0","88778","","null","","","null","22","","","","","","","","","","","","","","","NaN",""
"","S1","","html-keyboard-response","157","381634","0.0-1.0-209.0","0","0","88778","","null","","","null","23","","","","","","","","","","","","","","","",""
"","ISI","","html-keyboard-response","158","382636","0.0-1.0-210.0","0","0","88778","","null","","","null","23","NaN","","","","","","","","","","","","","","",""
"","S2","","html-keyboard-response","159","382888","0.0-1.0-211.0","0","0","88778","","null","","","null","23","","NaN","","","","","","","","","","","","","",""
"","response","","html-keyboard-response","160","383184","0.0-1.0-212.0-0.0","0","0","88778","","295","","","75","23","","","1","23","training","adjacent","GF","7","6","L.jpg","O.jpg","0","0","1","",""
"","feedback","","html-keyboard-response","161","384187","0.0-1.0-213.0-0.0","0","0","88778","","null","","","null","23","","","","","","","","","","","","","","","",""
"","ITI","","html-keyboard-response","162","385189","0.0-1.0-216.0","0","0","88778","","null","","","null","23","","","","","","","","","","","","","","","NaN",""
"","S1","","html-keyboard-response","163","385442","0.0-1.0-218.0","0","0","88778","","null","","","null","24","","","","","","","","","","","","","","","",""
"","ISI","","html-keyboard-response","164","386444","0.0-1.0-219.0","0","0","88778","","null","","","null","24","NaN","","","","","","","","","","","","","","",""
"","S2","","html-keyboard-response","165","386696","0.0-1.0-220.0","0","0","88778","","null","","","null","24","","NaN","","","","","","","","","","","","","",""
"","response","","html-keyboard-response","166","387665","0.0-1.0-221.0-0.0","0","0","88778","","967","","","68","24","","","1","24","training","adjacent","AB","1","2","N.jpg","Q.jpg","1","1","1","",""
"","feedback","","html-keyboard-response","167","388667","0.0-1.0-222.0-0.0","0","0","88778","","null","","","null","24","","","","","","","","","","","","","","","",""
"","ITI","","html-keyboard-response","168","389677","0.0-1.0-225.0","0","0","88778","","null","","","null","24","","","","","","","","","","","","","","","NaN",""
"","S1","","html-keyboard-response","169","389930","0.0-1.0-227.0","0","0","88778","","null","","","null","25","","","","","","","","","","","","","","","",""
"","ISI","","html-keyboard-response","170","390933","0.0-1.0-228.0","0","0","88778","","null","","","null","25","NaN","","","","","","","","","","","","","","",""
"","S2","","html-keyboard-response","171","391185","0.0-1.0-229.0","0","0","88778","","null","","","null","25","","NaN","","","","","","","","","","","","","",""
"","response","","html-keyboard-response","172","391960","0.0-1.0-230.0-0.0","0","0","88778","","774","","","75","25","","","1","25","training","adjacent","ED","5","4","M.jpg","P.jpg","0","0","1","",""
"","feedback","","html-keyboard-response","173","392963","0.0-1.0-231.0-0.0","0","0","88778","","null","","","null","25","","","","","","","","","","","","","","","",""
"","ITI","","html-keyboard-response","174","393965","0.0-1.0-234.0","0","0","88778","","null","","","null","25","","","","","","","","","","","","","","","NaN",""
"","S1","","html-keyboard-response","175","394218","0.0-1.0-236.0","0","0","88778","","null","","","null","26","","","","","","","","","","","","","","","",""
"","ISI","","html-keyboard-response","176","395221","0.0-1.0-237.0","0","0","88778","","null","","","null","26","NaN","","","","","","","","","","","","","","",""
"","S2","","html-keyboard-response","177","395473","0.0-1.0-238.0","0","0","88778","","null","","","null","26","","NaN","","","","","","","","","","","","","",""
"","response","","html-keyboard-response","178","396104","0.0-1.0-239.0-0.0","0","0","88778","","630","","","68","26","","","1","26","training","adjacent","DE","4","5","P.jpg","M.jpg","1","1","1","",""
"","feedback","","html-keyboard-response","179","397108","0.0-1.0-240.0-0.0","0","0","88778","","null","","","null","26","","","","","","","","","","","","","","","",""
"","ITI","","html-keyboard-response","180","398110","0.0-1.0-243.0","0","0","88778","","null","","","null","26","","","","","","","","","","","","","","","NaN",""
"","S1","","html-keyboard-response","181","398363","0.0-1.0-245.0","0","0","88778","","null","","","null","27","","","","","","","","","","","","","","","",""
"","ISI","","html-keyboard-response","182","399365","0.0-1.0-246.0","0","0","88778","","null","","","null","27","NaN","","","","","","","","","","","","","","",""
"","S2","","html-keyboard-response","183","399619","0.0-1.0-247.0","0","0","88778","","null","","","null","27","","NaN","","","","","","","","","","","","","",""
"","response","","html-keyboard-response","184","400697","0.0-1.0-248.0-0.0","0","0","88778","","1077","","","75","27","","","1","27","training","adjacent","BA","2","1","Q.jpg","N.jpg","0","0","1","",""
"","feedback","","html-keyboard-response","185","401701","0.0-1.0-249.0-0.0","0","0","88778","","null","","","null","27","","","","","","","","","","","","","","","",""
"","ITI","","html-keyboard-response","186","402703","0.0-1.0-252.0","0","0","88778","","null","","","null","27","","","","","","","","","","","","","","","NaN",""
"","S1","","html-keyboard-response","187","402956","0.0-1.0-254.0","0","0","88778","","null","","","null","28","","","","","","","","","","","","","","","",""
"","ISI","","html-keyboard-response","188","403958","0.0-1.0-255.0","0","0","88778","","null","","","null","28","NaN","","","","","","","","","","","","","","",""
"","S2","","html-keyboard-response","189","404211","0.0-1.0-256.0","0","0","88778","","null","","","null","28","","NaN","","","","","","","","","","","","","",""
"","response","","html-keyboard-response","190","404929","0.0-1.0-257.0-0.0","0","0","88778","","715","","","75","28","","","1","28","training","adjacent","BC","2","3","Q.jpg","R.jpg","0","1","0","",""
"","feedback","","html-keyboard-response","191","405931","0.0-1.0-258.0-0.0","0","0","88778","","null","","","null","28","","","","","","","","","","","","","","","",""
"","time_out","","html-keyboard-response","192","407933","0.0-1.0-260.0-0.0","0","0","88778","","null","","","null","28","","","","","","","","","","","","","","","",""
"","ITI","","html-keyboard-response","193","408935","0.0-1.0-261.0","0","0","88778","","null","","","null","28","","","","","","","","","","","","","","","NaN",""
"","S1","","html-keyboard-response","194","409188","0.0-1.0-263.0","0","0","88778","","null","","","null","29","","","","","","","","","","","","","","","",""
"","ISI","","html-keyboard-response","195","410190","0.0-1.0-264.0","0","0","88778","","null","","","null","29","NaN","","","","","","","","","","","","","","",""
"","S2","","html-keyboard-response","196","410442","0.0-1.0-265.0","0","0","88778","","null","","","null","29","","NaN","","","","","","","","","","","","","",""
"","response","","html-keyboard-response","197","411137","0.0-1.0-266.0-0.0","0","0","88778","","693","","","68","29","","","1","29","training","adjacent","FE","6","5","O.jpg","M.jpg","1","0","0","",""
"","feedback","","html-keyboard-response","198","412139","0.0-1.0-267.0-0.0","0","0","88778","","null","","","null","29","","","","","","","","","","","","","","","",""
"","time_out","","html-keyboard-response","199","414141","0.0-1.0-269.0-0.0","0","0","88778","","null","","","null","29","","","","","","","","","","","","","","","",""
"","ITI","","html-keyboard-response","200","415152","0.0-1.0-270.0","0","0","88778","","null","","","null","29","","","","","","","","","","","","","","","NaN",""
"","S1","","html-keyboard-response","201","415408","0.0-1.0-272.0","0","0","88778","","null","","","null","30","","","","","","","","","","","","","","","",""
"","ISI","","html-keyboard-response","202","416411","0.0-1.0-273.0","0","0","88778","","null","","","null","30","NaN","","","","","","","","","","","","","","",""
"","S2","","html-keyboard-response","203","416664","0.0-1.0-274.0","0","0","88778","","null","","","null","30","","NaN","","","","","","","","","","","","","",""
"","response","","html-keyboard-response","204","417640","0.0-1.0-275.0-0.0","0","0","88778","","975","","","68","30","","","1","30","training","adjacent","EF","5","6","M.jpg","O.jpg","1","1","1","",""
"","feedback","","html-keyboard-response","205","418643","0.0-1.0-276.0-0.0","0","0","88778","","null","","","null","30","","","","","","","","","","","","","","","",""
"","ITI","","html-keyboard-response","206","419645","0.0-1.0-279.0","0","0","88778","","null","","","null","30","","","","","","","","","","","","","","","NaN",""
"","S1","","html-keyboard-response","207","419898","0.0-1.0-281.0","0","0","88778","","null","","","null","31","","","","","","","","","","","","","","","",""
"","ISI","","html-keyboard-response","208","420900","0.0-1.0-282.0","0","0","88778","","null","","","null","31","NaN","","","","","","","","","","","","","","",""
"","S2","","html-keyboard-response","209","421153","0.0-1.0-283.0","0","0","88778","","null","","","null","31","","NaN","","","","","","","","","","","","","",""
"","response","","html-keyboard-response","210","421513","0.0-1.0-284.0-0.0","0","0","88778","","358","","","75","31","","","1","31","training","adjacent","CD","3","4","R.jpg","P.jpg","0","1","0","",""
"","feedback","","html-keyboard-response","211","422515","0.0-1.0-285.0-0.0","0","0","88778","","null","","","null","31","","","","","","","","","","","","","","","",""
"","time_out","","html-keyboard-response","212","424518","0.0-1.0-287.0-0.0","0","0","88778","","null","","","null","31","","","","","","","","","","","","","","","",""
"","ITI","","html-keyboard-response","213","425519","0.0-1.0-288.0","0","0","88778","","null","","","null","31","","","","","","","","","","","","","","","NaN",""
"","S1","","html-keyboard-response","214","425772","0.0-1.0-290.0","0","0","88778","","null","","","null","32","","","","","","","","","","","","","","","",""
"","ISI","","html-keyboard-response","215","426775","0.0-1.0-291.0","0","0","88778","","null","","","null","32","NaN","","","","","","","","","","","","","","",""
"","S2","","html-keyboard-response","216","427028","0.0-1.0-292.0","0","0","88778","","null","","","null","32","","NaN","","","","","","","","","","","","","",""
"","response","","html-keyboard-response","217","427680","0.0-1.0-293.0-0.0","0","0","88778","","651","","","75","32","","","1","32","training","adjacent","FE","6","5","O.jpg","M.jpg","0","0","1","",""
"","feedback","","html-keyboard-response","218","428683","0.0-1.0-294.0-0.0","0","0","88778","","null","","","null","32","","","","","","","","","","","","","","","",""
"","ITI","","html-keyboard-response","219","429689","0.0-1.0-297.0","0","0","88778","","null","","","null","32","","","","","","","","","","","","","","","NaN",""
"","S1","","html-keyboard-response","220","429944","0.0-1.0-299.0","0","0","88778","","null","","","null","33","","","","","","","","","","","","","","","",""
"","ISI","","html-keyboard-response","221","430946","0.0-1.0-300.0","0","0","88778","","null","","","null","33","NaN","","","","","","","","","","","","","","",""
"","S2","","html-keyboard-response","222","431213","0.0-1.0-301.0","0","0","88778","","null","","","null","33","","NaN","","","","","","","","","","","","","",""
"","response","","html-keyboard-response","223","431937","0.0-1.0-302.0-0.0","0","0","88778","","721","","","68","33","","","1","33","training","adjacent","FG","6","7","O.jpg","L.jpg","1","1","1","",""
"","feedback","","html-keyboard-response","224","432939","0.0-1.0-303.0-0.0","0","0","88778","","null","","","null","33","","","","","","","","","","","","","","","",""
"","ITI","","html-keyboard-response","225","433941","0.0-1.0-306.0","0","0","88778","","null","","","null","33","","","","","","","","","","","","","","","NaN",""
"","S1","","html-keyboard-response","226","434194","0.0-1.0-308.0","0","0","88778","","null","","","null","34","","","","","","","","","","","","","","","",""
"","ISI","","html-keyboard-response","227","435198","0.0-1.0-309.0","0","0","88778","","null","","","null","34","NaN","","","","","","","","","","","","","","",""
"","S2","","html-keyboard-response","228","435450","0.0-1.0-310.0","0","0","88778","","null","","","null","34","","NaN","","","","","","","","","","","","","",""
"","response","","html-keyboard-response","229","436273","0.0-1.0-311.0-0.0","0","0","88778","","821","","","68","34","","","1","34","training","adjacent","DE","4","5","P.jpg","M.jpg","1","1","1","",""
"","feedback","","html-keyboard-response","230","437276","0.0-1.0-312.0-0.0","0","0","88778","","null","","","null","34","","","","","","","","","","","","","","","",""
"","ITI","","html-keyboard-response","231","438278","0.0-1.0-315.0","0","0","88778","","null","","","null","34","","","","","","","","","","","","","","","NaN",""
"","S1","","html-keyboard-response","232","438532","0.0-1.0-317.0","0","0","88778","","null","","","null","35","","","","","","","","","","","","","","","",""
"","ISI","","html-keyboard-response","233","439535","0.0-1.0-318.0","0","0","88778","","null","","","null","35","NaN","","","","","","","","","","","","","","",""
"","S2","","html-keyboard-response","234","439788","0.0-1.0-319.0","0","0","88778","","null","","","null","35","","NaN","","","","","","","","","","","","","",""
"","response","","html-keyboard-response","235","440705","0.0-1.0-320.0-0.0","0","0","88778","","914","","","75","35","","","1","35","training","adjacent","BC","2","3","Q.jpg","R.jpg","0","1","0","",""
"","feedback","","html-keyboard-response","236","441707","0.0-1.0-321.0-0.0","0","0","88778","","null","","","null","35","","","","","","","","","","","","","","","",""
"","time_out","","html-keyboard-response","237","443709","0.0-1.0-323.0-0.0","0","0","88778","","null","","","null","35","","","","","","","","","","","","","","","",""
"","ITI","","html-keyboard-response","238","444711","0.0-1.0-324.0","0","0","88778","","null","","","null","35","","","","","","","","","","","","","","","NaN",""
"","S1","","html-keyboard-response","239","444965","0.0-1.0-326.0","0","0","88778","","null","","","null","36","","","","","","","","","","","","","","","",""
"","ISI","","html-keyboard-response","240","445967","0.0-1.0-327.0","0","0","88778","","null","","","null","36","NaN","","","","","","","","","","","","","","",""
"","S2","","html-keyboard-response","241","446221","0.0-1.0-328.0","0","0","88778","","null","","","null","36","","NaN","","","","","","","","","","","","","",""
"","response","","html-keyboard-response","242","446640","0.0-1.0-329.0-0.0","0","0","88778","","418","","","75","36","","","1","36","training","adjacent","CB","3","2","R.jpg","Q.jpg","0","0","1","",""
"","feedback","","html-keyboard-response","243","447642","0.0-1.0-330.0-0.0","0","0","88778","","null","","","null","36","","","","","","","","","","","","","","","",""
"","ITI","","html-keyboard-response","244","448645","0.0-1.0-333.0","0","0","88778","","null","","","null","36","","","","","","","","","","","","","","","NaN",""
"","S1","","html-keyboard-response","245","448897","0.0-1.0-335.0","0","0","88778","","null","","","null","37","","","","","","","","","","","","","","","",""
"","ISI","","html-keyboard-response","246","449899","0.0-1.0-336.0","0","0","88778","","null","","","null","37","NaN","","","","","","","","","","","","","","",""
"","S2","","html-keyboard-response","247","450152","0.0-1.0-337.0","0","0","88778","","null","","","null","37","","NaN","","","","","","","","","","","","","",""
"","response","","html-keyboard-response","248","450961","0.0-1.0-338.0-0.0","0","0","88778","","807","","","68","37","","","1","37","training","adjacent","FE","6","5","O.jpg","M.jpg","1","0","0","",""
"","feedback","","html-keyboard-response","249","451964","0.0-1.0-339.0-0.0","0","0","88778","","null","","","null","37","","","","","","","","","","","","","","","",""
"","time_out","","html-keyboard-response","250","453967","0.0-1.0-341.0-0.0","0","0","88778","","null","","","null","37","","","","","","","","","","","","","","","",""
"","ITI","","html-keyboard-response","251","454970","0.0-1.0-342.0","0","0","88778","","null","","","null","37","","","","","","","","","","","","","","","NaN",""
"","S1","","html-keyboard-response","252","455223","0.0-1.0-344.0","0","0","88778","","null","","","null","38","","","","","","","","","","","","","","","",""
"","ISI","","html-keyboard-response","253","456226","0.0-1.0-345.0","0","0","88778","","null","","","null","38","NaN","","","","","","","","","","","","","","",""
"","S2","","html-keyboard-response","254","456479","0.0-1.0-346.0","0","0","88778","","null","","","null","38","","NaN","","","","","","","","","","","","","",""
"","response","","html-keyboard-response","255","456945","0.0-1.0-347.0-0.0","0","0","88778","","464","","","68","38","","","1","38","training","adjacent","FG","6","7","O.jpg","L.jpg","1","1","1","",""
"","feedback","","html-keyboard-response","256","457947","0.0-1.0-348.0-0.0","0","0","88778","","null","","","null","38","","","","","","","","","","","","","","","",""
"","ITI","","html-keyboard-response","257","458949","0.0-1.0-351.0","0","0","88778","","null","","","null","38","","","","","","","","","","","","","","","NaN",""
"","S1","","html-keyboard-response","258","459202","0.0-1.0-353.0","0","0","88778","","null","","","null","39","","","","","","","","","","","","","","","",""
"","ISI","","html-keyboard-response","259","460217","0.0-1.0-354.0","0","0","88778","","null","","","null","39","NaN","","","","","","","","","","","","","","",""
"","S2","","html-keyboard-response","260","460470","0.0-1.0-355.0","0","0","88778","","null","","","null","39","","NaN","","","","","","","","","","","","","",""
"","response","","html-keyboard-response","261","460849","0.0-1.0-356.0-0.0","0","0","88778","","376","","","75","39","","","1","39","training","adjacent","ED","5","4","M.jpg","P.jpg","0","0","1","",""
"","feedback","","html-keyboard-response","262","461855","0.0-1.0-357.0-0.0","0","0","88778","","null","","","null","39","","","","","","","","","","","","","","","",""
"","ITI","","html-keyboard-response","263","462860","0.0-1.0-360.0","0","0","88778","","null","","","null","39","","","","","","","","","","","","","","","NaN",""
"","S1","","html-keyboard-response","264","463113","0.0-1.0-362.0","0","0","88778","","null","","","null","40","","","","","","","","","","","","","","","",""
"","ISI","","html-keyboard-response","265","464116","0.0-1.0-363.0","0","0","88778","","null","","","null","40","NaN","","","","","","","","","","","","","","",""
"","S2","","html-keyboard-response","266","464369","0.0-1.0-364.0","0","0","88778","","null","","","null","40","","NaN","","","","","","","","","","","","","",""
"","response","","html-keyboard-response","267","465128","0.0-1.0-365.0-0.0","0","0","88778","","758","","","68","40","","","1","40","training","adjacent","AB","1","2","N.jpg","Q.jpg","1","1","1","",""
"","feedback","","html-keyboard-response","268","466132","0.0-1.0-366.0-0.0","0","0","88778","","null","","","null","40","","","","","","","","","","","","","","","",""
"","ITI","","html-keyboard-response","269","467134","0.0-1.0-369.0","0","0","88778","","null","","","null","40","","","","","","","","","","","","","","","NaN",""
"","S1","","html-keyboard-response","270","467387","0.0-1.0-371.0","0","0","88778","","null","","","null","41","","","","","","","","","","","","","","","",""
"","ISI","","html-keyboard-response","271","468390","0.0-1.0-372.0","0","0","88778","","null","","","null","41","NaN","","","","","","","","","","","","","","",""
"","S2","","html-keyboard-response","272","468642","0.0-1.0-373.0","0","0","88778","","null","","","null","41","","NaN","","","","","","","","","","","","","",""
"","response","","html-keyboard-response","273","470297","0.0-1.0-374.0-0.0","0","0","88778","","1652","","","68","41","","","1","41","training","adjacent","EF","5","6","M.jpg","O.jpg","1","1","1","",""
"","feedback","","html-keyboard-response","274","471300","0.0-1.0-375.0-0.0","0","0","88778","","null","","","null","41","","","","","","","","","","","","","","","",""
"","ITI","","html-keyboard-response","275","472314","0.0-1.0-378.0","0","0","88778","","null","","","null","41","","","","","","","","","","","","","","","NaN",""
"","S1","","html-keyboard-response","276","472566","0.0-1.0-380.0","0","0","88778","","null","","","null","42","","","","","","","","","","","","","","","",""
"","ISI","","html-keyboard-response","277","473568","0.0-1.0-381.0","0","0","88778","","null","","","null","42","NaN","","","","","","","","","","","","","","",""
"","S2","","html-keyboard-response","278","473821","0.0-1.0-382.0","0","0","88778","","null","","","null","42","","NaN","","","","","","","","","","","","","",""
"","response","","html-keyboard-response","279","474952","0.0-1.0-383.0-0.0","0","0","88778","","1130","","","75","42","","","1","42","training","adjacent","EF","5","6","M.jpg","O.jpg","0","1","0","",""
"","feedback","","html-keyboard-response","280","475957","0.0-1.0-384.0-0.0","0","0","88778","","null","","","null","42","","","","","","","","","","","","","","","",""
"","time_out","","html-keyboard-response","281","477960","0.0-1.0-386.0-0.0","0","0","88778","","null","","","null","42","","","","","","","","","","","","","","","",""
"","ITI","","html-keyboard-response","282","478963","0.0-1.0-387.0","0","0","88778","","null","","","null","42","","","","","","","","","","","","","","","NaN",""
"","S1","","html-keyboard-response","283","479215","0.0-1.0-389.0","0","0","88778","","null","","","null","43","","","","","","","","","","","","","","","",""
"","ISI","","html-keyboard-response","284","480218","0.0-1.0-390.0","0","0","88778","","null","","","null","43","NaN","","","","","","","","","","","","","","",""
"","S2","","html-keyboard-response","285","480470","0.0-1.0-391.0","0","0","88778","","null","","","null","43","","NaN","","","","","","","","","","","","","",""
"","response","","html-keyboard-response","286","480825","0.0-1.0-392.0-0.0","0","0","88778","","353","","","68","43","","","1","43","training","adjacent","DC","4","3","P.jpg","R.jpg","1","0","0","",""
"","feedback","","html-keyboard-response","287","481830","0.0-1.0-393.0-0.0","0","0","88778","","null","","","null","43","","","","","","","","","","","","","","","",""
"","time_out","","html-keyboard-response","288","483832","0.0-1.0-395.0-0.0","0","0","88778","","null","","","null","43","","","","","","","","","","","","","","","",""
"","ITI","","html-keyboard-response","289","484835","0.0-1.0-396.0","0","0","88778","","null","","","null","43","","","","","","","","","","","","","","","NaN",""
"","S1","","html-keyboard-response","290","485088","0.0-1.0-398.0","0","0","88778","","null","","","null","44","","","","","","","","","","","","","","","",""
"","ISI","","html-keyboard-response","291","486090","0.0-1.0-399.0","0","0","88778","","null","","","null","44","NaN","","","","","","","","","","","","","","",""
"","S2","","html-keyboard-response","292","486342","0.0-1.0-400.0","0","0","88778","","null","","","null","44","","NaN","","","","","","","","","","","","","",""
"","response","","html-keyboard-response","293","486913","0.0-1.0-401.0-0.0","0","0","88778","","568","","","68","44","","","1","44","training","adjacent","BC","2","3","Q.jpg","R.jpg","1","1","1","",""
"","feedback","","html-keyboard-response","294","487915","0.0-1.0-402.0-0.0","0","0","88778","","null","","","null","44","","","","","","","","","","","","","","","",""
"","ITI","","html-keyboard-response","295","488917","0.0-1.0-405.0","0","0","88778","","null","","","null","44","","","","","","","","","","","","","","","NaN",""
"","S1","","html-keyboard-response","296","489171","0.0-1.0-407.0","0","0","88778","","null","","","null","45","","","","","","","","","","","","","","","",""
"","ISI","","html-keyboard-response","297","490174","0.0-1.0-408.0","0","0","88778","","null","","","null","45","NaN","","","","","","","","","","","","","","",""
"","S2","","html-keyboard-response","298","490426","0.0-1.0-409.0","0","0","88778","","null","","","null","45","","NaN","","","","","","","","","","","","","",""
"","response","","html-keyboard-response","299","490977","0.0-1.0-410.0-0.0","0","0","88778","","549","","","75","45","","","1","45","training","adjacent","EF","5","6","M.jpg","O.jpg","0","1","0","",""
"","feedback","","html-keyboard-response","300","491979","0.0-1.0-411.0-0.0","0","0","88778","","null","","","null","45","","","","","","","","","","","","","","","",""
"","time_out","","html-keyboard-response","301","493981","0.0-1.0-413.0-0.0","0","0","88778","","null","","","null","45","","","","","","","","","","","","","","","",""
"","ITI","","html-keyboard-response","302","494983","0.0-1.0-414.0","0","0","88778","","null","","","null","45","","","","","","","","","","","","","","","NaN",""
"","S1","","html-keyboard-response","303","495235","0.0-1.0-416.0","0","0","88778","","null","","","null","46","","","","","","","","","","","","","","","",""
"","ISI","","html-keyboard-response","304","496240","0.0-1.0-417.0","0","0","88778","","null","","","null","46","NaN","","","","","","","","","","","","","","",""
"","S2","","html-keyboard-response","305","496492","0.0-1.0-418.0","0","0","88778","","null","","","null","46","","NaN","","","","","","","","","","","","","",""
"","response","","html-keyboard-response","306","496986","0.0-1.0-419.0-0.0","0","0","88778","","492","","","75","46","","","1","46","training","adjacent","GF","7","6","L.jpg","O.jpg","0","0","1","",""
"","feedback","","html-keyboard-response","307","497989","0.0-1.0-420.0-0.0","0","0","88778","","null","","","null","46","","","","","","","","","","","","","","","",""
"","ITI","","html-keyboard-response","308","498990","0.0-1.0-423.0","0","0","88778","","null","","","null","46","","","","","","","","","","","","","","","NaN",""
"","S1","","html-keyboard-response","309","499243","0.0-1.0-425.0","0","0","88778","","null","","","null","47","","","","","","","","","","","","","","","",""
"","ISI","","html-keyboard-response","310","500246","0.0-1.0-426.0","0","0","88778","","null","","","null","47","NaN","","","","","","","","","","","","","","",""
"","S2","","html-keyboard-response","311","500499","0.0-1.0-427.0","0","0","88778","","null","","","null","47","","NaN","","","","","","","","","","","","","",""
"","response","","html-keyboard-response","312","501129","0.0-1.0-428.0-0.0","0","0","88778","","629","","","68","47","","","1","47","training","adjacent","DE","4","5","P.jpg","M.jpg","1","1","1","",""
"","feedback","","html-keyboard-response","313","502132","0.0-1.0-429.0-0.0","0","0","88778","","null","","","null","47","","","","","","","","","","","","","","","",""
"","ITI","","html-keyboard-response","314","503134","0.0-1.0-432.0","0","0","88778","","null","","","null","47","","","","","","","","","","","","","","","NaN",""
"","block_over","","html-keyboard-response","315","508793","0.0-1.0-433.0-0.0","0","0","88778","","5657","","","32","47","","","","","","","","","","","","","","","",""
"","S1","","html-keyboard-response","316","509045","0.0-1.0-434.0","0","0","88778","","null","","","null","48","","","","","","","","","","","","","","","",""
"","ISI","","html-keyboard-response","317","510048","0.0-1.0-435.0","0","0","88778","","null","","","null","48","NaN","","","","","","","","","","","","","","",""
"","S2","","html-keyboard-response","318","510302","0.0-1.0-436.0","0","0","88778","","null","","","null","48","","NaN","","","","","","","","","","","","","",""
"","response","","html-keyboard-response","319","510753","0.0-1.0-437.0-0.0","0","0","88778","","450","","","75","48","","","2","48","training","adjacent","EF","5","6","M.jpg","O.jpg","0","1","0","",""
"","feedback","","html-keyboard-response","320","511758","0.0-1.0-438.0-0.0","0","0","88778","","null","","","null","48","","","","","","","","","","","","","","","",""
"","time_out","","html-keyboard-response","321","513762","0.0-1.0-440.0-0.0","0","0","88778","","null","","","null","48","","","","","","","","","","","","","","","",""
"","ITI","","html-keyboard-response","322","514766","0.0-1.0-441.0","0","0","88778","","null","","","null","48","","","","","","","","","","","","","","","NaN",""
"","S1","","html-keyboard-response","323","515018","0.0-1.0-443.0","0","0","88778","","null","","","null","49","","","","","","","","","","","","","","","",""
"","ISI","","html-keyboard-response","324","516020","0.0-1.0-444.0","0","0","88778","","null","","","null","49","NaN","","","","","","","","","","","","","","",""
"","S2","","html-keyboard-response","325","516272","0.0-1.0-445.0","0","0","88778","","null","","","null","49","","NaN","","","","","","","","","","","","","",""
"","response","","html-keyboard-response","326","516946","0.0-1.0-446.0-0.0","0","0","88778","","671","","","68","49","","","2","49","training","adjacent","DE","4","5","P.jpg","M.jpg","1","1","1","",""
"","feedback","","html-keyboard-response","327","517949","0.0-1.0-447.0-0.0","0","0","88778","","null","","","null","49","","","","","","","","","","","","","","","",""
"","ITI","","html-keyboard-response","328","518951","0.0-1.0-450.0","0","0","88778","","null","","","null","49","","","","","","","","","","","","","","","NaN",""
"","S1","","html-keyboard-response","329","519204","0.0-1.0-452.0","0","0","88778","","null","","","null","50","","","","","","","","","","","","","","","",""
"","ISI","","html-keyboard-response","330","520207","0.0-1.0-453.0","0","0","88778","","null","","","null","50","NaN","","","","","","","","","","","","","","",""
"","S2","","html-keyboard-response","331","520460","0.0-1.0-454.0","0","0","88778","","null","","","null","50","","NaN","","","","","","","","","","","","","",""
"","response","","html-keyboard-response","332","521001","0.0-1.0-455.0-0.0","0","0","88778","","539","","","75","50","","","2","50","training","adjacent","DE","4","5","P.jpg","M.jpg","0","1","0","",""
"","feedback","","html-keyboard-response","333","522003","0.0-1.0-456.0-0.0","0","0","88778","","null","","","null","50","","","","","","","","","","","","","","","",""
"","time_out","","html-keyboard-response","334","524005","0.0-1.0-458.0-0.0","0","0","88778","","null","","","null","50","","","","","","","","","","","","","","","",""
"","ITI","","html-keyboard-response","335","525007","0.0-1.0-459.0","0","0","88778","","null","","","null","50","","","","","","","","","","","","","","","NaN",""
"","S1","","html-keyboard-response","336","525260","0.0-1.0-461.0","0","0","88778","","null","","","null","51","","","","","","","","","","","","","","","",""
"","ISI","","html-keyboard-response","337","526262","0.0-1.0-462.0","0","0","88778","","null","","","null","51","NaN","","","","","","","","","","","","","","",""
"","S2","","html-keyboard-response","338","526515","0.0-1.0-463.0","0","0","88778","","null","","","null","51","","NaN","","","","","","","","","","","","","",""
"","response","","html-keyboard-response","339","526937","0.0-1.0-464.0-0.0","0","0","88778","","420","","","68","51","","","2","51","training","adjacent","CD","3","4","R.jpg","P.jpg","1","1","1","",""
"","feedback","","html-keyboard-response","340","527940","0.0-1.0-465.0-0.0","0","0","88778","","null","","","null","51","","","","","","","","","","","","","","","",""
"","ITI","","html-keyboard-response","341","528942","0.0-1.0-468.0","0","0","88778","","null","","","null","51","","","","","","","","","","","","","","","NaN",""
"","S1","","html-keyboard-response","342","529195","0.0-1.0-470.0","0","0","88778","","null","","","null","52","","","","","","","","","","","","","","","",""
"","ISI","","html-keyboard-response","343","530199","0.0-1.0-471.0","0","0","88778","","null","","","null","52","NaN","","","","","","","","","","","","","","",""
"","S2","","html-keyboard-response","344","530452","0.0-1.0-472.0","0","0","88778","","null","","","null","52","","NaN","","","","","","","","","","","","","",""
"","response","","html-keyboard-response","345","531411","0.0-1.0-473.0-0.0","0","0","88778","","957","","","75","52","","","2","52","training","adjacent","ED","5","4","M.jpg","P.jpg","0","0","1","",""
"","feedback","","html-keyboard-response","346","532414","0.0-1.0-474.0-0.0","0","0","88778","","null","","","null","52","","","","","","","","","","","","","","","",""
"","ITI","","html-keyboard-response","347","533416","0.0-1.0-477.0","0","0","88778","","null","","","null","52","","","","","","","","","","","","","","","NaN",""
"","S1","","html-keyboard-response","348","533668","0.0-1.0-479.0","0","0","88778","","null","","","null","53","","","","","","","","","","","","","","","",""
"","ISI","","html-keyboard-response","349","534671","0.0-1.0-480.0","0","0","88778","","null","","","null","53","NaN","","","","","","","","","","","","","","",""
"","S2","","html-keyboard-response","350","534924","0.0-1.0-481.0","0","0","88778","","null","","","null","53","","NaN","","","","","","","","","","","","","",""
"","response","","html-keyboard-response","351","535465","0.0-1.0-482.0-0.0","0","0","88778","","540","","","75","53","","","2","53","training","adjacent","CB","3","2","R.jpg","Q.jpg","0","0","1","",""
"","feedback","","html-keyboard-response","352","536467","0.0-1.0-483.0-0.0","0","0","88778","","null","","","null","53","","","","","","","","","","","","","","","",""
"","ITI","","html-keyboard-response","353","537469","0.0-1.0-486.0","0","0","88778","","null","","","null","53","","","","","","","","","","","","","","","NaN",""
"","S1","","html-keyboard-response","354","537723","0.0-1.0-488.0","0","0","88778","","null","","","null","54","","","","","","","","","","","","","","","",""
"","ISI","","html-keyboard-response","355","538724","0.0-1.0-489.0","0","0","88778","","null","","","null","54","NaN","","","","","","","","","","","","","","",""
"","S2","","html-keyboard-response","356","538978","0.0-1.0-490.0","0","0","88778","","null","","","null","54","","NaN","","","","","","","","","","","","","",""
"","response","","html-keyboard-response","357","539921","0.0-1.0-491.0-0.0","0","0","88778","","942","","","75","54","","","2","54","training","adjacent","AB","1","2","N.jpg","Q.jpg","0","1","0","",""
"","feedback","","html-keyboard-response","358","540924","0.0-1.0-492.0-0.0","0","0","88778","","null","","","null","54","","","","","","","","","","","","","","","",""
"","time_out","","html-keyboard-response","359","542926","0.0-1.0-494.0-0.0","0","0","88778","","null","","","null","54","","","","","","","","","","","","","","","",""
"","ITI","","html-keyboard-response","360","543928","0.0-1.0-495.0","0","0","88778","","null","","","null","54","","","","","","","","","","","","","","","NaN",""
"","S1","","html-keyboard-response","361","544181","0.0-1.0-497.0","0","0","88778","","null","","","null","55","","","","","","","","","","","","","","","",""
"","ISI","","html-keyboard-response","362","545184","0.0-1.0-498.0","0","0","88778","","null","","","null","55","NaN","","","","","","","","","","","","","","",""
"","S2","","html-keyboard-response","363","545437","0.0-1.0-499.0","0","0","88778","","null","","","null","55","","NaN","","","","","","","","","","","","","",""
"","response","","html-keyboard-response","364","546369","0.0-1.0-500.0-0.0","0","0","88778","","931","","","75","55","","","2","55","training","adjacent","FG","6","7","O.jpg","L.jpg","0","1","0","",""
"","feedback","","html-keyboard-response","365","547372","0.0-1.0-501.0-0.0","0","0","88778","","null","","","null","55","","","","","","","","","","","","","","","",""
"","time_out","","html-keyboard-response","366","549374","0.0-1.0-503.0-0.0","0","0","88778","","null","","","null","55","","","","","","","","","","","","","","","",""
"","ITI","","html-keyboard-response","367","550378","0.0-1.0-504.0","0","0","88778","","null","","","null","55","","","","","","","","","","","","","","","NaN",""
"","S1","","html-keyboard-response","368","550639","0.0-1.0-506.0","0","0","88778","","null","","","null","56","","","","","","","","","","","","","","","",""
"","ISI","","html-keyboard-response","369","551641","0.0-1.0-507.0","0","0","88778","","null","","","null","56","NaN","","","","","","","","","","","","","","",""
"","S2","","html-keyboard-response","370","551893","0.0-1.0-508.0","0","0","88778","","null","","","null","56","","NaN","","","","","","","","","","","","","",""
"","response","","html-keyboard-response","371","552737","0.0-1.0-509.0-0.0","0","0","88778","","843","","","68","56","","","2","56","training","adjacent","AB","1","2","N.jpg","Q.jpg","1","1","1","",""
"","feedback","","html-keyboard-response","372","553750","0.0-1.0-510.0-0.0","0","0","88778","","null","","","null","56","","","","","","","","","","","","","","","",""
"","ITI","","html-keyboard-response","373","554752","0.0-1.0-513.0","0","0","88778","","null","","","null","56","","","","","","","","","","","","","","","NaN",""
"","S1","","html-keyboard-response","374","555004","0.0-1.0-515.0","0","0","88778","","null","","","null","57","","","","","","","","","","","","","","","",""
"","ISI","","html-keyboard-response","375","556007","0.0-1.0-516.0","0","0","88778","","null","","","null","57","NaN","","","","","","","","","","","","","","",""
"","S2","","html-keyboard-response","376","556260","0.0-1.0-517.0","0","0","88778","","null","","","null","57","","NaN","","","","","","","","","","","","","",""
"","response","","html-keyboard-response","377","557265","0.0-1.0-518.0-0.0","0","0","88778","","1003","","","68","57","","","2","57","training","adjacent","FG","6","7","O.jpg","L.jpg","1","1","1","",""
"","feedback","","html-keyboard-response","378","558270","0.0-1.0-519.0-0.0","0","0","88778","","null","","","null","57","","","","","","","","","","","","","","","",""
"","ITI","","html-keyboard-response","379","559274","0.0-1.0-522.0","0","0","88778","","null","","","null","57","","","","","","","","","","","","","","","NaN",""
"","S1","","html-keyboard-response","380","559527","0.0-1.0-524.0","0","0","88778","","null","","","null","58","","","","","","","","","","","","","","","",""
"","ISI","","html-keyboard-response","381","560530","0.0-1.0-525.0","0","0","88778","","null","","","null","58","NaN","","","","","","","","","","","","","","",""
"","S2","","html-keyboard-response","382","560789","0.0-1.0-526.0","0","0","88778","","null","","","null","58","","NaN","","","","","","","","","","","","","",""
"","response","","html-keyboard-response","383","562050","0.0-1.0-527.0-0.0","0","0","88778","","1257","","","75","58","","","2","58","training","adjacent","BA","2","1","Q.jpg","N.jpg","0","0","1","",""
"","feedback","","html-keyboard-response","384","563053","0.0-1.0-528.0-0.0","0","0","88778","","null","","","null","58","","","","","","","","","","","","","","","",""
"","ITI","","html-keyboard-response","385","564055","0.0-1.0-531.0","0","0","88778","","null","","","null","58","","","","","","","","","","","","","","","NaN",""
"","S1","","html-keyboard-response","386","564311","0.0-1.0-533.0","0","0","88778","","null","","","null","59","","","","","","","","","","","","","","","",""
"","ISI","","html-keyboard-response","387","565314","0.0-1.0-534.0","0","0","88778","","null","","","null","59","NaN","","","","","","","","","","","","","","",""
"","S2","","html-keyboard-response","388","565567","0.0-1.0-535.0","0","0","88778","","null","","","null","59","","NaN","","","","","","","","","","","","","",""
"","response","","html-keyboard-response","389","566905","0.0-1.0-536.0-0.0","0","0","88778","","1336","","","75","59","","","2","59","training","adjacent","FG","6","7","O.jpg","L.jpg","0","1","0","",""
"","feedback","","html-keyboard-response","390","567908","0.0-1.0-537.0-0.0","0","0","88778","","null","","","null","59","","","","","","","","","","","","","","","",""
"","time_out","","html-keyboard-response","391","569911","0.0-1.0-539.0-0.0","0","0","88778","","null","","","null","59","","","","","","","","","","","","","","","",""
"","ITI","","html-keyboard-response","392","570914","0.0-1.0-540.0","0","0","88778","","null","","","null","59","","","","","","","","","","","","","","","NaN",""
"","S1","","html-keyboard-response","393","571167","0.0-1.0-542.0","0","0","88778","","null","","","null","60","","","","","","","","","","","","","","","",""
"","ISI","","html-keyboard-response","394","572169","0.0-1.0-543.0","0","0","88778","","null","","","null","60","NaN","","","","","","","","","","","","","","",""
"","S2","","html-keyboard-response","395","572422","0.0-1.0-544.0","0","0","88778","","null","","","null","60","","NaN","","","","","","","","","","","","","",""
"","response","","html-keyboard-response","396","573256","0.0-1.0-545.0-0.0","0","0","88778","","833","","","68","60","","","2","60","training","adjacent","GF","7","6","L.jpg","O.jpg","1","0","0","",""
"","feedback","","html-keyboard-response","397","574260","0.0-1.0-546.0-0.0","0","0","88778","","null","","","null","60","","","","","","","","","","","","","","","",""
"","time_out","","html-keyboard-response","398","576263","0.0-1.0-548.0-0.0","0","0","88778","","null","","","null","60","","","","","","","","","","","","","","","",""
"","ITI","","html-keyboard-response","399","577266","0.0-1.0-549.0","0","0","88778","","null","","","null","60","","","","","","","","","","","","","","","NaN",""
"","S1","","html-keyboard-response","400","577519","0.0-1.0-551.0","0","0","88778","","null","","","null","61","","","","","","","","","","","","","","","",""
"","ISI","","html-keyboard-response","401","578523","0.0-1.0-552.0","0","0","88778","","null","","","null","61","NaN","","","","","","","","","","","","","","",""
"","S2","","html-keyboard-response","402","578777","0.0-1.0-553.0","0","0","88778","","null","","","null","61","","NaN","","","","","","","","","","","","","",""
"","response","","html-keyboard-response","403","579745","0.0-1.0-554.0-0.0","0","0","88778","","966","","","75","61","","","2","61","training","adjacent","BA","2","1","Q.jpg","N.jpg","0","0","1","",""
"","feedback","","html-keyboard-response","404","580748","0.0-1.0-555.0-0.0","0","0","88778","","null","","","null","61","","","","","","","","","","","","","","","",""
"","ITI","","html-keyboard-response","405","581750","0.0-1.0-558.0","0","0","88778","","null","","","null","61","","","","","","","","","","","","","","","NaN",""
"","S1","","html-keyboard-response","406","582003","0.0-1.0-560.0","0","0","88778","","null","","","null","62","","","","","","","","","","","","","","","",""
"","ISI","","html-keyboard-response","407","583005","0.0-1.0-561.0","0","0","88778","","null","","","null","62","NaN","","","","","","","","","","","","","","",""
"","S2","","html-keyboard-response","408","583257","0.0-1.0-562.0","0","0","88778","","null","","","null","62","","NaN","","","","","","","","","","","","","",""
"","response","","html-keyboard-response","409","584513","0.0-1.0-563.0-0.0","0","0","88778","","1254","","","68","62","","","2","62","training","adjacent","DC","4","3","P.jpg","R.jpg","1","0","0","",""
"","feedback","","html-keyboard-response","410","585516","0.0-1.0-564.0-0.0","0","0","88778","","null","","","null","62","","","","","","","","","","","","","","","",""
"","time_out","","html-keyboard-response","411","587518","0.0-1.0-566.0-0.0","0","0","88778","","null","","","null","62","","","","","","","","","","","","","","","",""
"","ITI","","html-keyboard-response","412","588521","0.0-1.0-567.0","0","0","88778","","null","","","null","62","","","","","","","","","","","","","","","NaN",""
"","S1","","html-keyboard-response","413","588775","0.0-1.0-569.0","0","0","88778","","null","","","null","63","","","","","","","","","","","","","","","",""
"","ISI","","html-keyboard-response","414","589785","0.0-1.0-570.0","0","0","88778","","null","","","null","63","NaN","","","","","","","","","","","","","","",""
"","S2","","html-keyboard-response","415","590038","0.0-1.0-571.0","0","0","88778","","null","","","null","63","","NaN","","","","","","","","","","","","","",""
"","response","","html-keyboard-response","416","591089","0.0-1.0-572.0-0.0","0","0","88778","","1050","","","68","63","","","2","63","training","adjacent","GF","7","6","L.jpg","O.jpg","1","0","0","",""
"","feedback","","html-keyboard-response","417","592091","0.0-1.0-573.0-0.0","0","0","88778","","null","","","null","63","","","","","","","","","","","","","","","",""
"","time_out","","html-keyboard-response","418","594094","0.0-1.0-575.0-0.0","0","0","88778","","null","","","null","63","","","","","","","","","","","","","","","",""
"","ITI","","html-keyboard-response","419","595097","0.0-1.0-576.0","0","0","88778","","null","","","null","63","","","","","","","","","","","","","","","NaN",""
"","S1","","html-keyboard-response","420","595349","0.0-1.0-578.0","0","0","88778","","null","","","null","64","","","","","","","","","","","","","","","",""
"","ISI","","html-keyboard-response","421","596352","0.0-1.0-579.0","0","0","88778","","null","","","null","64","NaN","","","","","","","","","","","","","","",""
"","S2","","html-keyboard-response","422","596605","0.0-1.0-580.0","0","0","88778","","null","","","null","64","","NaN","","","","","","","","","","","","","",""
"","response","","html-keyboard-response","423","596954","0.0-1.0-581.0-0.0","0","0","88778","","347","","","75","64","","","2","64","training","adjacent","ED","5","4","M.jpg","P.jpg","0","0","1","",""
"","feedback","","html-keyboard-response","424","597959","0.0-1.0-582.0-0.0","0","0","88778","","null","","","null","64","","","","","","","","","","","","","","","",""
"","ITI","","html-keyboard-response","425","598975","0.0-1.0-585.0","0","0","88778","","null","","","null","64","","","","","","","","","","","","","","","NaN",""
"","S1","","html-keyboard-response","426","599227","0.0-1.0-587.0","0","0","88778","","null","","","null","65","","","","","","","","","","","","","","","",""
"","ISI","","html-keyboard-response","427","600229","0.0-1.0-588.0","0","0","88778","","null","","","null","65","NaN","","","","","","","","","","","","","","",""
"","S2","","html-keyboard-response","428","600482","0.0-1.0-589.0","0","0","88778","","null","","","null","65","","NaN","","","","","","","","","","","","","",""
"","response","","html-keyboard-response","429","601585","0.0-1.0-590.0-0.0","0","0","88778","","1102","","","75","65","","","2","65","training","adjacent","CB","3","2","R.jpg","Q.jpg","0","0","1","",""
"","feedback","","html-keyboard-response","430","602588","0.0-1.0-591.0-0.0","0","0","88778","","null","","","null","65","","","","","","","","","","","","","","","",""
"","ITI","","html-keyboard-response","431","603591","0.0-1.0-594.0","0","0","88778","","null","","","null","65","","","","","","","","","","","","","","","NaN",""
"","S1","","html-keyboard-response","432","603845","0.0-1.0-596.0","0","0","88778","","null","","","null","66","","","","","","","","","","","","","","","",""
"","ISI","","html-keyboard-response","433","604846","0.0-1.0-597.0","0","0","88778","","null","","","null","66","NaN","","","","","","","","","","","","","","",""
"","S2","","html-keyboard-response","434","605099","0.0-1.0-598.0","0","0","88778","","null","","","null","66","","NaN","","","","","","","","","","","","","",""
"","response","","html-keyboard-response","435","606153","0.0-1.0-599.0-0.0","0","0","88778","","1053","","","68","66","","","2","66","training","adjacent","CB","3","2","R.jpg","Q.jpg","1","0","0","",""
"","feedback","","html-keyboard-response","436","607156","0.0-1.0-600.0-0.0","0","0","88778","","null","","","null","66","","","","","","","","","","","","","","","",""
"","time_out","","html-keyboard-response","437","609159","0.0-1.0-602.0-0.0","0","0","88778","","null","","","null","66","","","","","","","","","","","","","","","",""
"","ITI","","html-keyboard-response","438","610161","0.0-1.0-603.0","0","0","88778","","null","","","null","66","","","","","","","","","","","","","","","NaN",""
"","S1","","html-keyboard-response","439","610414","0.0-1.0-605.0","0","0","88778","","null","","","null","67","","","","","","","","","","","","","","","",""
"","ISI","","html-keyboard-response","440","611417","0.0-1.0-606.0","0","0","88778","","null","","","null","67","NaN","","","","","","","","","","","","","","",""
"","S2","","html-keyboard-response","441","611671","0.0-1.0-607.0","0","0","88778","","null","","","null","67","","NaN","","","","","","","","","","","","","",""
"","response","","html-keyboard-response","442","612577","0.0-1.0-608.0-0.0","0","0","88778","","905","","","75","67","","","2","67","training","adjacent","CD","3","4","R.jpg","P.jpg","0","1","0","",""
"","feedback","","html-keyboard-response","443","613580","0.0-1.0-609.0-0.0","0","0","88778","","null","","","null","67","","","","","","","","","","","","","","","",""
"","time_out","","html-keyboard-response","444","615582","0.0-1.0-611.0-0.0","0","0","88778","","null","","","null","67","","","","","","","","","","","","","","","",""
"","ITI","","html-keyboard-response","445","616584","0.0-1.0-612.0","0","0","88778","","null","","","null","67","","","","","","","","","","","","","","","NaN",""
"","S1","","html-keyboard-response","446","616837","0.0-1.0-614.0","0","0","88778","","null","","","null","68","","","","","","","","","","","","","","","",""
"","ISI","","html-keyboard-response","447","617839","0.0-1.0-615.0","0","0","88778","","null","","","null","68","NaN","","","","","","","","","","","","","","",""
"","S2","","html-keyboard-response","448","618093","0.0-1.0-616.0","0","0","88778","","null","","","null","68","","NaN","","","","","","","","","","","","","",""
"","response","","html-keyboard-response","449","619353","0.0-1.0-617.0-0.0","0","0","88778","","1258","","","68","68","","","2","68","training","adjacent","EF","5","6","M.jpg","O.jpg","1","1","1","",""
"","feedback","","html-keyboard-response","450","620355","0.0-1.0-618.0-0.0","0","0","88778","","null","","","null","68","","","","","","","","","","","","","","","",""
"","ITI","","html-keyboard-response","451","621358","0.0-1.0-621.0","0","0","88778","","null","","","null","68","","","","","","","","","","","","","","","NaN",""
"","S1","","html-keyboard-response","452","621611","0.0-1.0-623.0","0","0","88778","","null","","","null","69","","","","","","","","","","","","","","","",""
"","ISI","","html-keyboard-response","453","622614","0.0-1.0-624.0","0","0","88778","","null","","","null","69","NaN","","","","","","","","","","","","","","",""
"","S2","","html-keyboard-response","454","622866","0.0-1.0-625.0","0","0","88778","","null","","","null","69","","NaN","","","","","","","","","","","","","",""
"","response","","html-keyboard-response","455","623849","0.0-1.0-626.0-0.0","0","0","88778","","981","","","75","69","","","2","69","training","adjacent","BC","2","3","Q.jpg","R.jpg","0","1","0","",""
"","feedback","","html-keyboard-response","456","624858","0.0-1.0-627.0-0.0","0","0","88778","","null","","","null","69","","","","","","","","","","","","","","","",""
"","time_out","","html-keyboard-response","457","626861","0.0-1.0-629.0-0.0","0","0","88778","","null","","","null","69","","","","","","","","","","","","","","","",""
"","ITI","","html-keyboard-response","458","627864","0.0-1.0-630.0","0","0","88778","","null","","","null","69","","","","","","","","","","","","","","","NaN",""
"","S1","","html-keyboard-response","459","628117","0.0-1.0-632.0","0","0","88778","","null","","","null","70","","","","","","","","","","","","","","","",""
"","ISI","","html-keyboard-response","460","629120","0.0-1.0-633.0","0","0","88778","","null","","","null","70","NaN","","","","","","","","","","","","","","",""
"","S2","","html-keyboard-response","461","629373","0.0-1.0-634.0","0","0","88778","","null","","","null","70","","NaN","","","","","","","","","","","","","",""
"","response","","html-keyboard-response","462","629721","0.0-1.0-635.0-0.0","0","0","88778","","345","","","68","70","","","2","70","training","adjacent","ED","5","4","M.jpg","P.jpg","1","0","0","",""
"","feedback","","html-keyboard-response","463","630724","0.0-1.0-636.0-0.0","0","0","88778","","null","","","null","70","","","","","","","","","","","","","","","",""
"","time_out","","html-keyboard-response","464","632726","0.0-1.0-638.0-0.0","0","0","88778","","null","","","null","70","","","","","","","","","","","","","","","",""
"","ITI","","html-keyboard-response","465","633728","0.0-1.0-639.0","0","0","88778","","null","","","null","70","","","","","","","","","","","","","","","NaN",""
"","S1","","html-keyboard-response","466","633980","0.0-1.0-641.0","0","0","88778","","null","","","null","71","","","","","","","","","","","","","","","",""
"","ISI","","html-keyboard-response","467","634982","0.0-1.0-642.0","0","0","88778","","null","","","null","71","NaN","","","","","","","","","","","","","","",""
"","S2","","html-keyboard-response","468","635236","0.0-1.0-643.0","0","0","88778","","null","","","null","71","","NaN","","","","","","","","","","","","","",""
"","response","","html-keyboard-response","469","636450","0.0-1.0-644.0-0.0","0","0","88778","","1212","","","75","71","","","2","71","training","adjacent","CB","3","2","R.jpg","Q.jpg","0","0","1","",""
"","feedback","","html-keyboard-response","470","637452","0.0-1.0-645.0-0.0","0","0","88778","","null","","","null","71","","","","","","","","","","","","","","","",""
"","ITI","","html-keyboard-response","471","638455","0.0-1.0-648.0","0","0","88778","","null","","","null","71","","","","","","","","","","","","","","","NaN",""
"","S1","","html-keyboard-response","472","638709","0.0-1.0-650.0","0","0","88778","","null","","","null","72","","","","","","","","","","","","","","","",""
"","ISI","","html-keyboard-response","473","639711","0.0-1.0-651.0","0","0","88778","","null","","","null","72","NaN","","","","","","","","","","","","","","",""
"","S2","","html-keyboard-response","474","639963","0.0-1.0-652.0","0","0","88778","","null","","","null","72","","NaN","","","","","","","","","","","","","",""
"","response","","html-keyboard-response","475","640305","0.0-1.0-653.0-0.0","0","0","88778","","340","","","75","72","","","2","72","training","adjacent","DE","4","5","P.jpg","M.jpg","0","1","0","",""
"","feedback","","html-keyboard-response","476","641309","0.0-1.0-654.0-0.0","0","0","88778","","null","","","null","72","","","","","","","","","","","","","","","",""
"","time_out","","html-keyboard-response","477","643311","0.0-1.0-656.0-0.0","0","0","88778","","null","","","null","72","","","","","","","","","","","","","","","",""
"","ITI","","html-keyboard-response","478","644314","0.0-1.0-657.0","0","0","88778","","null","","","null","72","","","","","","","","","","","","","","","NaN",""
"","S1","","html-keyboard-response","479","644567","0.0-1.0-659.0","0","0","88778","","null","","","null","73","","","","","","","","","","","","","","","",""
"","ISI","","html-keyboard-response","480","645570","0.0-1.0-660.0","0","0","88778","","null","","","null","73","NaN","","","","","","","","","","","","","","",""
"","S2","","html-keyboard-response","481","645823","0.0-1.0-661.0","0","0","88778","","null","","","null","73","","NaN","","","","","","","","","","","","","",""
"","response","","html-keyboard-response","482","646905","0.0-1.0-662.0-0.0","0","0","88778","","1080","","","75","73","","","2","73","training","adjacent","BC","2","3","Q.jpg","R.jpg","0","1","0","",""
"","feedback","","html-keyboard-response","483","647908","0.0-1.0-663.0-0.0","0","0","88778","","null","","","null","73","","","","","","","","","","","","","","","",""
"","time_out","","html-keyboard-response","484","649911","0.0-1.0-665.0-0.0","0","0","88778","","null","","","null","73","","","","","","","","","","","","","","","",""
"","ITI","","html-keyboard-response","485","650913","0.0-1.0-666.0","0","0","88778","","null","","","null","73","","","","","","","","","","","","","","","NaN",""
"","S1","","html-keyboard-response","486","651166","0.0-1.0-668.0","0","0","88778","","null","","","null","74","","","","","","","","","","","","","","","",""
"","ISI","","html-keyboard-response","487","652169","0.0-1.0-669.0","0","0","88778","","null","","","null","74","NaN","","","","","","","","","","","","","","",""
"","S2","","html-keyboard-response","488","652422","0.0-1.0-670.0","0","0","88778","","null","","","null","74","","NaN","","","","","","","","","","","","","",""
"","response","","html-keyboard-response","489","652665","0.0-1.0-671.0-0.0","0","0","88778","","241","","","68","74","","","2","74","training","adjacent","AB","1","2","N.jpg","Q.jpg","1","1","1","",""
"","feedback","","html-keyboard-response","490","653668","0.0-1.0-672.0-0.0","0","0","88778","","null","","","null","74","","","","","","","","","","","","","","","",""
"","ITI","","html-keyboard-response","491","654670","0.0-1.0-675.0","0","0","88778","","null","","","null","74","","","","","","","","","","","","","","","NaN",""
"","S1","","html-keyboard-response","492","654930","0.0-1.0-677.0","0","0","88778","","null","","","null","75","","","","","","","","","","","","","","","",""
"","ISI","","html-keyboard-response","493","655932","0.0-1.0-678.0","0","0","88778","","null","","","null","75","NaN","","","","","","","","","","","","","","",""
"","S2","","html-keyboard-response","494","656186","0.0-1.0-679.0","0","0","88778","","null","","","null","75","","NaN","","","","","","","","","","","","","",""
"","response","","html-keyboard-response","495","657081","0.0-1.0-680.0-0.0","0","0","88778","","893","","","68","75","","","2","75","training","adjacent","BA","2","1","Q.jpg","N.jpg","1","0","0","",""
"","feedback","","html-keyboard-response","496","658084","0.0-1.0-681.0-0.0","0","0","88778","","null","","","null","75","","","","","","","","","","","","","","","",""
"","time_out","","html-keyboard-response","497","660087","0.0-1.0-683.0-0.0","0","0","88778","","null","","","null","75","","","","","","","","","","","","","","","",""
"","ITI","","html-keyboard-response","498","661089","0.0-1.0-684.0","0","0","88778","","null","","","null","75","","","","","","","","","","","","","","","NaN",""
"","S1","","html-keyboard-response","499","661341","0.0-1.0-686.0","0","0","88778","","null","","","null","76","","","","","","","","","","","","","","","",""
"","ISI","","html-keyboard-response","500","662343","0.0-1.0-687.0","0","0","88778","","null","","","null","76","NaN","","","","","","","","","","","","","","",""
"","S2","","html-keyboard-response","501","662597","0.0-1.0-688.0","0","0","88778","","null","","","null","76","","NaN","","","","","","","","","","","","","",""
"","response","","html-keyboard-response","502","663425","0.0-1.0-689.0-0.0","0","0","88778","","827","","","75","76","","","2","76","training","adjacent","FE","6","5","O.jpg","M.jpg","0","0","1","",""
"","feedback","","html-keyboard-response","503","664428","0.0-1.0-690.0-0.0","0","0","88778","","null","","","null","76","","","","","","","","","","","","","","","",""
"","ITI","","html-keyboard-response","504","665431","0.0-1.0-693.0","0","0","88778","","null","","","null","76","","","","","","","","","","","","","","","NaN",""
"","S1","","html-keyboard-response","505","665685","0.0-1.0-695.0","0","0","88778","","null","","","null","77","","","","","","","","","","","","","","","",""
"","ISI","","html-keyboard-response","506","666687","0.0-1.0-696.0","0","0","88778","","null","","","null","77","NaN","","","","","","","","","","","","","","",""
"","S2","","html-keyboard-response","507","666940","0.0-1.0-697.0","0","0","88778","","null","","","null","77","","NaN","","","","","","","","","","","","","",""
"","response","","html-keyboard-response","508","667353","0.0-1.0-698.0-0.0","0","0","88778","","411","","","75","77","","","2","77","training","adjacent","CD","3","4","R.jpg","P.jpg","0","1","0","",""
"","feedback","","html-keyboard-response","509","668355","0.0-1.0-699.0-0.0","0","0","88778","","null","","","null","77","","","","","","","","","","","","","","","",""
"","time_out","","html-keyboard-response","510","670358","0.0-1.0-701.0-0.0","0","0","88778","","null","","","null","77","","","","","","","","","","","","","","","",""
"","ITI","","html-keyboard-response","511","671361","0.0-1.0-702.0","0","0","88778","","null","","","null","77","","","","","","","","","","","","","","","NaN",""
"","S1","","html-keyboard-response","512","671615","0.0-1.0-704.0","0","0","88778","","null","","","null","78","","","","","","","","","","","","","","","",""
"","ISI","","html-keyboard-response","513","672618","0.0-1.0-705.0","0","0","88778","","null","","","null","78","NaN","","","","","","","","","","","","","","",""
"","S2","","html-keyboard-response","514","672871","0.0-1.0-706.0","0","0","88778","","null","","","null","78","","NaN","","","","","","","","","","","","","",""
"","response","","html-keyboard-response","515","673929","0.0-1.0-707.0-0.0","0","0","88778","","1057","","","75","78","","","2","78","training","adjacent","BA","2","1","Q.jpg","N.jpg","0","0","1","",""
"","feedback","","html-keyboard-response","516","674932","0.0-1.0-708.0-0.0","0","0","88778","","null","","","null","78","","","","","","","","","","","","","","","",""
"","ITI","","html-keyboard-response","517","675934","0.0-1.0-711.0","0","0","88778","","null","","","null","78","","","","","","","","","","","","","","","NaN",""
"","S1","","html-keyboard-response","518","676187","0.0-1.0-713.0","0","0","88778","","null","","","null","79","","","","","","","","","","","","","","","",""
"","ISI","","html-keyboard-response","519","677189","0.0-1.0-714.0","0","0","88778","","null","","","null","79","NaN","","","","","","","","","","","","","","",""
"","S2","","html-keyboard-response","520","677442","0.0-1.0-715.0","0","0","88778","","null","","","null","79","","NaN","","","","","","","","","","","","","",""
"","response","","html-keyboard-response","521","678729","0.0-1.0-716.0-0.0","0","0","88778","","1285","","","68","79","","","2","79","training","adjacent","DC","4","3","P.jpg","R.jpg","1","0","0","",""
"","feedback","","html-keyboard-response","522","679731","0.0-1.0-717.0-0.0","0","0","88778","","null","","","null","79","","","","","","","","","","","","","","","",""
"","time_out","","html-keyboard-response","523","681734","0.0-1.0-719.0-0.0","0","0","88778","","null","","","null","79","","","","","","","","","","","","","","","",""
"","ITI","","html-keyboard-response","524","682736","0.0-1.0-720.0","0","0","88778","","null","","","null","79","","","","","","","","","","","","","","","NaN",""
"","S1","","html-keyboard-response","525","682988","0.0-1.0-722.0","0","0","88778","","null","","","null","80","","","","","","","","","","","","","","","",""
"","ISI","","html-keyboard-response","526","683990","0.0-1.0-723.0","0","0","88778","","null","","","null","80","NaN","","","","","","","","","","","","","","",""
"","S2","","html-keyboard-response","527","684244","0.0-1.0-724.0","0","0","88778","","null","","","null","80","","NaN","","","","","","","","","","","","","",""
"","response","","html-keyboard-response","528","685329","0.0-1.0-725.0-0.0","0","0","88778","","1084","","","75","80","","","2","80","training","adjacent","ED","5","4","M.jpg","P.jpg","0","0","1","",""
"","feedback","","html-keyboard-response","529","686333","0.0-1.0-726.0-0.0","0","0","88778","","null","","","null","80","","","","","","","","","","","","","","","",""
"","ITI","","html-keyboard-response","530","687336","0.0-1.0-729.0","0","0","88778","","null","","","null","80","","","","","","","","","","","","","","","NaN",""
"","S1","","html-keyboard-response","531","687589","0.0-1.0-731.0","0","0","88778","","null","","","null","81","","","","","","","","","","","","","","","",""
"","ISI","","html-keyboard-response","532","688591","0.0-1.0-732.0","0","0","88778","","null","","","null","81","NaN","","","","","","","","","","","","","","",""
"","S2","","html-keyboard-response","533","688845","0.0-1.0-733.0","0","0","88778","","null","","","null","81","","NaN","","","","","","","","","","","","","",""
"","response","","html-keyboard-response","534","690377","0.0-1.0-734.0-0.0","0","0","88778","","1530","","","68","81","","","2","81","training","adjacent","AB","1","2","N.jpg","Q.jpg","1","1","1","",""
"","feedback","","html-keyboard-response","535","691380","0.0-1.0-735.0-0.0","0","0","88778","","null","","","null","81","","","","","","","","","","","","","","","",""
"","ITI","","html-keyboard-response","536","692383","0.0-1.0-738.0","0","0","88778","","null","","","null","81","","","","","","","","","","","","","","","NaN",""
"","S1","","html-keyboard-response","537","692637","0.0-1.0-740.0","0","0","88778","","null","","","null","82","","","","","","","","","","","","","","","",""
"","ISI","","html-keyboard-response","538","693639","0.0-1.0-741.0","0","0","88778","","null","","","null","82","NaN","","","","","","","","","","","","","","",""
"","S2","","html-keyboard-response","539","693893","0.0-1.0-742.0","0","0","88778","","null","","","null","82","","NaN","","","","","","","","","","","","","",""
"","response","","html-keyboard-response","540","695153","0.0-1.0-743.0-0.0","0","0","88778","","1259","","","68","82","","","2","82","training","adjacent","GF","7","6","L.jpg","O.jpg","1","0","0","",""
"","feedback","","html-keyboard-response","541","696155","0.0-1.0-744.0-0.0","0","0","88778","","null","","","null","82","","","","","","","","","","","","","","","",""
"","time_out","","html-keyboard-response","542","698158","0.0-1.0-746.0-0.0","0","0","88778","","null","","","null","82","","","","","","","","","","","","","","","",""
"","ITI","","html-keyboard-response","543","699164","0.0-1.0-747.0","0","0","88778","","null","","","null","82","","","","","","","","","","","","","","","NaN",""
"","S1","","html-keyboard-response","544","699420","0.0-1.0-749.0","0","0","88778","","null","","","null","83","","","","","","","","","","","","","","","",""
"","ISI","","html-keyboard-response","545","700422","0.0-1.0-750.0","0","0","88778","","null","","","null","83","NaN","","","","","","","","","","","","","","",""
"","S2","","html-keyboard-response","546","700674","0.0-1.0-751.0","0","0","88778","","null","","","null","83","","NaN","","","","","","","","","","","","","",""
"","response","","html-keyboard-response","547","702009","0.0-1.0-752.0-0.0","0","0","88778","","1334","","","75","83","","","2","83","training","adjacent","BC","2","3","Q.jpg","R.jpg","0","1","0","",""
"","feedback","","html-keyboard-response","548","703012","0.0-1.0-753.0-0.0","0","0","88778","","null","","","null","83","","","","","","","","","","","","","","","",""
"","time_out","","html-keyboard-response","549","705014","0.0-1.0-755.0-0.0","0","0","88778","","null","","","null","83","","","","","","","","","","","","","","","",""
"","ITI","","html-keyboard-response","550","706017","0.0-1.0-756.0","0","0","88778","","null","","","null","83","","","","","","","","","","","","","","","NaN",""
"","S1","","html-keyboard-response","551","706279","0.0-1.0-758.0","0","0","88778","","null","","","null","84","","","","","","","","","","","","","","","",""
"","ISI","","html-keyboard-response","552","707281","0.0-1.0-759.0","0","0","88778","","null","","","null","84","NaN","","","","","","","","","","","","","","",""
"","S2","","html-keyboard-response","553","707535","0.0-1.0-760.0","0","0","88778","","null","","","null","84","","NaN","","","","","","","","","","","","","",""
"","response","","html-keyboard-response","554","708513","0.0-1.0-761.0-0.0","0","0","88778","","975","","","75","84","","","2","84","training","adjacent","FE","6","5","O.jpg","M.jpg","0","0","1","",""
"","feedback","","html-keyboard-response","555","709515","0.0-1.0-762.0-0.0","0","0","88778","","null","","","null","84","","","","","","","","","","","","","","","",""
"","ITI","","html-keyboard-response","556","710518","0.0-1.0-765.0","0","0","88778","","null","","","null","84","","","","","","","","","","","","","","","NaN",""
"","S1","","html-keyboard-response","557","710771","0.0-1.0-767.0","0","0","88778","","null","","","null","85","","","","","","","","","","","","","","","",""
"","ISI","","html-keyboard-response","558","711773","0.0-1.0-768.0","0","0","88778","","null","","","null","85","NaN","","","","","","","","","","","","","","",""
"","S2","","html-keyboard-response","559","712026","0.0-1.0-769.0","0","0","88778","","null","","","null","85","","NaN","","","","","","","","","","","","","",""
"","response","","html-keyboard-response","560","713145","0.0-1.0-770.0-0.0","0","0","88778","","1117","","","75","85","","","2","85","training","adjacent","EF","5","6","M.jpg","O.jpg","0","1","0","",""
"","feedback","","html-keyboard-response","561","714148","0.0-1.0-771.0-0.0","0","0","88778","","null","","","null","85","","","","","","","","","","","","","","","",""
"","time_out","","html-keyboard-response","562","716150","0.0-1.0-773.0-0.0","0","0","88778","","null","","","null","85","","","","","","","","","","","","","","","",""
"","ITI","","html-keyboard-response","563","717153","0.0-1.0-774.0","0","0","88778","","null","","","null","85","","","","","","","","","","","","","","","NaN",""
"","S1","","html-keyboard-response","564","717405","0.0-1.0-776.0","0","0","88778","","null","","","null","86","","","","","","","","","","","","","","","",""
"","ISI","","html-keyboard-response","565","718408","0.0-1.0-777.0","0","0","88778","","null","","","null","86","NaN","","","","","","","","","","","","","","",""
"","S2","","html-keyboard-response","566","718660","0.0-1.0-778.0","0","0","88778","","null","","","null","86","","NaN","","","","","","","","","","","","","",""
"","response","","html-keyboard-response","567","719528","0.0-1.0-779.0-0.0","0","0","88778","","867","","","75","86","","","2","86","training","adjacent","FG","6","7","O.jpg","L.jpg","0","1","0","",""
"","feedback","","html-keyboard-response","568","720531","0.0-1.0-780.0-0.0","0","0","88778","","null","","","null","86","","","","","","","","","","","","","","","",""
"","time_out","","html-keyboard-response","569","722535","0.0-1.0-782.0-0.0","0","0","88778","","null","","","null","86","","","","","","","","","","","","","","","",""
"","ITI","","html-keyboard-response","570","723537","0.0-1.0-783.0","0","0","88778","","null","","","null","86","","","","","","","","","","","","","","","NaN",""
"","S1","","html-keyboard-response","571","723790","0.0-1.0-785.0","0","0","88778","","null","","","null","87","","","","","","","","","","","","","","","",""
"","ISI","","html-keyboard-response","572","724793","0.0-1.0-786.0","0","0","88778","","null","","","null","87","NaN","","","","","","","","","","","","","","",""
"","S2","","html-keyboard-response","573","725046","0.0-1.0-787.0","0","0","88778","","null","","","null","87","","NaN","","","","","","","","","","","","","",""
"","response","","html-keyboard-response","574","725842","0.0-1.0-788.0-0.0","0","0","88778","","792","","","68","87","","","2","87","training","adjacent","EF","5","6","M.jpg","O.jpg","1","1","1","",""
"","feedback","","html-keyboard-response","575","726845","0.0-1.0-789.0-0.0","0","0","88778","","null","","","null","87","","","","","","","","","","","","","","","",""
"","ITI","","html-keyboard-response","576","727847","0.0-1.0-792.0","0","0","88778","","null","","","null","87","","","","","","","","","","","","","","","NaN",""
"","S1","","html-keyboard-response","577","728099","0.0-1.0-794.0","0","0","88778","","null","","","null","88","","","","","","","","","","","","","","","",""
"","ISI","","html-keyboard-response","578","729102","0.0-1.0-795.0","0","0","88778","","null","","","null","88","NaN","","","","","","","","","","","","","","",""
"","S2","","html-keyboard-response","579","729357","0.0-1.0-796.0","0","0","88778","","null","","","null","88","","NaN","","","","","","","","","","","","","",""
