"success","ttype","start_time","trial_type","trial_index","time_elapsed","internal_node_id","warning","missed_checkup","PID","view_history","rt","responses","repeat_instructions","key_press","index","keypress_isi","keypress_S2","block","trial_num","phase","group_type","pair_type","S1_stim","S2_stim","S1_img","S2_img","S1_chosen","S1_higher","accuracy","keypress_iti","total_bonus_tally"
"true","full_screen","d03072023hr1745","fullscreen","0","27313","0.0-0.0","0","0","42313","","","","","","","","","","","","","","","","","","","","","",""
"","instructions","","instructions","1","124371","0.0-1.0-0.0-0.0","0","0","42313","[{""page_index"":0,""viewing_time"":6201},{""page_index"":1,""viewing_time"":26817},{""page_index"":2,""viewing_time"":60788},{""page_index"":3,""viewing_time"":3250}]","97056","","","","","","","","","","","","","","","","","","","",""
"","comprehension_check","","survey-multi-choice","2","165721","0.0-1.0-0.0-1.0","0","0","42313","","41345","{""Q0"":""True"",""Q1"":""K"",""Q2"":""Only when the screen 'MAKE A CHOICE' is shown"",""Q3"":""Green mark"",""Q4"":""either D or K""}","1","","","","","","","","","","","","","","","","","",""
"","missed_instruction_checkup","","html-keyboard-response","3","168521","0.0-1.0-0.0-2.0-0.0","0","1","42313","","2795","","","32","","","","","","","","","","","","","","","","",""
"","instructions","","instructions","4","192688","0.0-1.0-0.1-0.1","0","0","42313","[{""page_index"":0,""viewing_time"":4413},{""page_index"":1,""viewing_time"":16094},{""page_index"":2,""viewing_time"":2479},{""page_index"":3,""viewing_time"":1179}]","24165","","","","","","","","","","","","","","","","","","","",""
"","comprehension_check","","survey-multi-choice","5","208880","0.0-1.0-0.1-1.1","0","0","42313","","16187","{""Q0"":""True"",""Q1"":""K"",""Q2"":""Once the second image appears and while the screen 'MAKE A CHOICE' is shown"",""Q3"":""Green mark"",""Q4"":""either D or K""}","0","","","","","","","","","","","","","","","","","",""
"","start_exp","","html-keyboard-response","6","223308","0.0-1.0-1.0","0","0","42313","","14424","","","32","","","","","","","","","","","","","","","","",""
"","S1","","html-keyboard-response","7","223570","0.0-1.0-2.0","0","0","42313","","null","","","null","0","","","","","","","","","","","","","","","",""
"","ISI","","html-keyboard-response","8","224576","0.0-1.0-3.0","0","0","42313","","null","","","null","0","NaN","","","","","","","","","","","","","","",""
"","S2","","html-keyboard-response","9","224831","0.0-1.0-4.0","0","0","42313","","null","","","null","0","","NaN","","","","","","","","","","","","","",""
"","response","","html-keyboard-response","10","226595","0.0-1.0-5.0-0.0","0","0","42313","","null","","","null","0","","","1","0","training","adjacent","DE","4","5","R.jpg","P.jpg","NaN","1","0","",""
"","too_slow_prompt","","html-keyboard-response","11","227600","0.0-1.0-7.0-0.0","1","0","42313","","null","","","null","","","","","","","","","","","","","","","","",""
"","time_out","","html-keyboard-response","12","229608","0.0-1.0-8.0-0.0","0","0","42313","","null","","","null","0","","","","","","","","","","","","","","","",""
"","ITI","","html-keyboard-response","13","230619","0.0-1.0-9.0","0","0","42313","","null","","","null","0","","","","","","","","","","","","","","","NaN",""
"","S1","","html-keyboard-response","14","230874","0.0-1.0-11.0","0","0","42313","","null","","","null","1","","","","","","","","","","","","","","","",""
"","ISI","","html-keyboard-response","15","231878","0.0-1.0-12.0","0","0","42313","","null","","","null","1","NaN","","","","","","","","","","","","","","",""
"","S2","","html-keyboard-response","16","232140","0.0-1.0-13.0","0","0","42313","","null","","","null","1","","NaN","","","","","","","","","","","","","",""
"","response","","html-keyboard-response","17","232499","0.0-1.0-14.0-0.0","0","0","42313","","358","","","68","1","","","1","1","training","adjacent","AB","1","2","L.jpg","M.jpg","0","1","0","",""
"","feedback","","html-keyboard-response","18","233504","0.0-1.0-15.0-0.0","0","0","42313","","null","","","null","1","","","","","","","","","","","","","","","",""
"","time_out","","html-keyboard-response","19","235512","0.0-1.0-17.0-0.0","0","0","42313","","null","","","null","1","","","","","","","","","","","","","","","",""
"","ITI","","html-keyboard-response","20","236522","0.0-1.0-18.0","0","0","42313","","null","","","null","1","","","","","","","","","","","","","","","NaN",""
"","S1","","html-keyboard-response","21","236778","0.0-1.0-20.0","0","0","42313","","null","","","null","2","","","","","","","","","","","","","","","",""
"","ISI","","html-keyboard-response","22","237784","0.0-1.0-21.0","0","0","42313","","null","","","null","2","NaN","","","","","","","","","","","","","","",""
"","S2","","html-keyboard-response","23","238039","0.0-1.0-22.0","0","0","42313","","null","","","null","2","","NaN","","","","","","","","","","","","","",""
"","response","","html-keyboard-response","24","238275","0.0-1.0-23.0-0.0","0","0","42313","","235","","","75","2","","","1","2","training","adjacent","CB","3","2","Q.jpg","M.jpg","1","0","0","",""
"","feedback","","html-keyboard-response","25","239279","0.0-1.0-24.0-0.0","0","0","42313","","null","","","null","2","","","","","","","","","","","","","","","",""
"","time_out","","html-keyboard-response","26","241288","0.0-1.0-26.0-0.0","0","0","42313","","null","","","null","2","","","","","","","","","","","","","","","",""
"","ITI","","html-keyboard-response","27","242298","0.0-1.0-27.0","0","0","42313","","null","","","null","2","","","","","","","","","","","","","","","NaN",""
"","S1","","html-keyboard-response","28","242553","0.0-1.0-29.0","0","0","42313","","null","","","null","3","","","","","","","","","","","","","","","",""
"","ISI","","html-keyboard-response","29","243562","0.0-1.0-30.0","0","0","42313","","null","","","null","3","NaN","","","","","","","","","","","","","","",""
"","S2","","html-keyboard-response","30","243819","0.0-1.0-31.0","0","0","42313","","null","","","null","3","","NaN","","","","","","","","","","","","","",""
"","response","","html-keyboard-response","31","244178","0.0-1.0-32.0-0.0","0","0","42313","","358","","","68","3","","","1","3","training","adjacent","BC","2","3","M.jpg","Q.jpg","0","1","0","",""
"","feedback","","html-keyboard-response","32","245183","0.0-1.0-33.0-0.0","0","0","42313","","null","","","null","3","","","","","","","","","","","","","","","",""
"","time_out","","html-keyboard-response","33","247191","0.0-1.0-35.0-0.0","0","0","42313","","null","","","null","3","","","","","","","","","","","","","","","",""
"","ITI","","html-keyboard-response","34","248201","0.0-1.0-36.0","0","0","42313","","null","","","null","3","","","","","","","","","","","","","","","NaN",""
"","S1","","html-keyboard-response","35","248457","0.0-1.0-38.0","0","0","42313","","null","","","null","4","","","","","","","","","","","","","","","",""
"","ISI","","html-keyboard-response","36","249463","0.0-1.0-39.0","0","0","42313","","null","","","null","4","NaN","","","","","","","","","","","","","","",""
"","S2","","html-keyboard-response","37","249722","0.0-1.0-40.0","0","0","42313","","null","","","null","4","","NaN","","","","","","","","","","","","","",""
"","response","","html-keyboard-response","38","249956","0.0-1.0-41.0-0.0","0","0","42313","","232","","","68","4","","","1","4","training","adjacent","ED","5","4","P.jpg","R.jpg","0","0","1","",""
"","feedback","","html-keyboard-response","39","250970","0.0-1.0-42.0-0.0","0","0","42313","","null","","","null","4","","","","","","","","","","","","","","","",""
"","ITI","","html-keyboard-response","40","251976","0.0-1.0-45.0","0","0","42313","","null","","","null","4","","","","","","","","","","","","","","","NaN",""
"","S1","","html-keyboard-response","41","252233","0.0-1.0-47.0","0","0","42313","","null","","","null","5","","","","","","","","","","","","","","","",""
"","ISI","","html-keyboard-response","42","253240","0.0-1.0-48.0","0","0","42313","","null","","","null","5","NaN","","","","","","","","","","","","","","",""
"","S2","","html-keyboard-response","43","253495","0.0-1.0-49.0","0","0","42313","","null","","","null","5","","NaN","","","","","","","","","","","","","",""
"","response","","html-keyboard-response","44","253514","0.0-1.0-50.0-0.0","0","0","42313","","18","","","75","5","","","1","5","training","adjacent","BC","2","3","M.jpg","Q.jpg","1","1","1","",""
"","feedback","","html-keyboard-response","45","254519","0.0-1.0-51.0-0.0","0","0","42313","","null","","","null","5","","","","","","","","","","","","","","","",""
"","ITI","","html-keyboard-response","46","255526","0.0-1.0-54.0","0","0","42313","","null","","","null","5","","","","","","","","","","","","","","","NaN",""
"","S1","","html-keyboard-response","47","255782","0.0-1.0-56.0","0","0","42313","","null","","","null","6","","","","","","","","","","","","","","","",""
"","ISI","","html-keyboard-response","48","256792","0.0-1.0-57.0","0","0","42313","","null","","","null","6","NaN","","","","","","","","","","","","","","",""
"","S2","","html-keyboard-response","49","257048","0.0-1.0-58.0","0","0","42313","","null","","","null","6","","NaN","","","","","","","","","","","","","",""
"","response","","html-keyboard-response","50","257201","0.0-1.0-59.0-0.0","0","0","42313","","153","","","68","6","","","1","6","training","adjacent","ED","5","4","P.jpg","R.jpg","0","0","1","",""
"","feedback","","html-keyboard-response","51","258209","0.0-1.0-60.0-0.0","0","0","42313","","null","","","null","6","","","","","","","","","","","","","","","",""
"","ITI","","html-keyboard-response","52","259215","0.0-1.0-63.0","0","0","42313","","null","","","null","6","","","","","","","","","","","","","","","NaN",""
"","S1","","html-keyboard-response","53","259474","0.0-1.0-65.0","0","0","42313","","null","","","null","7","","","","","","","","","","","","","","","",""
"","ISI","","html-keyboard-response","54","260478","0.0-1.0-66.0","0","0","42313","","null","","","null","7","NaN","","","","","","","","","","","","","","",""
"","S2","","html-keyboard-response","55","260733","0.0-1.0-67.0","0","0","42313","","null","","","null","7","","NaN","","","","","","","","","","","","","",""
"","response","","html-keyboard-response","56","260777","0.0-1.0-68.0-0.0","0","0","42313","","44","","","75","7","","","1","7","training","adjacent","BC","2","3","M.jpg","Q.jpg","1","1","1","",""
"","feedback","","html-keyboard-response","57","261784","0.0-1.0-69.0-0.0","0","0","42313","","null","","","null","7","","","","","","","","","","","","","","","",""
"","ITI","","html-keyboard-response","58","262792","0.0-1.0-72.0","0","0","42313","","null","","","null","7","","","","","","","","","","","","","","","NaN",""
"","S1","","html-keyboard-response","59","263050","0.0-1.0-74.0","0","0","42313","","null","","","null","8","","","","","","","","","","","","","","","",""
"","ISI","","html-keyboard-response","60","264054","0.0-1.0-75.0","0","0","42313","","null","","","null","8","NaN","","","","","","","","","","","","","","",""
"","S2","","html-keyboard-response","61","264309","0.0-1.0-76.0","0","0","42313","","null","","","null","8","","NaN","","","","","","","","","","","","","",""
"","response","","html-keyboard-response","62","264337","0.0-1.0-77.0-0.0","0","0","42313","","26","","","68","8","","","1","8","training","adjacent","AB","1","2","L.jpg","M.jpg","0","1","0","",""
"","feedback","","html-keyboard-response","63","265343","0.0-1.0-78.0-0.0","0","0","42313","","null","","","null","8","","","","","","","","","","","","","","","",""
"","time_out","","html-keyboard-response","64","267351","0.0-1.0-80.0-0.0","0","0","42313","","null","","","null","8","","","","","","","","","","","","","","","",""
"","ITI","","html-keyboard-response","65","268361","0.0-1.0-81.0","0","0","42313","","null","","","null","8","","","","","","","","","","","","","","","NaN",""
"","S1","","html-keyboard-response","66","268616","0.0-1.0-83.0","0","0","42313","","null","","","null","9","","","","","","","","","","","","","","","",""
"","ISI","","html-keyboard-response","67","269621","0.0-1.0-84.0","0","0","42313","","null","","","null","9","NaN","","","","","","","","","","","","","","",""
"","S2","","html-keyboard-response","68","269875","0.0-1.0-85.0","0","0","42313","","252","","","68","9","","d","1","9","training","adjacent","ED","5","4","P.jpg","R.jpg","0","0","1","",""
"","feedback","","html-keyboard-response","69","270886","0.0-1.0-87.0-0.0","0","0","42313","","null","","","null","9","","","","","","","","","","","","","","","",""
"","ITI","","html-keyboard-response","70","271896","0.0-1.0-90.0","0","0","42313","","null","","","null","9","","","","","","","","","","","","","","","NaN",""
"","S1","","html-keyboard-response","71","272152","0.0-1.0-92.0","0","0","42313","","null","","","null","10","","","","","","","","","","","","","","","",""
"","ISI","","html-keyboard-response","72","273157","0.0-1.0-93.0","0","0","42313","","null","","","null","10","NaN","","","","","","","","","","","","","","",""
"","S2","","html-keyboard-response","73","273417","0.0-1.0-94.0","0","0","42313","","null","","","null","10","","NaN","","","","","","","","","","","","","",""
"","response","","html-keyboard-response","74","273569","0.0-1.0-95.0-0.0","0","0","42313","","151","","","68","10","","","1","10","training","adjacent","GF","7","6","O.jpg","N.jpg","0","0","1","",""
"","feedback","","html-keyboard-response","75","274577","0.0-1.0-96.0-0.0","0","0","42313","","null","","","null","10","","","","","","","","","","","","","","","",""
"","ITI","","html-keyboard-response","76","275582","0.0-1.0-99.0","0","0","42313","","null","","","null","10","","","","","","","","","","","","","","","NaN",""
"","S1","","html-keyboard-response","77","275837","0.0-1.0-101.0","0","0","42313","","null","","","null","11","","","","","","","","","","","","","","","",""
"","ISI","","html-keyboard-response","78","276847","0.0-1.0-102.0","0","0","42313","","null","","","null","11","NaN","","","","","","","","","","","","","","",""
"","S2","","html-keyboard-response","79","277103","0.0-1.0-103.0","0","0","42313","","null","","","null","11","","NaN","","","","","","","","","","","","","",""
"","response","","html-keyboard-response","80","277160","0.0-1.0-104.0-0.0","0","0","42313","","57","","","75","11","","","1","11","training","adjacent","FG","6","7","N.jpg","O.jpg","1","1","1","",""
"","feedback","","html-keyboard-response","81","278165","0.0-1.0-105.0-0.0","0","0","42313","","null","","","null","11","","","","","","","","","","","","","","","",""
"","ITI","","html-keyboard-response","82","279175","0.0-1.0-108.0","0","0","42313","","null","","","null","11","","","","","","","","","","","","","","","NaN",""
"","S1","","html-keyboard-response","83","279430","0.0-1.0-110.0","0","0","42313","","null","","","null","12","","","","","","","","","","","","","","","",""
"","ISI","","html-keyboard-response","84","280441","0.0-1.0-111.0","0","0","42313","","null","","","null","12","NaN","","","","","","","","","","","","","","",""
"","S2","","html-keyboard-response","85","280702","0.0-1.0-112.0","0","0","42313","","null","","","null","12","","NaN","","","","","","","","","","","","","",""
"","response","","html-keyboard-response","86","280720","0.0-1.0-113.0-0.0","0","0","42313","","17","","","68","12","","","1","12","training","adjacent","CB","3","2","Q.jpg","M.jpg","0","0","1","",""
"","feedback","","html-keyboard-response","87","281727","0.0-1.0-114.0-0.0","0","0","42313","","null","","","null","12","","","","","","","","","","","","","","","",""
"","ITI","","html-keyboard-response","88","282734","0.0-1.0-117.0","0","0","42313","","null","","","null","12","","","","","","","","","","","","","","","NaN",""
"","S1","","html-keyboard-response","89","282989","0.0-1.0-119.0","0","0","42313","","null","","","null","13","","","","","","","","","","","","","","","",""
"","ISI","","html-keyboard-response","90","283999","0.0-1.0-120.0","0","0","42313","","null","","","null","13","NaN","","","","","","","","","","","","","","",""
"","S2","","html-keyboard-response","91","284254","0.0-1.0-121.0","0","0","42313","","null","","","null","13","","NaN","","","","","","","","","","","","","",""
"","response","","html-keyboard-response","92","284328","0.0-1.0-122.0-0.0","0","0","42313","","74","","","75","13","","","1","13","training","adjacent","DC","4","3","R.jpg","Q.jpg","1","0","0","",""
"","feedback","","html-keyboard-response","93","285334","0.0-1.0-123.0-0.0","0","0","42313","","null","","","null","13","","","","","","","","","","","","","","","",""
"","time_out","","html-keyboard-response","94","287342","0.0-1.0-125.0-0.0","0","0","42313","","null","","","null","13","","","","","","","","","","","","","","","",""
"","ITI","","html-keyboard-response","95","288352","0.0-1.0-126.0","0","0","42313","","null","","","null","13","","","","","","","","","","","","","","","NaN",""
"","S1","","html-keyboard-response","96","288614","0.0-1.0-128.0","0","0","42313","","null","","","null","14","","","","","","","","","","","","","","","",""
"","ISI","","html-keyboard-response","97","289624","0.0-1.0-129.0","0","0","42313","","null","","","null","14","NaN","","","","","","","","","","","","","","",""
"","S2","","html-keyboard-response","98","289879","0.0-1.0-130.0","0","0","42313","","null","","","null","14","","NaN","","","","","","","","","","","","","",""
"","response","","html-keyboard-response","99","290088","0.0-1.0-131.0-0.0","0","0","42313","","207","","","68","14","","","1","14","training","adjacent","BA","2","1","M.jpg","L.jpg","0","0","1","",""
"","feedback","","html-keyboard-response","100","291092","0.0-1.0-132.0-0.0","0","0","42313","","null","","","null","14","","","","","","","","","","","","","","","",""
"","ITI","","html-keyboard-response","101","292102","0.0-1.0-135.0","0","0","42313","","null","","","null","14","","","","","","","","","","","","","","","NaN",""
"","S1","","html-keyboard-response","102","292358","0.0-1.0-137.0","0","0","42313","","null","","","null","15","","","","","","","","","","","","","","","",""
"","ISI","","html-keyboard-response","103","293368","0.0-1.0-138.0","0","0","42313","","null","","","null","15","NaN","","","","","","","","","","","","","","",""
"","S2","","html-keyboard-response","104","293623","0.0-1.0-139.0","0","0","42313","","null","","","null","15","","NaN","","","","","","","","","","","","","",""
"","response","","html-keyboard-response","105","293986","0.0-1.0-140.0-0.0","0","0","42313","","361","","","68","15","","","1","15","training","adjacent","FG","6","7","N.jpg","O.jpg","0","1","0","",""
"","feedback","","html-keyboard-response","106","294999","0.0-1.0-141.0-0.0","0","0","42313","","null","","","null","15","","","","","","","","","","","","","","","",""
"","time_out","","html-keyboard-response","107","297007","0.0-1.0-143.0-0.0","0","0","42313","","null","","","null","15","","","","","","","","","","","","","","","",""
"","ITI","","html-keyboard-response","108","298012","0.0-1.0-144.0","0","0","42313","","null","","","null","15","","","","","","","","","","","","","","","NaN",""
"","S1","","html-keyboard-response","109","298268","0.0-1.0-146.0","0","0","42313","","null","","","null","16","","","","","","","","","","","","","","","",""
"","ISI","","html-keyboard-response","110","299277","0.0-1.0-147.0","0","0","42313","","null","","","null","16","NaN","","","","","","","","","","","","","","",""
"","S2","","html-keyboard-response","111","299512","0.0-1.0-148.0","0","0","42313","","234","","","68","16","","d","1","16","training","adjacent","BA","2","1","M.jpg","L.jpg","0","0","1","",""
"","feedback","","html-keyboard-response","112","300519","0.0-1.0-150.0-0.0","0","0","42313","","null","","","null","16","","","","","","","","","","","","","","","",""
"","ITI","","html-keyboard-response","113","301524","0.0-1.0-153.0","0","0","42313","","null","","","null","16","","","","","","","","","","","","","","","NaN",""
"","S1","","html-keyboard-response","114","301784","0.0-1.0-155.0","0","0","42313","","null","","","null","17","","","","","","","","","","","","","","","",""
"","ISI","","html-keyboard-response","115","302789","0.0-1.0-156.0","0","0","42313","","null","","","null","17","NaN","","","","","","","","","","","","","","",""
"","S2","","html-keyboard-response","116","303044","0.0-1.0-157.0","0","0","42313","","null","","","null","17","","NaN","","","","","","","","","","","","","",""
"","response","","html-keyboard-response","117","303232","0.0-1.0-158.0-0.0","0","0","42313","","186","","","75","17","","","1","17","training","adjacent","EF","5","6","P.jpg","N.jpg","1","1","1","",""
"","feedback","","html-keyboard-response","118","304240","0.0-1.0-159.0-0.0","0","0","42313","","null","","","null","17","","","","","","","","","","","","","","","",""
"","ITI","","html-keyboard-response","119","305244","0.0-1.0-162.0","0","0","42313","","null","","","null","17","","","","","","","","","","","","","","","NaN",""
"","S1","","html-keyboard-response","120","305500","0.0-1.0-164.0","0","0","42313","","null","","","null","18","","","","","","","","","","","","","","","",""
"","ISI","","html-keyboard-response","121","306510","0.0-1.0-165.0","0","0","42313","","null","","","null","18","NaN","","","","","","","","","","","","","","",""
"","S2","","html-keyboard-response","122","306765","0.0-1.0-166.0","0","0","42313","","null","","","null","18","","NaN","","","","","","","","","","","","","",""
"","response","","html-keyboard-response","123","306945","0.0-1.0-167.0-0.0","0","0","42313","","180","","","75","18","","","1","18","training","adjacent","GF","7","6","O.jpg","N.jpg","1","0","0","",""
"","feedback","","html-keyboard-response","124","307949","0.0-1.0-168.0-0.0","0","0","42313","","null","","","null","18","","","","","","","","","","","","","","","",""
"","time_out","","html-keyboard-response","125","309958","0.0-1.0-170.0-0.0","0","0","42313","","null","","","null","18","","","","","","","","","","","","","","","",""
"","ITI","","html-keyboard-response","126","310968","0.0-1.0-171.0","0","0","42313","","null","","","null","18","","","","","","","","","","","","","","","NaN",""
"","S1","","html-keyboard-response","127","311228","0.0-1.0-173.0","0","0","42313","","null","","","null","19","","","","","","","","","","","","","","","",""
"","ISI","","html-keyboard-response","128","312239","0.0-1.0-174.0","0","0","42313","","null","","","null","19","NaN","","","","","","","","","","","","","","",""
"","S2","","html-keyboard-response","129","312494","0.0-1.0-175.0","0","0","42313","","null","","","null","19","","NaN","","","","","","","","","","","","","",""
"","response","","html-keyboard-response","130","312695","0.0-1.0-176.0-0.0","0","0","42313","","200","","","68","19","","","1","19","training","adjacent","FE","6","5","N.jpg","P.jpg","0","0","1","",""
"","feedback","","html-keyboard-response","131","313701","0.0-1.0-177.0-0.0","0","0","42313","","null","","","null","19","","","","","","","","","","","","","","","",""
"","ITI","","html-keyboard-response","132","314712","0.0-1.0-180.0","0","0","42313","","null","","","null","19","","","","","","","","","","","","","","","NaN",""
"","S1","","html-keyboard-response","133","314973","0.0-1.0-182.0","0","0","42313","","null","","","null","20","","","","","","","","","","","","","","","",""
"","ISI","","html-keyboard-response","134","315983","0.0-1.0-183.0","0","0","42313","","null","","","null","20","NaN","","","","","","","","","","","","","","",""
"","S2","","html-keyboard-response","135","316238","0.0-1.0-184.0","0","0","42313","","null","","","null","20","","NaN","","","","","","","","","","","","","",""
"","response","","html-keyboard-response","136","316561","0.0-1.0-185.0-0.0","0","0","42313","","321","","","68","20","","","1","20","training","adjacent","FG","6","7","N.jpg","O.jpg","0","1","0","",""
"","feedback","","html-keyboard-response","137","317566","0.0-1.0-186.0-0.0","0","0","42313","","null","","","null","20","","","","","","","","","","","","","","","",""
"","time_out","","html-keyboard-response","138","319570","0.0-1.0-188.0-0.0","0","0","42313","","null","","","null","20","","","","","","","","","","","","","","","",""
"","ITI","","html-keyboard-response","139","320581","0.0-1.0-189.0","0","0","42313","","null","","","null","20","","","","","","","","","","","","","","","NaN",""
"","S1","","html-keyboard-response","140","320836","0.0-1.0-191.0","0","0","42313","","null","","","null","21","","","","","","","","","","","","","","","",""
"","ISI","","html-keyboard-response","141","321846","0.0-1.0-192.0","0","0","42313","","null","","","null","21","NaN","","","","","","","","","","","","","","",""
"","S2","","html-keyboard-response","142","322101","0.0-1.0-193.0","0","0","42313","","null","","","null","21","","NaN","","","","","","","","","","","","","",""
"","response","","html-keyboard-response","143","322167","0.0-1.0-194.0-0.0","0","0","42313","","64","","","75","21","","","1","21","training","adjacent","CD","3","4","Q.jpg","R.jpg","1","1","1","",""
"","feedback","","html-keyboard-response","144","323175","0.0-1.0-195.0-0.0","0","0","42313","","null","","","null","21","","","","","","","","","","","","","","","",""
"","ITI","","html-keyboard-response","145","324179","0.0-1.0-198.0","0","0","42313","","null","","","null","21","","","","","","","","","","","","","","","NaN",""
"","S1","","html-keyboard-response","146","324435","0.0-1.0-200.0","0","0","42313","","null","","","null","22","","","","","","","","","","","","","","","",""
"","ISI","","html-keyboard-response","147","325447","0.0-1.0-201.0","0","0","42313","","null","","","null","22","NaN","","","","","","","","","","","","","","",""
"","S2","","html-keyboard-response","148","325711","0.0-1.0-202.0","0","0","42313","","null","","","null","22","","NaN","","","","","","","","","","","","","",""
"","response","","html-keyboard-response","149","325865","0.0-1.0-203.0-0.0","0","0","42313","","152","","","68","22","","","1","22","training","adjacent","DC","4","3","R.jpg","Q.jpg","0","0","1","",""
"","feedback","","html-keyboard-response","150","326879","0.0-1.0-204.0-0.0","0","0","42313","","null","","","null","22","","","","","","","","","","","","","","","",""
"","ITI","","html-keyboard-response","151","327883","0.0-1.0-207.0","0","0","42313","","null","","","null","22","","","","","","","","","","","","","","","NaN",""
"","S1","","html-keyboard-response","152","328138","0.0-1.0-209.0","0","0","42313","","null","","","null","23","","","","","","","","","","","","","","","",""
"","ISI","","html-keyboard-response","153","329148","0.0-1.0-210.0","0","0","42313","","null","","","null","23","NaN","","","","","","","","","","","","","","",""
"","S2","","html-keyboard-response","154","329404","0.0-1.0-211.0","0","0","42313","","null","","","null","23","","NaN","","","","","","","","","","","","","",""
"","response","","html-keyboard-response","155","329638","0.0-1.0-212.0-0.0","0","0","42313","","233","","","75","23","","","1","23","training","adjacent","CD","3","4","Q.jpg","R.jpg","1","1","1","",""
"","feedback","","html-keyboard-response","156","330646","0.0-1.0-213.0-0.0","0","0","42313","","null","","","null","23","","","","","","","","","","","","","","","",""
"","ITI","","html-keyboard-response","157","331650","0.0-1.0-216.0","0","0","42313","","null","","","null","23","","","","","","","","","","","","","","","NaN",""
"","S1","","html-keyboard-response","158","331911","0.0-1.0-218.0","0","0","42313","","null","","","null","24","","","","","","","","","","","","","","","",""
"","ISI","","html-keyboard-response","159","332915","0.0-1.0-219.0","0","0","42313","","null","","","null","24","NaN","","","","","","","","","","","","","","",""
"","S2","","html-keyboard-response","160","333171","0.0-1.0-220.0","0","0","42313","","null","","","null","24","","NaN","","","","","","","","","","","","","",""
"","response","","html-keyboard-response","161","333302","0.0-1.0-221.0-0.0","0","0","42313","","130","","","68","24","","","1","24","training","adjacent","DE","4","5","R.jpg","P.jpg","0","1","0","",""
"","feedback","","html-keyboard-response","162","334309","0.0-1.0-222.0-0.0","0","0","42313","","null","","","null","24","","","","","","","","","","","","","","","",""
"","time_out","","html-keyboard-response","163","336317","0.0-1.0-224.0-0.0","0","0","42313","","null","","","null","24","","","","","","","","","","","","","","","",""
"","ITI","","html-keyboard-response","164","337325","0.0-1.0-225.0","0","0","42313","","null","","","null","24","","","","","","","","","","","","","","","NaN",""
"","S1","","html-keyboard-response","165","337582","0.0-1.0-227.0","0","0","42313","","null","","","null","25","","","","","","","","","","","","","","","",""
"","ISI","","html-keyboard-response","166","338587","0.0-1.0-228.0","0","0","42313","","null","","","null","25","NaN","","","","","","","","","","","","","","",""
"","S2","","html-keyboard-response","167","338842","0.0-1.0-229.0","0","0","42313","","null","","","null","25","","NaN","","","","","","","","","","","","","",""
"","response","","html-keyboard-response","168","339046","0.0-1.0-230.0-0.0","0","0","42313","","202","","","75","25","","","1","25","training","adjacent","GF","7","6","O.jpg","N.jpg","1","0","0","",""
"","feedback","","html-keyboard-response","169","340050","0.0-1.0-231.0-0.0","0","0","42313","","null","","","null","25","","","","","","","","","","","","","","","",""
"","time_out","","html-keyboard-response","170","342058","0.0-1.0-233.0-0.0","0","0","42313","","null","","","null","25","","","","","","","","","","","","","","","",""
"","ITI","","html-keyboard-response","171","343068","0.0-1.0-234.0","0","0","42313","","null","","","null","25","","","","","","","","","","","","","","","NaN",""
"","S1","","html-keyboard-response","172","343323","0.0-1.0-236.0","0","0","42313","","null","","","null","26","","","","","","","","","","","","","","","",""
"","ISI","","html-keyboard-response","173","344333","0.0-1.0-237.0","0","0","42313","","null","","","null","26","NaN","","","","","","","","","","","","","","",""
"","S2","","html-keyboard-response","174","344589","0.0-1.0-238.0","0","0","42313","","null","","","null","26","","NaN","","","","","","","","","","","","","",""
"","response","","html-keyboard-response","175","344656","0.0-1.0-239.0-0.0","0","0","42313","","66","","","75","26","","","1","26","training","adjacent","AB","1","2","L.jpg","M.jpg","1","1","1","",""
"","feedback","","html-keyboard-response","176","345657","0.0-1.0-240.0-0.0","0","0","42313","","null","","","null","26","","","","","","","","","","","","","","","",""
"","ITI","","html-keyboard-response","177","346667","0.0-1.0-243.0","0","0","42313","","null","","","null","26","","","","","","","","","","","","","","","NaN",""
"","S1","","html-keyboard-response","178","346922","0.0-1.0-245.0","0","0","42313","","null","","","null","27","","","","","","","","","","","","","","","",""
"","ISI","","html-keyboard-response","179","347932","0.0-1.0-246.0","0","0","42313","","null","","","null","27","NaN","","","","","","","","","","","","","","",""
"","S2","","html-keyboard-response","180","348188","0.0-1.0-247.0","0","0","42313","","null","","","null","27","","NaN","","","","","","","","","","","","","",""
"","response","","html-keyboard-response","181","348445","0.0-1.0-248.0-0.0","0","0","42313","","257","","","68","27","","","1","27","training","adjacent","EF","5","6","P.jpg","N.jpg","0","1","0","",""
"","feedback","","html-keyboard-response","182","349453","0.0-1.0-249.0-0.0","0","0","42313","","null","","","null","27","","","","","","","","","","","","","","","",""
"","time_out","","html-keyboard-response","183","351462","0.0-1.0-251.0-0.0","0","0","42313","","null","","","null","27","","","","","","","","","","","","","","","",""
"","ITI","","html-keyboard-response","184","352466","0.0-1.0-252.0","0","0","42313","","null","","","null","27","","","","","","","","","","","","","","","NaN",""
"","S1","","html-keyboard-response","185","352721","0.0-1.0-254.0","0","0","42313","","null","","","null","28","","","","","","","","","","","","","","","",""
"","ISI","","html-keyboard-response","186","353731","0.0-1.0-255.0","0","0","42313","","null","","","null","28","NaN","","","","","","","","","","","","","","",""
"","S2","","html-keyboard-response","187","353987","0.0-1.0-256.0","0","0","42313","","null","","","null","28","","NaN","","","","","","","","","","","","","",""
"","response","","html-keyboard-response","188","354029","0.0-1.0-257.0-0.0","0","0","42313","","42","","","75","28","","","1","28","training","adjacent","CD","3","4","Q.jpg","R.jpg","1","1","1","",""
"","feedback","","html-keyboard-response","189","355037","0.0-1.0-258.0-0.0","0","0","42313","","null","","","null","28","","","","","","","","","","","","","","","",""
"","ITI","","html-keyboard-response","190","356041","0.0-1.0-261.0","0","0","42313","","null","","","null","28","","","","","","","","","","","","","","","NaN",""
"","S1","","html-keyboard-response","191","356297","0.0-1.0-263.0","0","0","42313","","null","","","null","29","","","","","","","","","","","","","","","",""
"","ISI","","html-keyboard-response","192","357306","0.0-1.0-264.0","0","0","42313","","null","","","null","29","NaN","","","","","","","","","","","","","","",""
"","S2","","html-keyboard-response","193","357562","0.0-1.0-265.0","0","0","42313","","null","","","null","29","","NaN","","","","","","","","","","","","","",""
"","response","","html-keyboard-response","194","357597","0.0-1.0-266.0-0.0","0","0","42313","","34","","","68","29","","","1","29","training","adjacent","GF","7","6","O.jpg","N.jpg","0","0","1","",""
"","feedback","","html-keyboard-response","195","358601","0.0-1.0-267.0-0.0","0","0","42313","","null","","","null","29","","","","","","","","","","","","","","","",""
"","ITI","","html-keyboard-response","196","359611","0.0-1.0-270.0","0","0","42313","","null","","","null","29","","","","","","","","","","","","","","","NaN",""
"","S1","","html-keyboard-response","197","359867","0.0-1.0-272.0","0","0","42313","","null","","","null","30","","","","","","","","","","","","","","","",""
"","ISI","","html-keyboard-response","198","360877","0.0-1.0-273.0","0","0","42313","","null","","","null","30","NaN","","","","","","","","","","","","","","",""
"","S2","","html-keyboard-response","199","361132","0.0-1.0-274.0","0","0","42313","","null","","","null","30","","NaN","","","","","","","","","","","","","",""
"","response","","html-keyboard-response","200","361317","0.0-1.0-275.0-0.0","0","0","42313","","183","","","75","30","","","1","30","training","adjacent","BA","2","1","M.jpg","L.jpg","1","0","0","",""
"","feedback","","html-keyboard-response","201","362322","0.0-1.0-276.0-0.0","0","0","42313","","null","","","null","30","","","","","","","","","","","","","","","",""
"","time_out","","html-keyboard-response","202","364330","0.0-1.0-278.0-0.0","0","0","42313","","null","","","null","30","","","","","","","","","","","","","","","",""
"","ITI","","html-keyboard-response","203","365340","0.0-1.0-279.0","0","0","42313","","null","","","null","30","","","","","","","","","","","","","","","NaN",""
"","S1","","html-keyboard-response","204","365596","0.0-1.0-281.0","0","0","42313","","null","","","null","31","","","","","","","","","","","","","","","",""
"","ISI","","html-keyboard-response","205","366600","0.0-1.0-282.0","0","0","42313","","null","","","null","31","NaN","","","","","","","","","","","","","","",""
"","S2","","html-keyboard-response","206","366859","0.0-1.0-283.0","0","0","42313","","null","","","null","31","","NaN","","","","","","","","","","","","","",""
"","response","","html-keyboard-response","207","367007","0.0-1.0-284.0-0.0","0","0","42313","","146","","","75","31","","","1","31","training","adjacent","BC","2","3","M.jpg","Q.jpg","1","1","1","",""
"","feedback","","html-keyboard-response","208","368016","0.0-1.0-285.0-0.0","0","0","42313","","null","","","null","31","","","","","","","","","","","","","","","",""
"","ITI","","html-keyboard-response","209","369028","0.0-1.0-288.0","0","0","42313","","null","","","null","31","","","","","","","","","","","","","","","NaN",""
"","S1","","html-keyboard-response","210","369282","0.0-1.0-290.0","0","0","42313","","null","","","null","32","","","","","","","","","","","","","","","",""
"","ISI","","html-keyboard-response","211","370292","0.0-1.0-291.0","0","0","42313","","null","","","null","32","NaN","","","","","","","","","","","","","","",""
"","S2","","html-keyboard-response","212","370548","0.0-1.0-292.0","0","0","42313","","null","","","null","32","","NaN","","","","","","","","","","","","","",""
"","response","","html-keyboard-response","213","370596","0.0-1.0-293.0-0.0","0","0","42313","","48","","","75","32","","","1","32","training","adjacent","BA","2","1","M.jpg","L.jpg","1","0","0","",""
"","feedback","","html-keyboard-response","214","371604","0.0-1.0-294.0-0.0","0","0","42313","","null","","","null","32","","","","","","","","","","","","","","","",""
"","time_out","","html-keyboard-response","215","373613","0.0-1.0-296.0-0.0","0","0","42313","","null","","","null","32","","","","","","","","","","","","","","","",""
"","ITI","","html-keyboard-response","216","374617","0.0-1.0-297.0","0","0","42313","","null","","","null","32","","","","","","","","","","","","","","","NaN",""
"","S1","","html-keyboard-response","217","374872","0.0-1.0-299.0","0","0","42313","","null","","","null","33","","","","","","","","","","","","","","","",""
"","ISI","","html-keyboard-response","218","375882","0.0-1.0-300.0","0","0","42313","","null","","","null","33","NaN","","","","","","","","","","","","","","",""
"","S2","","html-keyboard-response","219","376138","0.0-1.0-301.0","0","0","42313","","null","","","null","33","","NaN","","","","","","","","","","","","","",""
"","response","","html-keyboard-response","220","376182","0.0-1.0-302.0-0.0","0","0","42313","","43","","","75","33","","","1","33","training","adjacent","AB","1","2","L.jpg","M.jpg","1","1","1","",""
"","feedback","","html-keyboard-response","221","377188","0.0-1.0-303.0-0.0","0","0","42313","","null","","","null","33","","","","","","","","","","","","","","","",""
"","ITI","","html-keyboard-response","222","378193","0.0-1.0-306.0","0","0","42313","","null","","","null","33","","","","","","","","","","","","","","","NaN",""
"","S1","","html-keyboard-response","223","378448","0.0-1.0-308.0","0","0","42313","","null","","","null","34","","","","","","","","","","","","","","","",""
"","ISI","","html-keyboard-response","224","379458","0.0-1.0-309.0","0","0","42313","","null","","","null","34","NaN","","","","","","","","","","","","","","",""
"","S2","","html-keyboard-response","225","379713","0.0-1.0-310.0","0","0","42313","","null","","","null","34","","NaN","","","","","","","","","","","","","",""
"","response","","html-keyboard-response","226","379965","0.0-1.0-311.0-0.0","0","0","42313","","250","","","68","34","","","1","34","training","adjacent","CB","3","2","Q.jpg","M.jpg","0","0","1","",""
"","feedback","","html-keyboard-response","227","380972","0.0-1.0-312.0-0.0","0","0","42313","","null","","","null","34","","","","","","","","","","","","","","","",""
"","ITI","","html-keyboard-response","228","381977","0.0-1.0-315.0","0","0","42313","","null","","","null","34","","","","","","","","","","","","","","","NaN",""
"","S1","","html-keyboard-response","229","382233","0.0-1.0-317.0","0","0","42313","","null","","","null","35","","","","","","","","","","","","","","","",""
"","ISI","","html-keyboard-response","230","383242","0.0-1.0-318.0","0","0","42313","","null","","","null","35","NaN","","","","","","","","","","","","","","",""
"","S2","","html-keyboard-response","231","383497","0.0-1.0-319.0","0","0","42313","","null","","","null","35","","NaN","","","","","","","","","","","","","",""
"","response","","html-keyboard-response","232","383758","0.0-1.0-320.0-0.0","0","0","42313","","259","","","68","35","","","1","35","training","adjacent","ED","5","4","P.jpg","R.jpg","0","0","1","",""
"","feedback","","html-keyboard-response","233","384763","0.0-1.0-321.0-0.0","0","0","42313","","null","","","null","35","","","","","","","","","","","","","","","",""
"","ITI","","html-keyboard-response","234","385768","0.0-1.0-324.0","0","0","42313","","null","","","null","35","","","","","","","","","","","","","","","NaN",""
"","S1","","html-keyboard-response","235","386024","0.0-1.0-326.0","0","0","42313","","null","","","null","36","","","","","","","","","","","","","","","",""
"","ISI","","html-keyboard-response","236","387033","0.0-1.0-327.0","0","0","42313","","null","","","null","36","NaN","","","","","","","","","","","","","","",""
"","S2","","html-keyboard-response","237","387288","0.0-1.0-328.0","0","0","42313","","null","","","null","36","","NaN","","","","","","","","","","","","","",""
"","response","","html-keyboard-response","238","387716","0.0-1.0-329.0-0.0","0","0","42313","","426","","","68","36","","","1","36","training","adjacent","DE","4","5","R.jpg","P.jpg","0","1","0","",""
"","feedback","","html-keyboard-response","239","388722","0.0-1.0-330.0-0.0","0","0","42313","","null","","","null","36","","","","","","","","","","","","","","","",""
"","time_out","","html-keyboard-response","240","390731","0.0-1.0-332.0-0.0","0","0","42313","","null","","","null","36","","","","","","","","","","","","","","","",""
"","ITI","","html-keyboard-response","241","391740","0.0-1.0-333.0","0","0","42313","","null","","","null","36","","","","","","","","","","","","","","","NaN",""
"","S1","","html-keyboard-response","242","392002","0.0-1.0-335.0","0","0","42313","","null","","","null","37","","","","","","","","","","","","","","","",""
"","ISI","","html-keyboard-response","243","393012","0.0-1.0-336.0","0","0","42313","","null","","","null","37","NaN","","","","","","","","","","","","","","",""
"","S2","","html-keyboard-response","244","393273","0.0-1.0-337.0","0","0","42313","","null","","","null","37","","NaN","","","","","","","","","","","","","",""
"","response","","html-keyboard-response","245","393502","0.0-1.0-338.0-0.0","0","0","42313","","227","","","68","37","","","1","37","training","adjacent","CB","3","2","Q.jpg","M.jpg","0","0","1","",""
"","feedback","","html-keyboard-response","246","394504","0.0-1.0-339.0-0.0","0","0","42313","","null","","","null","37","","","","","","","","","","","","","","","",""
"","ITI","","html-keyboard-response","247","395513","0.0-1.0-342.0","0","0","42313","","null","","","null","37","","","","","","","","","","","","","","","NaN",""
"","S1","","html-keyboard-response","248","395769","0.0-1.0-344.0","0","0","42313","","null","","","null","38","","","","","","","","","","","","","","","",""
"","ISI","","html-keyboard-response","249","396779","0.0-1.0-345.0","0","0","42313","","null","","","null","38","NaN","","","","","","","","","","","","","","",""
"","S2","","html-keyboard-response","250","397034","0.0-1.0-346.0","0","0","42313","","null","","","null","38","","NaN","","","","","","","","","","","","","",""
"","response","","html-keyboard-response","251","397283","0.0-1.0-347.0-0.0","0","0","42313","","247","","","75","38","","","1","38","training","adjacent","EF","5","6","P.jpg","N.jpg","1","1","1","",""
"","feedback","","html-keyboard-response","252","398288","0.0-1.0-348.0-0.0","0","0","42313","","null","","","null","38","","","","","","","","","","","","","","","",""
"","ITI","","html-keyboard-response","253","399298","0.0-1.0-351.0","0","0","42313","","null","","","null","38","","","","","","","","","","","","","","","NaN",""
"","S1","","html-keyboard-response","254","399554","0.0-1.0-353.0","0","0","42313","","null","","","null","39","","","","","","","","","","","","","","","",""
"","ISI","","html-keyboard-response","255","400564","0.0-1.0-354.0","0","0","42313","","null","","","null","39","NaN","","","","","","","","","","","","","","",""
"","S2","","html-keyboard-response","256","400825","0.0-1.0-355.0","0","0","42313","","null","","","null","39","","NaN","","","","","","","","","","","","","",""
"","response","","html-keyboard-response","257","401069","0.0-1.0-356.0-0.0","0","0","42313","","243","","","75","39","","","1","39","training","adjacent","FE","6","5","N.jpg","P.jpg","1","0","0","",""
"","feedback","","html-keyboard-response","258","402073","0.0-1.0-357.0-0.0","0","0","42313","","null","","","null","39","","","","","","","","","","","","","","","",""
"","time_out","","html-keyboard-response","259","404081","0.0-1.0-359.0-0.0","0","0","42313","","null","","","null","39","","","","","","","","","","","","","","","",""
"","ITI","","html-keyboard-response","260","405092","0.0-1.0-360.0","0","0","42313","","null","","","null","39","","","","","","","","","","","","","","","NaN",""
"","S1","","html-keyboard-response","261","405353","0.0-1.0-362.0","0","0","42313","","null","","","null","40","","","","","","","","","","","","","","","",""
"","ISI","","html-keyboard-response","262","406363","0.0-1.0-363.0","0","0","42313","","null","","","null","40","NaN","","","","","","","","","","","","","","",""
"","S2","","html-keyboard-response","263","406618","0.0-1.0-364.0","0","0","42313","","null","","","null","40","","NaN","","","","","","","","","","","","","",""
"","response","","html-keyboard-response","264","406707","0.0-1.0-365.0-0.0","0","0","42313","","87","","","68","40","","","1","40","training","adjacent","EF","5","6","P.jpg","N.jpg","0","1","0","",""
"","feedback","","html-keyboard-response","265","407715","0.0-1.0-366.0-0.0","0","0","42313","","null","","","null","40","","","","","","","","","","","","","","","",""
"","time_out","","html-keyboard-response","266","409720","0.0-1.0-368.0-0.0","0","0","42313","","null","","","null","40","","","","","","","","","","","","","","","",""
"","ITI","","html-keyboard-response","267","410728","0.0-1.0-369.0","0","0","42313","","null","","","null","40","","","","","","","","","","","","","","","NaN",""
"","S1","","html-keyboard-response","268","410983","0.0-1.0-371.0","0","0","42313","","null","","","null","41","","","","","","","","","","","","","","","",""
"","ISI","","html-keyboard-response","269","411993","0.0-1.0-372.0","0","0","42313","","null","","","null","41","NaN","","","","","","","","","","","","","","",""
"","S2","","html-keyboard-response","270","412248","0.0-1.0-373.0","0","0","42313","","null","","","null","41","","NaN","","","","","","","","","","","","","",""
"","response","","html-keyboard-response","271","412483","0.0-1.0-374.0-0.0","0","0","42313","","233","","","75","41","","","1","41","training","adjacent","DE","4","5","R.jpg","P.jpg","1","1","1","",""
"","feedback","","html-keyboard-response","272","413491","0.0-1.0-375.0-0.0","0","0","42313","","null","","","null","41","","","","","","","","","","","","","","","",""
"","ITI","","html-keyboard-response","273","414495","0.0-1.0-378.0","0","0","42313","","null","","","null","41","","","","","","","","","","","","","","","NaN",""
"","S1","","html-keyboard-response","274","414753","0.0-1.0-380.0","0","0","42313","","null","","","null","42","","","","","","","","","","","","","","","",""
"","ISI","","html-keyboard-response","275","415760","0.0-1.0-381.0","0","0","42313","","null","","","null","42","NaN","","","","","","","","","","","","","","",""
"","S2","","html-keyboard-response","276","416016","0.0-1.0-382.0","0","0","42313","","null","","","null","42","","NaN","","","","","","","","","","","","","",""
"","response","","html-keyboard-response","277","416125","0.0-1.0-383.0-0.0","0","0","42313","","108","","","75","42","","","1","42","training","adjacent","DC","4","3","R.jpg","Q.jpg","1","0","0","",""
"","feedback","","html-keyboard-response","278","417131","0.0-1.0-384.0-0.0","0","0","42313","","null","","","null","42","","","","","","","","","","","","","","","",""
"","time_out","","html-keyboard-response","279","419139","0.0-1.0-386.0-0.0","0","0","42313","","null","","","null","42","","","","","","","","","","","","","","","",""
"","ITI","","html-keyboard-response","280","420143","0.0-1.0-387.0","0","0","42313","","null","","","null","42","","","","","","","","","","","","","","","NaN",""
"","S1","","html-keyboard-response","281","420399","0.0-1.0-389.0","0","0","42313","","null","","","null","43","","","","","","","","","","","","","","","",""
"","ISI","","html-keyboard-response","282","421409","0.0-1.0-390.0","0","0","42313","","null","","","null","43","NaN","","","","","","","","","","","","","","",""
"","S2","","html-keyboard-response","283","421664","0.0-1.0-391.0","0","0","42313","","null","","","null","43","","NaN","","","","","","","","","","","","","",""
"","response","","html-keyboard-response","284","421851","0.0-1.0-392.0-0.0","0","0","42313","","185","","","68","43","","","1","43","training","adjacent","FG","6","7","N.jpg","O.jpg","0","1","0","",""
"","feedback","","html-keyboard-response","285","422854","0.0-1.0-393.0-0.0","0","0","42313","","null","","","null","43","","","","","","","","","","","","","","","",""
"","time_out","","html-keyboard-response","286","424862","0.0-1.0-395.0-0.0","0","0","42313","","null","","","null","43","","","","","","","","","","","","","","","",""
"","ITI","","html-keyboard-response","287","425872","0.0-1.0-396.0","0","0","42313","","null","","","null","43","","","","","","","","","","","","","","","NaN",""
"","S1","","html-keyboard-response","288","426128","0.0-1.0-398.0","0","0","42313","","null","","","null","44","","","","","","","","","","","","","","","",""
"","ISI","","html-keyboard-response","289","427138","0.0-1.0-399.0","0","0","42313","","null","","","null","44","NaN","","","","","","","","","","","","","","",""
"","S2","","html-keyboard-response","290","427393","0.0-1.0-400.0","0","0","42313","","null","","","null","44","","NaN","","","","","","","","","","","","","",""
"","response","","html-keyboard-response","291","427668","0.0-1.0-401.0-0.0","0","0","42313","","273","","","68","44","","","1","44","training","adjacent","FE","6","5","N.jpg","P.jpg","0","0","1","",""
"","feedback","","html-keyboard-response","292","428670","0.0-1.0-402.0-0.0","0","0","42313","","null","","","null","44","","","","","","","","","","","","","","","",""
"","ITI","","html-keyboard-response","293","429680","0.0-1.0-405.0","0","0","42313","","null","","","null","44","","","","","","","","","","","","","","","NaN",""
"","S1","","html-keyboard-response","294","429935","0.0-1.0-407.0","0","0","42313","","null","","","null","45","","","","","","","","","","","","","","","",""
"","ISI","","html-keyboard-response","295","430946","0.0-1.0-408.0","0","0","42313","","null","","","null","45","NaN","","","","","","","","","","","","","","",""
"","S2","","html-keyboard-response","296","431201","0.0-1.0-409.0","0","0","42313","","null","","","null","45","","NaN","","","","","","","","","","","","","",""
"","response","","html-keyboard-response","297","431322","0.0-1.0-410.0-0.0","0","0","42313","","119","","","68","45","","","1","45","training","adjacent","DC","4","3","R.jpg","Q.jpg","0","0","1","",""
"","feedback","","html-keyboard-response","298","432327","0.0-1.0-411.0-0.0","0","0","42313","","null","","","null","45","","","","","","","","","","","","","","","",""
"","ITI","","html-keyboard-response","299","433338","0.0-1.0-414.0","0","0","42313","","null","","","null","45","","","","","","","","","","","","","","","NaN",""
"","S1","","html-keyboard-response","300","433593","0.0-1.0-416.0","0","0","42313","","null","","","null","46","","","","","","","","","","","","","","","",""
"","ISI","","html-keyboard-response","301","434599","0.0-1.0-417.0","0","0","42313","","null","","","null","46","NaN","","","","","","","","","","","","","","",""
"","S2","","html-keyboard-response","302","434858","0.0-1.0-418.0","0","0","42313","","null","","","null","46","","NaN","","","","","","","","","","","","","",""
"","response","","html-keyboard-response","303","435068","0.0-1.0-419.0-0.0","0","0","42313","","208","","","68","46","","","1","46","training","adjacent","FE","6","5","N.jpg","P.jpg","0","0","1","",""
"","feedback","","html-keyboard-response","304","436071","0.0-1.0-420.0-0.0","0","0","42313","","null","","","null","46","","","","","","","","","","","","","","","",""
"","ITI","","html-keyboard-response","305","437082","0.0-1.0-423.0","0","0","42313","","null","","","null","46","","","","","","","","","","","","","","","NaN",""
"","S1","","html-keyboard-response","306","437337","0.0-1.0-425.0","0","0","42313","","null","","","null","47","","","","","","","","","","","","","","","",""
"","ISI","","html-keyboard-response","307","438343","0.0-1.0-426.0","0","0","42313","","null","","","null","47","NaN","","","","","","","","","","","","","","",""
"","S2","","html-keyboard-response","308","438554","0.0-1.0-427.0","0","0","42313","","209","","","68","47","","d","1","47","training","adjacent","CD","3","4","Q.jpg","R.jpg","0","1","0","",""
"","feedback","","html-keyboard-response","309","439560","0.0-1.0-429.0-0.0","0","0","42313","","null","","","null","47","","","","","","","","","","","","","","","",""
"","time_out","","html-keyboard-response","310","441568","0.0-1.0-431.0-0.0","0","0","42313","","null","","","null","47","","","","","","","","","","","","","","","",""
"","ITI","","html-keyboard-response","311","442575","0.0-1.0-432.0","0","0","42313","","null","","","null","47","","","","","","","","","","","","","","","NaN",""
"","block_over","","html-keyboard-response","312","546862","0.0-1.0-433.0-0.0","0","0","42313","","104285","","","32","47","","","","","","","","","","","","","","","",""
"","S1","","html-keyboard-response","313","547122","0.0-1.0-434.0","0","0","42313","","null","","","null","48","","","","","","","","","","","","","","","",""
"","ISI","","html-keyboard-response","314","548132","0.0-1.0-435.0","0","0","42313","","null","","","null","48","NaN","","","","","","","","","","","","","","",""
"","S2","","html-keyboard-response","315","548387","0.0-1.0-436.0","0","0","42313","","null","","","null","48","","NaN","","","","","","","","","","","","","",""
"","response","","html-keyboard-response","316","548749","0.0-1.0-437.0-0.0","0","0","42313","","360","","","75","48","","","2","48","training","adjacent","BC","2","3","M.jpg","Q.jpg","1","1","1","",""
"","feedback","","html-keyboard-response","317","549757","0.0-1.0-438.0-0.0","0","0","42313","","null","","","null","48","","","","","","","","","","","","","","","",""
"","ITI","","html-keyboard-response","318","550765","0.0-1.0-441.0","0","0","42313","","null","","","null","48","","","","","","","","","","","","","","","NaN",""
"","S1","","html-keyboard-response","319","551016","0.0-1.0-443.0","0","0","42313","","null","","","null","49","","","","","","","","","","","","","","","",""
"","ISI","","html-keyboard-response","320","552026","0.0-1.0-444.0","0","0","42313","","null","","","null","49","NaN","","","","","","","","","","","","","","",""
"","S2","","html-keyboard-response","321","552282","0.0-1.0-445.0","0","0","42313","","null","","","null","49","","NaN","","","","","","","","","","","","","",""
"","response","","html-keyboard-response","322","552517","0.0-1.0-446.0-0.0","0","0","42313","","233","","","68","49","","","2","49","training","adjacent","EF","5","6","P.jpg","N.jpg","0","1","0","",""
"","feedback","","html-keyboard-response","323","553525","0.0-1.0-447.0-0.0","0","0","42313","","null","","","null","49","","","","","","","","","","","","","","","",""
"","time_out","","html-keyboard-response","324","555533","0.0-1.0-449.0-0.0","0","0","42313","","null","","","null","49","","","","","","","","","","","","","","","",""
"","ITI","","html-keyboard-response","325","556537","0.0-1.0-450.0","0","0","42313","","null","","","null","49","","","","","","","","","","","","","","","NaN",""
"","S1","","html-keyboard-response","326","556793","0.0-1.0-452.0","0","0","42313","","null","","","null","50","","","","","","","","","","","","","","","",""
"","ISI","","html-keyboard-response","327","557803","0.0-1.0-453.0","0","0","42313","","null","","","null","50","NaN","","","","","","","","","","","","","","",""
"","S2","","html-keyboard-response","328","558058","0.0-1.0-454.0","0","0","42313","","null","","","null","50","","NaN","","","","","","","","","","","","","",""
"","response","","html-keyboard-response","329","558143","0.0-1.0-455.0-0.0","0","0","42313","","83","","","68","50","","","2","50","training","adjacent","CB","3","2","Q.jpg","M.jpg","0","0","1","",""
"","feedback","","html-keyboard-response","330","559149","0.0-1.0-456.0-0.0","0","0","42313","","null","","","null","50","","","","","","","","","","","","","","","",""
"","ITI","","html-keyboard-response","331","560155","0.0-1.0-459.0","0","0","42313","","null","","","null","50","","","","","","","","","","","","","","","NaN",""
"","S1","","html-keyboard-response","332","560409","0.0-1.0-461.0","0","0","42313","","null","","","null","51","","","","","","","","","","","","","","","",""
"","ISI","","html-keyboard-response","333","561419","0.0-1.0-462.0","0","0","42313","","null","","","null","51","NaN","","","","","","","","","","","","","","",""
"","S2","","html-keyboard-response","334","561660","0.0-1.0-463.0","0","0","42313","","240","","","75","51","","k","2","51","training","adjacent","AB","1","2","L.jpg","M.jpg","1","1","1","",""
"","feedback","","html-keyboard-response","335","562667","0.0-1.0-465.0-0.0","0","0","42313","","null","","","null","51","","","","","","","","","","","","","","","",""
"","ITI","","html-keyboard-response","336","563673","0.0-1.0-468.0","0","0","42313","","null","","","null","51","","","","","","","","","","","","","","","NaN",""
"","S1","","html-keyboard-response","337","563932","0.0-1.0-470.0","0","0","42313","","null","","","null","52","","","","","","","","","","","","","","","",""
"","ISI","","html-keyboard-response","338","564937","0.0-1.0-471.0","0","0","42313","","null","","","null","52","NaN","","","","","","","","","","","","","","",""
"","S2","","html-keyboard-response","339","565195","0.0-1.0-472.0","0","0","42313","","null","","","null","52","","NaN","","","","","","","","","","","","","",""
"","response","","html-keyboard-response","340","565470","0.0-1.0-473.0-0.0","0","0","42313","","274","","","75","52","","","2","52","training","adjacent","DC","4","3","R.jpg","Q.jpg","1","0","0","",""
"","feedback","","html-keyboard-response","341","566475","0.0-1.0-474.0-0.0","0","0","42313","","null","","","null","52","","","","","","","","","","","","","","","",""
"","time_out","","html-keyboard-response","342","568483","0.0-1.0-476.0-0.0","0","0","42313","","null","","","null","52","","","","","","","","","","","","","","","",""
"","ITI","","html-keyboard-response","343","569488","0.0-1.0-477.0","0","0","42313","","null","","","null","52","","","","","","","","","","","","","","","NaN",""
"","S1","","html-keyboard-response","344","569747","0.0-1.0-479.0","0","0","42313","","null","","","null","53","","","","","","","","","","","","","","","",""
"","ISI","","html-keyboard-response","345","570753","0.0-1.0-480.0","0","0","42313","","null","","","null","53","NaN","","","","","","","","","","","","","","",""
"","S2","","html-keyboard-response","346","571009","0.0-1.0-481.0","0","0","42313","","null","","","null","53","","NaN","","","","","","","","","","","","","",""
"","response","","html-keyboard-response","347","571100","0.0-1.0-482.0-0.0","0","0","42313","","90","","","75","53","","","2","53","training","adjacent","DC","4","3","R.jpg","Q.jpg","1","0","0","",""
"","feedback","","html-keyboard-response","348","572106","0.0-1.0-483.0-0.0","0","0","42313","","null","","","null","53","","","","","","","","","","","","","","","",""
"","time_out","","html-keyboard-response","349","574114","0.0-1.0-485.0-0.0","0","0","42313","","null","","","null","53","","","","","","","","","","","","","","","",""
"","ITI","","html-keyboard-response","350","575124","0.0-1.0-486.0","0","0","42313","","null","","","null","53","","","","","","","","","","","","","","","NaN",""
"","S1","","html-keyboard-response","351","575385","0.0-1.0-488.0","0","0","42313","","null","","","null","54","","","","","","","","","","","","","","","",""
"","ISI","","html-keyboard-response","352","576395","0.0-1.0-489.0","0","0","42313","","null","","","null","54","NaN","","","","","","","","","","","","","","",""
"","S2","","html-keyboard-response","353","576612","0.0-1.0-490.0","0","0","42313","","215","","","68","54","","d","2","54","training","adjacent","DE","4","5","R.jpg","P.jpg","0","1","0","",""
"","feedback","","html-keyboard-response","354","577620","0.0-1.0-492.0-0.0","0","0","42313","","null","","","null","54","","","","","","","","","","","","","","","",""
"","time_out","","html-keyboard-response","355","579626","0.0-1.0-494.0-0.0","0","0","42313","","null","","","null","54","","","","","","","","","","","","","","","",""
"","ITI","","html-keyboard-response","356","580632","0.0-1.0-495.0","0","0","42313","","null","","","null","54","","","","","","","","","","","","","","","NaN",""
"","S1","","html-keyboard-response","357","580888","0.0-1.0-497.0","0","0","42313","","null","","","null","55","","","","","","","","","","","","","","","",""
"","ISI","","html-keyboard-response","358","581898","0.0-1.0-498.0","0","0","42313","","null","","","null","55","NaN","","","","","","","","","","","","","","",""
"","S2","","html-keyboard-response","359","582154","0.0-1.0-499.0","0","0","42313","","null","","","null","55","","NaN","","","","","","","","","","","","","",""
"","response","","html-keyboard-response","360","582213","0.0-1.0-500.0-0.0","0","0","42313","","59","","","68","55","","","2","55","training","adjacent","FG","6","7","N.jpg","O.jpg","0","1","0","",""
"","feedback","","html-keyboard-response","361","583216","0.0-1.0-501.0-0.0","0","0","42313","","null","","","null","55","","","","","","","","","","","","","","","",""
"","time_out","","html-keyboard-response","362","585226","0.0-1.0-503.0-0.0","0","0","42313","","null","","","null","55","","","","","","","","","","","","","","","",""
"","ITI","","html-keyboard-response","363","586234","0.0-1.0-504.0","0","0","42313","","null","","","null","55","","","","","","","","","","","","","","","NaN",""
"","S1","","html-keyboard-response","364","586490","0.0-1.0-506.0","0","0","42313","","null","","","null","56","","","","","","","","","","","","","","","",""
"","ISI","","html-keyboard-response","365","587500","0.0-1.0-507.0","0","0","42313","","null","","","null","56","NaN","","","","","","","","","","","","","","",""
"","S2","","html-keyboard-response","366","587761","0.0-1.0-508.0","0","0","42313","","null","","","null","56","","NaN","","","","","","","","","","","","","",""
"","response","","html-keyboard-response","367","587956","0.0-1.0-509.0-0.0","0","0","42313","","193","","","68","56","","","2","56","training","adjacent","FE","6","5","N.jpg","P.jpg","0","0","1","",""
"","feedback","","html-keyboard-response","368","588963","0.0-1.0-510.0-0.0","0","0","42313","","null","","","null","56","","","","","","","","","","","","","","","",""
"","ITI","","html-keyboard-response","369","589968","0.0-1.0-513.0","0","0","42313","","null","","","null","56","","","","","","","","","","","","","","","NaN",""
"","S1","","html-keyboard-response","370","590225","0.0-1.0-515.0","0","0","42313","","null","","","null","57","","","","","","","","","","","","","","","",""
"","ISI","","html-keyboard-response","371","591232","0.0-1.0-516.0","0","0","42313","","null","","","null","57","NaN","","","","","","","","","","","","","","",""
"","S2","","html-keyboard-response","372","591488","0.0-1.0-517.0","0","0","42313","","null","","","null","57","","NaN","","","","","","","","","","","","","",""
"","response","","html-keyboard-response","373","591763","0.0-1.0-518.0-0.0","0","0","42313","","274","","","75","57","","","2","57","training","adjacent","AB","1","2","L.jpg","M.jpg","1","1","1","",""
"","feedback","","html-keyboard-response","374","592770","0.0-1.0-519.0-0.0","0","0","42313","","null","","","null","57","","","","","","","","","","","","","","","",""
"","ITI","","html-keyboard-response","375","593776","0.0-1.0-522.0","0","0","42313","","null","","","null","57","","","","","","","","","","","","","","","NaN",""
"","S1","","html-keyboard-response","376","594032","0.0-1.0-524.0","0","0","42313","","null","","","null","58","","","","","","","","","","","","","","","",""
"","ISI","","html-keyboard-response","377","595040","0.0-1.0-525.0","0","0","42313","","null","","","null","58","NaN","","","","","","","","","","","","","","",""
"","S2","","html-keyboard-response","378","595296","0.0-1.0-526.0","0","0","42313","","null","","","null","58","","NaN","","","","","","","","","","","","","",""
"","response","","html-keyboard-response","379","595299","0.0-1.0-527.0-0.0","0","0","42313","","2","","","68","58","","","2","58","training","adjacent","EF","5","6","P.jpg","N.jpg","0","1","0","",""
"","feedback","","html-keyboard-response","380","596306","0.0-1.0-528.0-0.0","0","0","42313","","null","","","null","58","","","","","","","","","","","","","","","",""
"","time_out","","html-keyboard-response","381","598314","0.0-1.0-530.0-0.0","0","0","42313","","null","","","null","58","","","","","","","","","","","","","","","",""
"","ITI","","html-keyboard-response","382","599323","0.0-1.0-531.0","0","0","42313","","null","","","null","58","","","","","","","","","","","","","","","NaN",""
"","S1","","html-keyboard-response","383","599579","0.0-1.0-533.0","0","0","42313","","null","","","null","59","","","","","","","","","","","","","","","",""
"","ISI","","html-keyboard-response","384","600584","0.0-1.0-534.0","0","0","42313","","null","","","null","59","NaN","","","","","","","","","","","","","","",""
"","S2","","html-keyboard-response","385","600839","0.0-1.0-535.0","0","0","42313","","null","","","null","59","","NaN","","","","","","","","","","","","","",""
"","response","","html-keyboard-response","386","601107","0.0-1.0-536.0-0.0","0","0","42313","","267","","","75","59","","","2","59","training","adjacent","ED","5","4","P.jpg","R.jpg","1","0","0","",""
"","feedback","","html-keyboard-response","387","602115","0.0-1.0-537.0-0.0","0","0","42313","","null","","","null","59","","","","","","","","","","","","","","","",""
"","time_out","","html-keyboard-response","388","604119","0.0-1.0-539.0-0.0","0","0","42313","","null","","","null","59","","","","","","","","","","","","","","","",""
"","ITI","","html-keyboard-response","389","605129","0.0-1.0-540.0","0","0","42313","","null","","","null","59","","","","","","","","","","","","","","","NaN",""
"","S1","","html-keyboard-response","390","605384","0.0-1.0-542.0","0","0","42313","","null","","","null","60","","","","","","","","","","","","","","","",""
"","ISI","","html-keyboard-response","391","606394","0.0-1.0-543.0","0","0","42313","","null","","","null","60","NaN","","","","","","","","","","","","","","",""
"","S2","","html-keyboard-response","392","606650","0.0-1.0-544.0","0","0","42313","","null","","","null","60","","NaN","","","","","","","","","","","","","",""
"","response","","html-keyboard-response","393","606692","0.0-1.0-545.0-0.0","0","0","42313","","42","","","75","60","","","2","60","training","adjacent","BC","2","3","M.jpg","Q.jpg","1","1","1","",""
"","feedback","","html-keyboard-response","394","607694","0.0-1.0-546.0-0.0","0","0","42313","","null","","","null","60","","","","","","","","","","","","","","","",""
"","ITI","","html-keyboard-response","395","608704","0.0-1.0-549.0","0","0","42313","","null","","","null","60","","","","","","","","","","","","","","","NaN",""
"","S1","","html-keyboard-response","396","608960","0.0-1.0-551.0","0","0","42313","","null","","","null","61","","","","","","","","","","","","","","","",""
"","ISI","","html-keyboard-response","397","609970","0.0-1.0-552.0","0","0","42313","","null","","","null","61","NaN","","","","","","","","","","","","","","",""
"","S2","","html-keyboard-response","398","610225","0.0-1.0-553.0","0","0","42313","","null","","","null","61","","NaN","","","","","","","","","","","","","",""
"","response","","html-keyboard-response","399","610282","0.0-1.0-554.0-0.0","0","0","42313","","55","","","68","61","","","2","61","training","adjacent","CD","3","4","Q.jpg","R.jpg","0","1","0","",""
"","feedback","","html-keyboard-response","400","611287","0.0-1.0-555.0-0.0","0","0","42313","","null","","","null","61","","","","","","","","","","","","","","","",""
"","time_out","","html-keyboard-response","401","613296","0.0-1.0-557.0-0.0","0","0","42313","","null","","","null","61","","","","","","","","","","","","","","","",""
"","ITI","","html-keyboard-response","402","614306","0.0-1.0-558.0","0","0","42313","","null","","","null","61","","","","","","","","","","","","","","","NaN",""
"","S1","","html-keyboard-response","403","614561","0.0-1.0-560.0","0","0","42313","","null","","","null","62","","","","","","","","","","","","","","","",""
"","ISI","","html-keyboard-response","404","615566","0.0-1.0-561.0","0","0","42313","","null","","","null","62","NaN","","","","","","","","","","","","","","",""
"","S2","","html-keyboard-response","405","615818","0.0-1.0-562.0","0","0","42313","","251","","","75","62","","k","2","62","training","adjacent","BC","2","3","M.jpg","Q.jpg","1","1","1","",""
"","feedback","","html-keyboard-response","406","616825","0.0-1.0-564.0-0.0","0","0","42313","","null","","","null","62","","","","","","","","","","","","","","","",""
"","ITI","","html-keyboard-response","407","617831","0.0-1.0-567.0","0","0","42313","","null","","","null","62","","","","","","","","","","","","","","","NaN",""
"","S1","","html-keyboard-response","408","618087","0.0-1.0-569.0","0","0","42313","","null","","","null","63","","","","","","","","","","","","","","","",""
"","ISI","","html-keyboard-response","409","619095","0.0-1.0-570.0","0","0","42313","","220","","","75","63","k","","","","","","","","","","","","","","",""
"","S2","","html-keyboard-response","410","619350","0.0-1.0-571.0","0","0","42313","","null","","","null","63","","NaN","","","","","","","","","","","","","",""
"","response","","html-keyboard-response","411","619562","0.0-1.0-572.0-0.0","0","0","42313","","210","","","75","63","","","2","63","training","adjacent","DE","4","5","R.jpg","P.jpg","1","1","1","",""
"","feedback","","html-keyboard-response","412","620569","0.0-1.0-573.0-0.0","0","0","42313","","null","","","null","63","","","","","","","","","","","","","","","",""
"","ITI","","html-keyboard-response","413","621574","0.0-1.0-576.0","0","0","42313","","null","","","null","63","","","","","","","","","","","","","","","NaN",""
"","S1","","html-keyboard-response","414","621831","0.0-1.0-578.0","0","0","42313","","null","","","null","64","","","","","","","","","","","","","","","",""
"","ISI","","html-keyboard-response","415","622838","0.0-1.0-579.0","0","0","42313","","null","","","null","64","NaN","","","","","","","","","","","","","","",""
"","S2","","html-keyboard-response","416","622858","0.0-1.0-580.0","0","0","42313","","18","","","68","64","","d","2","64","training","adjacent","DE","4","5","R.jpg","P.jpg","0","1","0","",""
"","feedback","","html-keyboard-response","417","623863","0.0-1.0-582.0-0.0","0","0","42313","","null","","","null","64","","","","","","","","","","","","","","","",""
"","time_out","","html-keyboard-response","418","625869","0.0-1.0-584.0-0.0","0","0","42313","","null","","","null","64","","","","","","","","","","","","","","","",""
"","ITI","","html-keyboard-response","419","626879","0.0-1.0-585.0","0","0","42313","","null","","","null","64","","","","","","","","","","","","","","","NaN",""
"","S1","","html-keyboard-response","420","627134","0.0-1.0-587.0","0","0","42313","","null","","","null","65","","","","","","","","","","","","","","","",""
"","ISI","","html-keyboard-response","421","628145","0.0-1.0-588.0","0","0","42313","","null","","","null","65","NaN","","","","","","","","","","","","","","",""
"","S2","","html-keyboard-response","422","628400","0.0-1.0-589.0","0","0","42313","","null","","","null","65","","NaN","","","","","","","","","","","","","",""
"","response","","html-keyboard-response","423","628682","0.0-1.0-590.0-0.0","0","0","42313","","280","","","75","65","","","2","65","training","adjacent","BA","2","1","M.jpg","L.jpg","1","0","0","",""
"","feedback","","html-keyboard-response","424","629689","0.0-1.0-591.0-0.0","0","0","42313","","null","","","null","65","","","","","","","","","","","","","","","",""
"","time_out","","html-keyboard-response","425","631697","0.0-1.0-593.0-0.0","0","0","42313","","null","","","null","65","","","","","","","","","","","","","","","",""
"","ITI","","html-keyboard-response","426","632701","0.0-1.0-594.0","0","0","42313","","null","","","null","65","","","","","","","","","","","","","","","NaN",""
"","S1","","html-keyboard-response","427","632959","0.0-1.0-596.0","0","0","42313","","null","","","null","66","","","","","","","","","","","","","","","",""
"","ISI","","html-keyboard-response","428","633967","0.0-1.0-597.0","0","0","42313","","null","","","null","66","NaN","","","","","","","","","","","","","","",""
"","S2","","html-keyboard-response","429","634222","0.0-1.0-598.0","0","0","42313","","null","","","null","66","","NaN","","","","","","","","","","","","","",""
"","response","","html-keyboard-response","430","634291","0.0-1.0-599.0-0.0","0","0","42313","","67","","","75","66","","","2","66","training","adjacent","FG","6","7","N.jpg","O.jpg","1","1","1","",""
"","feedback","","html-keyboard-response","431","635296","0.0-1.0-600.0-0.0","0","0","42313","","null","","","null","66","","","","","","","","","","","","","","","",""
"","ITI","","html-keyboard-response","432","636302","0.0-1.0-603.0","0","0","42313","","null","","","null","66","","","","","","","","","","","","","","","NaN",""
"","S1","","html-keyboard-response","433","636562","0.0-1.0-605.0","0","0","42313","","null","","","null","67","","","","","","","","","","","","","","","",""
"","ISI","","html-keyboard-response","434","637566","0.0-1.0-606.0","0","0","42313","","null","","","null","67","NaN","","","","","","","","","","","","","","",""
"","S2","","html-keyboard-response","435","637810","0.0-1.0-607.0","0","0","42313","","243","","","68","67","","d","2","67","training","adjacent","DC","4","3","R.jpg","Q.jpg","0","0","1","",""
"","feedback","","html-keyboard-response","436","638814","0.0-1.0-609.0-0.0","0","0","42313","","null","","","null","67","","","","","","","","","","","","","","","",""
"","ITI","","html-keyboard-response","437","639824","0.0-1.0-612.0","0","0","42313","","null","","","null","67","","","","","","","","","","","","","","","NaN",""
"","S1","","html-keyboard-response","438","640079","0.0-1.0-614.0","0","0","42313","","null","","","null","68","","","","","","","","","","","","","","","",""
"","ISI","","html-keyboard-response","439","641089","0.0-1.0-615.0","0","0","42313","","null","","","null","68","NaN","","","","","","","","","","","","","","",""
"","S2","","html-keyboard-response","440","641350","0.0-1.0-616.0","0","0","42313","","null","","","null","68","","NaN","","","","","","","","","","","","","",""
"","response","","html-keyboard-response","441","641515","0.0-1.0-617.0-0.0","0","0","42313","","163","","","68","68","","","2","68","training","adjacent","FE","6","5","N.jpg","P.jpg","0","0","1","",""
"","feedback","","html-keyboard-response","442","642529","0.0-1.0-618.0-0.0","0","0","42313","","null","","","null","68","","","","","","","","","","","","","","","",""
"","ITI","","html-keyboard-response","443","643533","0.0-1.0-621.0","0","0","42313","","null","","","null","68","","","","","","","","","","","","","","","NaN",""
"","S1","","html-keyboard-response","444","643794","0.0-1.0-623.0","0","0","42313","","null","","","null","69","","","","","","","","","","","","","","","",""
"","ISI","","html-keyboard-response","445","644798","0.0-1.0-624.0","0","0","42313","","null","","","null","69","NaN","","","","","","","","","","","","","","",""
"","S2","","html-keyboard-response","446","645056","0.0-1.0-625.0","0","0","42313","","null","","","null","69","","NaN","","","","","","","","","","","","","",""
"","response","","html-keyboard-response","447","645089","0.0-1.0-626.0-0.0","0","0","42313","","31","","","75","69","","","2","69","training","adjacent","FG","6","7","N.jpg","O.jpg","1","1","1","",""
"","feedback","","html-keyboard-response","448","646094","0.0-1.0-627.0-0.0","0","0","42313","","null","","","null","69","","","","","","","","","","","","","","","",""
"","ITI","","html-keyboard-response","449","647103","0.0-1.0-630.0","0","0","42313","","null","","","null","69","","","","","","","","","","","","","","","NaN",""
"","S1","","html-keyboard-response","450","647358","0.0-1.0-632.0","0","0","42313","","null","","","null","70","","","","","","","","","","","","","","","",""
"","ISI","","html-keyboard-response","451","648368","0.0-1.0-633.0","0","0","42313","","null","","","null","70","NaN","","","","","","","","","","","","","","",""
"","S2","","html-keyboard-response","452","648624","0.0-1.0-634.0","0","0","42313","","null","","","null","70","","NaN","","","","","","","","","","","","","",""
"","response","","html-keyboard-response","453","648673","0.0-1.0-635.0-0.0","0","0","42313","","48","","","68","70","","","2","70","training","adjacent","CB","3","2","Q.jpg","M.jpg","0","0","1","",""
"","feedback","","html-keyboard-response","454","649680","0.0-1.0-636.0-0.0","0","0","42313","","null","","","null","70","","","","","","","","","","","","","","","",""
"","ITI","","html-keyboard-response","455","650684","0.0-1.0-639.0","0","0","42313","","null","","","null","70","","","","","","","","","","","","","","","NaN",""
"","S1","","html-keyboard-response","456","650945","0.0-1.0-641.0","0","0","42313","","null","","","null","71","","","","","","","","","","","","","","","",""
"","ISI","","html-keyboard-response","457","651950","0.0-1.0-642.0","0","0","42313","","null","","","null","71","NaN","","","","","","","","","","","","","","",""
"","S2","","html-keyboard-response","458","652205","0.0-1.0-643.0","0","0","42313","","null","","","null","71","","NaN","","","","","","","","","","","","","",""
"","response","","html-keyboard-response","459","652241","0.0-1.0-644.0-0.0","0","0","42313","","34","","","75","71","","","2","71","training","adjacent","EF","5","6","P.jpg","N.jpg","1","1","1","",""
"","feedback","","html-keyboard-response","460","653244","0.0-1.0-645.0-0.0","0","0","42313","","null","","","null","71","","","","","","","","","","","","","","","",""
"","ITI","","html-keyboard-response","461","654254","0.0-1.0-648.0","0","0","42313","","null","","","null","71","","","","","","","","","","","","","","","NaN",""
"","S1","","html-keyboard-response","462","654510","0.0-1.0-650.0","0","0","42313","","null","","","null","72","","","","","","","","","","","","","","","",""
"","ISI","","html-keyboard-response","463","655520","0.0-1.0-651.0","0","0","42313","","null","","","null","72","NaN","","","","","","","","","","","","","","",""
"","S2","","html-keyboard-response","464","655775","0.0-1.0-652.0","0","0","42313","","null","","","null","72","","NaN","","","","","","","","","","","","","",""
"","response","","html-keyboard-response","465","655808","0.0-1.0-653.0-0.0","0","0","42313","","32","","","68","72","","","2","72","training","adjacent","DE","4","5","R.jpg","P.jpg","0","1","0","",""
"","feedback","","html-keyboard-response","466","656814","0.0-1.0-654.0-0.0","0","0","42313","","null","","","null","72","","","","","","","","","","","","","","","",""
"","time_out","","html-keyboard-response","467","658823","0.0-1.0-656.0-0.0","0","0","42313","","null","","","null","72","","","","","","","","","","","","","","","",""
"","ITI","","html-keyboard-response","468","659832","0.0-1.0-657.0","0","0","42313","","null","","","null","72","","","","","","","","","","","","","","","NaN",""
"","S1","","html-keyboard-response","469","660094","0.0-1.0-659.0","0","0","42313","","null","","","null","73","","","","","","","","","","","","","","","",""
"","ISI","","html-keyboard-response","470","661104","0.0-1.0-660.0","0","0","42313","","null","","","null","73","NaN","","","","","","","","","","","","","","",""
"","S2","","html-keyboard-response","471","661359","0.0-1.0-661.0","0","0","42313","","null","","","null","73","","NaN","","","","","","","","","","","","","",""
"","response","","html-keyboard-response","472","661370","0.0-1.0-662.0-0.0","0","0","42313","","9","","","68","73","","","2","73","training","adjacent","GF","7","6","O.jpg","N.jpg","0","0","1","",""
"","feedback","","html-keyboard-response","473","662375","0.0-1.0-663.0-0.0","0","0","42313","","null","","","null","73","","","","","","","","","","","","","","","",""
"","ITI","","html-keyboard-response","474","663385","0.0-1.0-666.0","0","0","42313","","null","","","null","73","","","","","","","","","","","","","","","NaN",""
"","S1","","html-keyboard-response","475","663646","0.0-1.0-668.0","0","0","42313","","null","","","null","74","","","","","","","","","","","","","","","",""
"","ISI","","html-keyboard-response","476","664653","0.0-1.0-669.0","0","0","42313","","888","","","75","74","k","","","","","","","","","","","","","","",""
"","S2","","html-keyboard-response","477","664912","0.0-1.0-670.0","0","0","42313","","null","","","null","74","","NaN","","","","","","","","","","","","","",""
"","response","","html-keyboard-response","478","665473","0.0-1.0-671.0-0.0","0","0","42313","","561","","","75","74","","","2","74","training","adjacent","GF","7","6","O.jpg","N.jpg","1","0","0","",""
"","feedback","","html-keyboard-response","479","666479","0.0-1.0-672.0-0.0","0","0","42313","","null","","","null","74","","","","","","","","","","","","","","","",""
"","time_out","","html-keyboard-response","480","668488","0.0-1.0-674.0-0.0","0","0","42313","","null","","","null","74","","","","","","","","","","","","","","","",""
"","ITI","","html-keyboard-response","481","669496","0.0-1.0-675.0","0","0","42313","","null","","","null","74","","","","","","","","","","","","","","","NaN",""
"","S1","","html-keyboard-response","482","669759","0.0-1.0-677.0","0","0","42313","","null","","","null","75","","","","","","","","","","","","","","","",""
"","ISI","","html-keyboard-response","483","670768","0.0-1.0-678.0","0","0","42313","","null","","","null","75","NaN","","","","","","","","","","","","","","",""
"","S2","","html-keyboard-response","484","671024","0.0-1.0-679.0","0","0","42313","","254","","","68","75","","d","2","75","training","adjacent","ED","5","4","P.jpg","R.jpg","0","0","1","",""
"","feedback","","html-keyboard-response","485","672028","0.0-1.0-681.0-0.0","0","0","42313","","null","","","null","75","","","","","","","","","","","","","","","",""
"","ITI","","html-keyboard-response","486","673038","0.0-1.0-684.0","0","0","42313","","null","","","null","75","","","","","","","","","","","","","","","NaN",""
"","S1","","html-keyboard-response","487","673294","0.0-1.0-686.0","0","0","42313","","null","","","null","76","","","","","","","","","","","","","","","",""
"","ISI","","html-keyboard-response","488","674304","0.0-1.0-687.0","0","0","42313","","null","","","null","76","NaN","","","","","","","","","","","","","","",""
"","S2","","html-keyboard-response","489","674565","0.0-1.0-688.0","0","0","42313","","null","","","null","76","","NaN","","","","","","","","","","","","","",""
"","response","","html-keyboard-response","490","674570","0.0-1.0-689.0-0.0","0","0","42313","","3","","","68","76","","","2","76","training","adjacent","GF","7","6","O.jpg","N.jpg","0","0","1","",""
"","feedback","","html-keyboard-response","491","675580","0.0-1.0-690.0-0.0","0","0","42313","","null","","","null","76","","","","","","","","","","","","","","","",""
"","ITI","","html-keyboard-response","492","676591","0.0-1.0-693.0","0","0","42313","","null","","","null","76","","","","","","","","","","","","","","","NaN",""
"","S1","","html-keyboard-response","493","676846","0.0-1.0-695.0","0","0","42313","","null","","","null","77","","","","","","","","","","","","","","","",""
"","ISI","","html-keyboard-response","494","677856","0.0-1.0-696.0","0","0","42313","","null","","","null","77","NaN","","","","","","","","","","","","","","",""
"","S2","","html-keyboard-response","495","678117","0.0-1.0-697.0","0","0","42313","","null","","","null","77","","NaN","","","","","","","","","","","","","",""
"","response","","html-keyboard-response","496","678567","0.0-1.0-698.0-0.0","0","0","42313","","449","","","75","77","","","2","77","training","adjacent","BC","2","3","M.jpg","Q.jpg","1","1","1","",""
"","feedback","","html-keyboard-response","497","679575","0.0-1.0-699.0-0.0","0","0","42313","","null","","","null","77","","","","","","","","","","","","","","","",""
"","ITI","","html-keyboard-response","498","680579","0.0-1.0-702.0","0","0","42313","","null","","","null","77","","","","","","","","","","","","","","","NaN",""
"","S1","","html-keyboard-response","499","680835","0.0-1.0-704.0","0","0","42313","","null","","","null","78","","","","","","","","","","","","","","","",""
"","ISI","","html-keyboard-response","500","681844","0.0-1.0-705.0","0","0","42313","","null","","","null","78","NaN","","","","","","","","","","","","","","",""
"","S2","","html-keyboard-response","501","682100","0.0-1.0-706.0","0","0","42313","","null","","","null","78","","NaN","","","","","","","","","","","","","",""
"","response","","html-keyboard-response","502","682265","0.0-1.0-707.0-0.0","0","0","42313","","164","","","75","78","","","2","78","training","adjacent","DC","4","3","R.jpg","Q.jpg","1","0","0","",""
"","feedback","","html-keyboard-response","503","683278","0.0-1.0-708.0-0.0","0","0","42313","","null","","","null","78","","","","","","","","","","","","","","","",""
"","time_out","","html-keyboard-response","504","685286","0.0-1.0-710.0-0.0","0","0","42313","","null","","","null","78","","","","","","","","","","","","","","","",""
"","ITI","","html-keyboard-response","505","686291","0.0-1.0-711.0","0","0","42313","","null","","","null","78","","","","","","","","","","","","","","","NaN",""
"","S1","","html-keyboard-response","506","686551","0.0-1.0-713.0","0","0","42313","","null","","","null","79","","","","","","","","","","","","","","","",""
"","ISI","","html-keyboard-response","507","687556","0.0-1.0-714.0","0","0","42313","","null","","","null","79","NaN","","","","","","","","","","","","","","",""
"","S2","","html-keyboard-response","508","687811","0.0-1.0-715.0","0","0","42313","","null","","","null","79","","NaN","","","","","","","","","","","","","",""
"","response","","html-keyboard-response","509","687848","0.0-1.0-716.0-0.0","0","0","42313","","35","","","75","79","","","2","79","training","adjacent","BA","2","1","M.jpg","L.jpg","1","0","0","",""
"","feedback","","html-keyboard-response","510","688851","0.0-1.0-717.0-0.0","0","0","42313","","null","","","null","79","","","","","","","","","","","","","","","",""
"","time_out","","html-keyboard-response","511","690859","0.0-1.0-719.0-0.0","0","0","42313","","null","","","null","79","","","","","","","","","","","","","","","",""
"","ITI","","html-keyboard-response","512","691869","0.0-1.0-720.0","0","0","42313","","null","","","null","79","","","","","","","","","","","","","","","NaN",""
"","S1","","html-keyboard-response","513","692124","0.0-1.0-722.0","0","0","42313","","null","","","null","80","","","","","","","","","","","","","","","",""
"","ISI","","html-keyboard-response","514","693135","0.0-1.0-723.0","0","0","42313","","201","","","68","80","d","","","","","","","","","","","","","","",""
"","S2","","html-keyboard-response","515","693390","0.0-1.0-724.0","0","0","42313","","null","","","null","80","","NaN","","","","","","","","","","","","","",""
"","response","","html-keyboard-response","516","693577","0.0-1.0-725.0-0.0","0","0","42313","","185","","","68","80","","","2","80","training","adjacent","ED","5","4","P.jpg","R.jpg","0","0","1","",""
"","feedback","","html-keyboard-response","517","694588","0.0-1.0-726.0-0.0","0","0","42313","","null","","","null","80","","","","","","","","","","","","","","","",""
"","ITI","","html-keyboard-response","518","695595","0.0-1.0-729.0","0","0","42313","","null","","","null","80","","","","","","","","","","","","","","","NaN",""
"","S1","","html-keyboard-response","519","695851","0.0-1.0-731.0","0","0","42313","","null","","","null","81","","","","","","","","","","","","","","","",""
"","ISI","","html-keyboard-response","520","696861","0.0-1.0-732.0","0","0","42313","","null","","","null","81","NaN","","","","","","","","","","","","","","",""
"","S2","","html-keyboard-response","521","697117","0.0-1.0-733.0","0","0","42313","","null","","","null","81","","NaN","","","","","","","","","","","","","",""
"","response","","html-keyboard-response","522","697263","0.0-1.0-734.0-0.0","0","0","42313","","145","","","75","81","","","2","81","training","adjacent","CD","3","4","Q.jpg","R.jpg","1","1","1","",""
"","feedback","","html-keyboard-response","523","698271","0.0-1.0-735.0-0.0","0","0","42313","","null","","","null","81","","","","","","","","","","","","","","","",""
"","ITI","","html-keyboard-response","524","699276","0.0-1.0-738.0","0","0","42313","","null","","","null","81","","","","","","","","","","","","","","","NaN",""
"","S1","","html-keyboard-response","525","699531","0.0-1.0-740.0","0","0","42313","","null","","","null","82","","","","","","","","","","","","","","","",""
"","ISI","","html-keyboard-response","526","700542","0.0-1.0-741.0","0","0","42313","","null","","","null","82","NaN","","","","","","","","","","","","","","",""
"","S2","","html-keyboard-response","527","700783","0.0-1.0-742.0","0","0","42313","","240","","","68","82","","d","2","82","training","adjacent","AB","1","2","L.jpg","M.jpg","0","1","0","",""
"","feedback","","html-keyboard-response","528","701789","0.0-1.0-744.0-0.0","0","0","42313","","null","","","null","82","","","","","","","","","","","","","","","",""
"","time_out","","html-keyboard-response","529","703798","0.0-1.0-746.0-0.0","0","0","42313","","null","","","null","82","","","","","","","","","","","","","","","",""
"","ITI","","html-keyboard-response","530","704802","0.0-1.0-747.0","0","0","42313","","null","","","null","82","","","","","","","","","","","","","","","NaN",""
"","S1","","html-keyboard-response","531","705062","0.0-1.0-749.0","0","0","42313","","null","","","null","83","","","","","","","","","","","","","","","",""
"","ISI","","html-keyboard-response","532","706068","0.0-1.0-750.0","0","0","42313","","null","","","null","83","NaN","","","","","","","","","","","","","","",""
"","S2","","html-keyboard-response","533","706323","0.0-1.0-751.0","0","0","42313","","null","","","null","83","","NaN","","","","","","","","","","","","","",""
"","response","","html-keyboard-response","534","706783","0.0-1.0-752.0-0.0","0","0","42313","","458","","","75","83","","","2","83","training","adjacent","CD","3","4","Q.jpg","R.jpg","1","1","1","",""
"","feedback","","html-keyboard-response","535","707788","0.0-1.0-753.0-0.0","0","0","42313","","null","","","null","83","","","","","","","","","","","","","","","",""
"","ITI","","html-keyboard-response","536","708796","0.0-1.0-756.0","0","0","42313","","null","","","null","83","","","","","","","","","","","","","","","NaN",""
"","S1","","html-keyboard-response","537","709051","0.0-1.0-758.0","0","0","42313","","null","","","null","84","","","","","","","","","","","","","","","",""
"","ISI","","html-keyboard-response","538","710061","0.0-1.0-759.0","0","0","42313","","null","","","null","84","NaN","","","","","","","","","","","","","","",""
"","S2","","html-keyboard-response","539","710318","0.0-1.0-760.0","0","0","42313","","null","","","null","84","","NaN","","","","","","","","","","","","","",""
"","response","","html-keyboard-response","540","710848","0.0-1.0-761.0-0.0","0","0","42313","","528","","","75","84","","","2","84","training","adjacent","FE","6","5","N.jpg","P.jpg","1","0","0","",""
"","feedback","","html-keyboard-response","541","711861","0.0-1.0-762.0-0.0","0","0","42313","","null","","","null","84","","","","","","","","","","","","","","","",""
"","time_out","","html-keyboard-response","542","713869","0.0-1.0-764.0-0.0","0","0","42313","","null","","","null","84","","","","","","","","","","","","","","","",""
"","ITI","","html-keyboard-response","543","714875","0.0-1.0-765.0","0","0","42313","","null","","","null","84","","","","","","","","","","","","","","","NaN",""
"","S1","","html-keyboard-response","544","715134","0.0-1.0-767.0","0","0","42313","","null","","","null","85","","","","","","","","","","","","","","","",""
"","ISI","","html-keyboard-response","545","716139","0.0-1.0-768.0","0","0","42313","","null","","","null","85","NaN","","","","","","","","","","","","","","",""
"","S2","","html-keyboard-response","546","716394","0.0-1.0-769.0","0","0","42313","","null","","","null","85","","NaN","","","","","","","","","","","","","",""
"","response","","html-keyboard-response","547","716470","0.0-1.0-770.0-0.0","0","0","42313","","75","","","68","85","","","2","85","training","adjacent","ED","5","4","P.jpg","R.jpg","0","0","1","",""
"","feedback","","html-keyboard-response","548","717474","0.0-1.0-771.0-0.0","0","0","42313","","null","","","null","85","","","","","","","","","","","","","","","",""
"","ITI","","html-keyboard-response","549","718484","0.0-1.0-774.0","0","0","42313","","null","","","null","85","","","","","","","","","","","","","","","NaN",""
"","S1","","html-keyboard-response","550","718741","0.0-1.0-776.0","0","0","42313","","null","","","null","86","","","","","","","","","","","","","","","",""
"","ISI","","html-keyboard-response","551","719749","0.0-1.0-777.0","0","0","42313","","null","","","null","86","NaN","","","","","","","","","","","","","","",""
"","S2","","html-keyboard-response","552","719992","0.0-1.0-778.0","0","0","42313","","241","","","68","86","","d","2","86","training","adjacent","FE","6","5","N.jpg","P.jpg","0","0","1","",""
"","feedback","","html-keyboard-response","553","720997","0.0-1.0-780.0-0.0","0","0","42313","","null","","","null","86","","","","","","","","","","","","","","","",""
"","ITI","","html-keyboard-response","554","722001","0.0-1.0-783.0","0","0","42313","","null","","","null","86","","","","","","","","","","","","","","","NaN",""
"","S1","","html-keyboard-response","555","722259","0.0-1.0-785.0","0","0","42313","","null","","","null","87","","","","","","","","","","","","","","","",""
"","ISI","","html-keyboard-response","556","723267","0.0-1.0-786.0","0","0","42313","","null","","","null","87","NaN","","","","","","","","","","","","","","",""
"","S2","","html-keyboard-response","557","723494","0.0-1.0-787.0","0","0","42313","","226","","","75","87","","k","2","87","training","adjacent","CB","3","2","Q.jpg","M.jpg","1","0","0","",""
"","feedback","","html-keyboard-response","558","724498","0.0-1.0-789.0-0.0","0","0","42313","","null","","","null","87","","","","","","","","","","","","","","","",""
"","time_out","","html-keyboard-response","559","726506","0.0-1.0-791.0-0.0","0","0","42313","","null","","","null","87","","","","","","","","","","","","","","","",""
"","ITI","","html-keyboard-response","560","727516","0.0-1.0-792.0","0","0","42313","","null","","","null","87","","","","","","","","","","","","","","","NaN",""
"","S1","","html-keyboard-response","561","727771","0.0-1.0-794.0","0","0","42313","","null","","","null","88","","","","","","","","","","","","","","","",""
"","ISI","","html-keyboard-response","562","728782","0.0-1.0-795.0","0","0","42313","","202","","","68","88","d","","","","","","","","","","","","","","",""
"","S2","","html-keyboard-response","563","729039","0.0-1.0-796.0","0","0","42313","","256","","","68","88","","d","2","88","training","adjacent","EF","5","6","P.jpg","N.jpg","0","1","0","",""
"","feedback","","html-keyboard-response","564","730041","0.0-1.0-798.0-0.0","0","0","42313","","null","","","null","88","","","","","","","","","","","","","","","",""
"","time_out","","html-keyboard-response","565","732049","0.0-1.0-800.0-0.0","0","0","42313","","null","","","null","88","","","","","","","","","","","","","","","",""
"","ITI","","html-keyboard-response","566","733061","0.0-1.0-801.0","0","0","42313","","null","","","null","88","","","","","","","","","","","","","","","NaN",""
"","S1","","html-keyboard-response","567","733321","0.0-1.0-803.0","0","0","42313","","null","","","null","89","","","","","","","","","","","","","","","",""
"","ISI","","html-keyboard-response","568","734331","0.0-1.0-804.0","0","0","42313","","null","","","null","89","NaN","","","","","","","","","","","","","","",""
"","S2","","html-keyboard-response","569","734586","0.0-1.0-805.0","0","0","42313","","null","","","null","89","","NaN","","","","","","","","","","","","","",""
"","response","","html-keyboard-response","570","734821","0.0-1.0-806.0-0.0","0","0","42313","","233","","","68","89","","","2","89","training","adjacent","BA","2","1","M.jpg","L.jpg","0","0","1","",""
"","feedback","","html-keyboard-response","571","735828","0.0-1.0-807.0-0.0","0","0","42313","","null","","","null","89","","","","","","","","","","","","","","","",""
"","ITI","","html-keyboard-response","572","736833","0.0-1.0-810.0","0","0","42313","","null","","","null","89","","","","","","","","","","","","","","","NaN",""
"","S1","","html-keyboard-response","573","737090","0.0-1.0-812.0","0","0","42313","","null","","","null","90","","","","","","","","","","","","","","","",""
"","ISI","","html-keyboard-response","574","738097","0.0-1.0-813.0","0","0","42313","","null","","","null","90","NaN","","","","","","","","","","","","","","",""
"","S2","","html-keyboard-response","575","738353","0.0-1.0-814.0","0","0","42313","","null","","","null","90","","NaN","","","","","","","","","","","","","",""
"","response","","html-keyboard-response","576","738357","0.0-1.0-815.0-0.0","0","0","42313","","2","","","75","90","","","2","90","training","adjacent","GF","7","6","O.jpg","N.jpg","1","0","0","",""
"","feedback","","html-keyboard-response","577","739363","0.0-1.0-816.0-0.0","0","0","42313","","null","","","null","90","","","","","","","","","","","","","","","",""
"","time_out","","html-keyboard-response","578","741372","0.0-1.0-818.0-0.0","0","0","42313","","null","","","null","90","","","","","","","","","","","","","","","",""
"","ITI","","html-keyboard-response","579","742378","0.0-1.0-819.0","0","0","42313","","null","","","null","90","","","","","","","","","","","","","","","NaN",""
"","S1","","html-keyboard-response","580","742637","0.0-1.0-821.0","0","0","42313","","null","","","null","91","","","","","","","","","","","","","","","",""
"","ISI","","html-keyboard-response","581","743641","0.0-1.0-822.0","0","0","42313","","null","","","null","91","NaN","","","","","","","","","","","","","","",""
