"success","ttype","start_time","trial_type","trial_index","time_elapsed","internal_node_id","warning","missed_checkup","PID","view_history","rt","responses","repeat_instructions","key_press","index","keypress_isi","keypress_S2","block","trial_num","phase","group_type","pair_type","S1_stim","S2_stim","S1_img","S2_img","S1_chosen","S1_higher","accuracy","keypress_iti","total_bonus_tally"
"true","full_screen","d08052022hr1418","fullscreen","0","3421","0.0-0.0","0","0","17466","","","","","","","","","","","","","","","","","","","","","",""
"","instructions","","instructions","1","24421","0.0-1.0-0.0-0.0","0","0","17466","[{""page_index"":0,""viewing_time"":2420},{""page_index"":1,""viewing_time"":1040},{""page_index"":2,""viewing_time"":886},{""page_index"":3,""viewing_time"":1338},{""page_index"":2,""viewing_time"":550},{""page_index"":1,""viewing_time"":12988},{""page_index"":2,""viewing_time"":604},{""page_index"":3,""viewing_time"":1171}]","20998","","","","","","","","","","","","","","","","","","","",""
"","comprehension_check","","survey-multi-choice","2","33177","0.0-1.0-0.0-1.0","0","0","17466","","8752","{""Q0"":""True"",""Q1"":""K"",""Q2"":""Once the second image appears and while the screen 'MAKE A CHOICE' is shown"",""Q3"":""Green mark"",""Q4"":""either D or K""}","1","","","","","","","","","","","","","","","","","",""
"","missed_instruction_checkup","","html-keyboard-response","3","34941","0.0-1.0-0.0-2.0-0.0","0","1","17466","","1757","","","32","","","","","","","","","","","","","","","","",""
"","instructions","","instructions","4","38374","0.0-1.0-0.1-0.1","0","0","17466","[{""page_index"":0,""viewing_time"":882},{""page_index"":1,""viewing_time"":636},{""page_index"":2,""viewing_time"":872},{""page_index"":3,""viewing_time"":1041}]","3432","","","","","","","","","","","","","","","","","","","",""
"","comprehension_check","","survey-multi-choice","5","51215","0.0-1.0-0.1-1.1","0","0","17466","","12835","{""Q0"":""True"",""Q1"":""K"",""Q2"":""Once the second image appears and while the screen 'MAKE A CHOICE' is shown"",""Q3"":""Green mark"",""Q4"":""either D or K""}","1","","","","","","","","","","","","","","","","","",""
"","missed_instruction_checkup","","html-keyboard-response","6","53093","0.0-1.0-0.1-2.1-0.1","0","1","17466","","1871","","","32","","","","","","","","","","","","","","","","",""
"","instructions","","instructions","7","65185","0.0-1.0-0.2-0.2","0","0","17466","[{""page_index"":0,""viewing_time"":1822},{""page_index"":1,""viewing_time"":1437},{""page_index"":2,""viewing_time"":6859},{""page_index"":3,""viewing_time"":1972}]","12091","","","","","","","","","","","","","","","","","","","",""
"","comprehension_check","","survey-multi-choice","8","82765","0.0-1.0-0.2-1.2","0","0","17466","","17577","{""Q0"":""True"",""Q1"":""D"",""Q2"":""Once the second image appears and while the screen 'MAKE A CHOICE' is shown"",""Q3"":""Green mark"",""Q4"":""either D or K""}","0","","","","","","","","","","","","","","","","","",""
"","start_exp","","html-keyboard-response","9","89021","0.0-1.0-1.0","0","0","17466","","6250","","","32","","","","","","","","","","","","","","","","",""
"","S1","","html-keyboard-response","10","89276","0.0-1.0-2.0","0","0","17466","","null","","","null","0","","","","","","","","","","","","","","","",""
"","ISI","","html-keyboard-response","11","91290","0.0-1.0-3.0","0","0","17466","","null","","","null","0","NaN","","","","","","","","","","","","","","",""
"","S2","","html-keyboard-response","12","91555","0.0-1.0-4.0","0","0","17466","","null","","","null","0","","NaN","","","","","","","","","","","","","",""
"","response","","html-keyboard-response","13","92860","0.0-1.0-5.0-0.0","0","0","17466","","1303","","","75","0","","","1","0","training","adjacent","GF","7","6","N.jpg","Q.jpg","0","0","1","",""
"","feedback","","html-keyboard-response","14","93863","0.0-1.0-6.0-0.0","0","0","17466","","null","","","null","0","","","","","","","","","","","","","","","",""
"","ITI","","html-keyboard-response","15","94868","0.0-1.0-9.0","0","0","17466","","null","","","null","0","","","","","","","","","","","","","","","NaN",""
"","S1","","html-keyboard-response","16","95130","0.0-1.0-11.0","0","0","17466","","null","","","null","1","","","","","","","","","","","","","","","",""
"","ISI","","html-keyboard-response","17","97133","0.0-1.0-12.0","0","0","17466","","null","","","null","1","NaN","","","","","","","","","","","","","","",""
"","S2","","html-keyboard-response","18","97386","0.0-1.0-13.0","0","0","17466","","null","","","null","1","","NaN","","","","","","","","","","","","","",""
"","response","","html-keyboard-response","19","98460","0.0-1.0-14.0-0.0","0","0","17466","","1073","","","75","1","","","1","1","training","adjacent","FE","6","5","Q.jpg","L.jpg","0","0","1","",""
"","feedback","","html-keyboard-response","20","99463","0.0-1.0-15.0-0.0","0","0","17466","","null","","","null","1","","","","","","","","","","","","","","","",""
"","ITI","","html-keyboard-response","21","100466","0.0-1.0-18.0","0","0","17466","","null","","","null","1","","","","","","","","","","","","","","","NaN",""
"","S1","","html-keyboard-response","22","100723","0.0-1.0-20.0","0","0","17466","","null","","","null","2","","","","","","","","","","","","","","","",""
"","ISI","","html-keyboard-response","23","102725","0.0-1.0-21.0","0","0","17466","","null","","","null","2","NaN","","","","","","","","","","","","","","",""
"","S2","","html-keyboard-response","24","102980","0.0-1.0-22.0","0","0","17466","","null","","","null","2","","NaN","","","","","","","","","","","","","",""
"","response","","html-keyboard-response","25","103284","0.0-1.0-23.0-0.0","0","0","17466","","301","","","75","2","","","1","2","training","adjacent","GF","7","6","N.jpg","Q.jpg","0","0","1","",""
"","feedback","","html-keyboard-response","26","104299","0.0-1.0-24.0-0.0","0","0","17466","","null","","","null","2","","","","","","","","","","","","","","","",""
"","ITI","","html-keyboard-response","27","105306","0.0-1.0-27.0","0","0","17466","","null","","","null","2","","","","","","","","","","","","","","","NaN",""
"","S1","","html-keyboard-response","28","105569","0.0-1.0-29.0","0","0","17466","","null","","","null","3","","","","","","","","","","","","","","","",""
"","ISI","","html-keyboard-response","29","107584","0.0-1.0-30.0","0","0","17466","","null","","","null","3","NaN","","","","","","","","","","","","","","",""
"","S2","","html-keyboard-response","30","107836","0.0-1.0-31.0","0","0","17466","","null","","","null","3","","NaN","","","","","","","","","","","","","",""
"","response","","html-keyboard-response","31","108620","0.0-1.0-32.0-0.0","0","0","17466","","782","","","75","3","","","1","3","training","adjacent","AB","1","2","O.jpg","P.jpg","0","1","0","",""
"","feedback","","html-keyboard-response","32","109633","0.0-1.0-33.0-0.0","0","0","17466","","null","","","null","3","","","","","","","","","","","","","","","",""
"","time_out","","html-keyboard-response","33","111642","0.0-1.0-35.0-0.0","0","0","17466","","null","","","null","3","","","","","","","","","","","","","","","",""
"","ITI","","html-keyboard-response","34","112653","0.0-1.0-36.0","0","0","17466","","null","","","null","3","","","","","","","","","","","","","","","NaN",""
"","S1","","html-keyboard-response","35","112914","0.0-1.0-38.0","0","0","17466","","null","","","null","4","","","","","","","","","","","","","","","",""
"","ISI","","html-keyboard-response","36","114916","0.0-1.0-39.0","0","0","17466","","null","","","null","4","NaN","","","","","","","","","","","","","","",""
"","S2","","html-keyboard-response","37","115180","0.0-1.0-40.0","0","0","17466","","null","","","null","4","","NaN","","","","","","","","","","","","","",""
"","response","","html-keyboard-response","38","115700","0.0-1.0-41.0-0.0","0","0","17466","","518","","","68","4","","","1","4","training","adjacent","DE","4","5","M.jpg","L.jpg","1","1","1","",""
"","feedback","","html-keyboard-response","39","116714","0.0-1.0-42.0-0.0","0","0","17466","","null","","","null","4","","","","","","","","","","","","","","","",""
"","ITI","","html-keyboard-response","40","117716","0.0-1.0-45.0","0","0","17466","","null","","","null","4","","","","","","","","","","","","","","","NaN",""
"","S1","","html-keyboard-response","41","117968","0.0-1.0-47.0","0","0","17466","","null","","","null","5","","","","","","","","","","","","","","","",""
"","ISI","","html-keyboard-response","42","119981","0.0-1.0-48.0","0","0","17466","","null","","","null","5","NaN","","","","","","","","","","","","","","",""
"","S2","","html-keyboard-response","43","120246","0.0-1.0-49.0","0","0","17466","","null","","","null","5","","NaN","","","","","","","","","","","","","",""
"","response","","html-keyboard-response","44","121020","0.0-1.0-50.0-0.0","0","0","17466","","773","","","68","5","","","1","5","training","adjacent","CD","3","4","R.jpg","M.jpg","1","1","1","",""
"","feedback","","html-keyboard-response","45","122028","0.0-1.0-51.0-0.0","0","0","17466","","null","","","null","5","","","","","","","","","","","","","","","",""
"","ITI","","html-keyboard-response","46","123034","0.0-1.0-54.0","0","0","17466","","null","","","null","5","","","","","","","","","","","","","","","NaN",""
"","S1","","html-keyboard-response","47","123296","0.0-1.0-56.0","0","0","17466","","null","","","null","6","","","","","","","","","","","","","","","",""
"","ISI","","html-keyboard-response","48","125303","0.0-1.0-57.0","0","0","17466","","null","","","null","6","NaN","","","","","","","","","","","","","","",""
"","S2","","html-keyboard-response","49","125566","0.0-1.0-58.0","0","0","17466","","null","","","null","6","","NaN","","","","","","","","","","","","","",""
"","response","","html-keyboard-response","50","126229","0.0-1.0-59.0-0.0","0","0","17466","","661","","","68","6","","","1","6","training","adjacent","CB","3","2","R.jpg","P.jpg","1","0","0","",""
"","feedback","","html-keyboard-response","51","127238","0.0-1.0-60.0-0.0","0","0","17466","","null","","","null","6","","","","","","","","","","","","","","","",""
"","time_out","","html-keyboard-response","52","129246","0.0-1.0-62.0-0.0","0","0","17466","","null","","","null","6","","","","","","","","","","","","","","","",""
"","ITI","","html-keyboard-response","53","130251","0.0-1.0-63.0","0","0","17466","","null","","","null","6","","","","","","","","","","","","","","","NaN",""
"","S1","","html-keyboard-response","54","130513","0.0-1.0-65.0","0","0","17466","","null","","","null","7","","","","","","","","","","","","","","","",""
"","ISI","","html-keyboard-response","55","132516","0.0-1.0-66.0","0","0","17466","","null","","","null","7","NaN","","","","","","","","","","","","","","",""
"","S2","","html-keyboard-response","56","132779","0.0-1.0-67.0","0","0","17466","","null","","","null","7","","NaN","","","","","","","","","","","","","",""
"","response","","html-keyboard-response","57","133501","0.0-1.0-68.0-0.0","0","0","17466","","720","","","68","7","","","1","7","training","adjacent","ED","5","4","L.jpg","M.jpg","1","0","0","",""
"","feedback","","html-keyboard-response","58","134518","0.0-1.0-69.0-0.0","0","0","17466","","null","","","null","7","","","","","","","","","","","","","","","",""
"","time_out","","html-keyboard-response","59","136531","0.0-1.0-71.0-0.0","0","0","17466","","null","","","null","7","","","","","","","","","","","","","","","",""
"","ITI","","html-keyboard-response","60","137536","0.0-1.0-72.0","0","0","17466","","null","","","null","7","","","","","","","","","","","","","","","NaN",""
"","S1","","html-keyboard-response","61","137801","0.0-1.0-74.0","0","0","17466","","null","","","null","8","","","","","","","","","","","","","","","",""
"","ISI","","html-keyboard-response","62","139819","0.0-1.0-75.0","0","0","17466","","null","","","null","8","NaN","","","","","","","","","","","","","","",""
"","S2","","html-keyboard-response","63","140073","0.0-1.0-76.0","0","0","17466","","null","","","null","8","","NaN","","","","","","","","","","","","","",""
"","response","","html-keyboard-response","64","140493","0.0-1.0-77.0-0.0","0","0","17466","","417","","","75","8","","","1","8","training","adjacent","BC","2","3","P.jpg","R.jpg","0","1","0","",""
"","feedback","","html-keyboard-response","65","141496","0.0-1.0-78.0-0.0","0","0","17466","","null","","","null","8","","","","","","","","","","","","","","","",""
"","time_out","","html-keyboard-response","66","143513","0.0-1.0-80.0-0.0","0","0","17466","","null","","","null","8","","","","","","","","","","","","","","","",""
"","ITI","","html-keyboard-response","67","144517","0.0-1.0-81.0","0","0","17466","","null","","","null","8","","","","","","","","","","","","","","","NaN",""
"","S1","","html-keyboard-response","68","144781","0.0-1.0-83.0","0","0","17466","","null","","","null","9","","","","","","","","","","","","","","","",""
"","ISI","","html-keyboard-response","69","146790","0.0-1.0-84.0","0","0","17466","","null","","","null","9","NaN","","","","","","","","","","","","","","",""
"","S2","","html-keyboard-response","70","147054","0.0-1.0-85.0","0","0","17466","","null","","","null","9","","NaN","","","","","","","","","","","","","",""
"","response","","html-keyboard-response","71","147108","0.0-1.0-86.0-0.0","0","0","17466","","53","","","68","9","","","1","9","training","adjacent","FG","6","7","Q.jpg","N.jpg","1","1","1","",""
"","feedback","","html-keyboard-response","72","148111","0.0-1.0-87.0-0.0","0","0","17466","","null","","","null","9","","","","","","","","","","","","","","","",""
"","ITI","","html-keyboard-response","73","149115","0.0-1.0-90.0","0","0","17466","","null","","","null","9","","","","","","","","","","","","","","","NaN",""
"","S1","","html-keyboard-response","74","149380","0.0-1.0-92.0","0","0","17466","","null","","","null","10","","","","","","","","","","","","","","","",""
"","ISI","","html-keyboard-response","75","151398","0.0-1.0-93.0","0","0","17466","","null","","","null","10","NaN","","","","","","","","","","","","","","",""
"","S2","","html-keyboard-response","76","151661","0.0-1.0-94.0","0","0","17466","","null","","","null","10","","NaN","","","","","","","","","","","","","",""
"","response","","html-keyboard-response","77","152244","0.0-1.0-95.0-0.0","0","0","17466","","581","","","68","10","","","1","10","training","adjacent","ED","5","4","L.jpg","M.jpg","1","0","0","",""
"","feedback","","html-keyboard-response","78","153258","0.0-1.0-96.0-0.0","0","0","17466","","null","","","null","10","","","","","","","","","","","","","","","",""
"","time_out","","html-keyboard-response","79","155272","0.0-1.0-98.0-0.0","0","0","17466","","null","","","null","10","","","","","","","","","","","","","","","",""
"","ITI","","html-keyboard-response","80","156277","0.0-1.0-99.0","0","0","17466","","null","","","null","10","","","","","","","","","","","","","","","NaN",""
"","S1","","html-keyboard-response","81","156541","0.0-1.0-101.0","0","0","17466","","null","","","null","11","","","","","","","","","","","","","","","",""
"","ISI","","html-keyboard-response","82","158555","0.0-1.0-102.0","0","0","17466","","null","","","null","11","NaN","","","","","","","","","","","","","","",""
"","S2","","html-keyboard-response","83","158816","0.0-1.0-103.0","0","0","17466","","null","","","null","11","","NaN","","","","","","","","","","","","","",""
"","response","","html-keyboard-response","84","159516","0.0-1.0-104.0-0.0","0","0","17466","","698","","","68","11","","","1","11","training","adjacent","CD","3","4","R.jpg","M.jpg","1","1","1","",""
"","feedback","","html-keyboard-response","85","160521","0.0-1.0-105.0-0.0","0","0","17466","","null","","","null","11","","","","","","","","","","","","","","","",""
"","ITI","","html-keyboard-response","86","161532","0.0-1.0-108.0","0","0","17466","","null","","","null","11","","","","","","","","","","","","","","","NaN",""
"","S1","","html-keyboard-response","87","161786","0.0-1.0-110.0","0","0","17466","","null","","","null","12","","","","","","","","","","","","","","","",""
"","ISI","","html-keyboard-response","88","163788","0.0-1.0-111.0","0","0","17466","","null","","","null","12","NaN","","","","","","","","","","","","","","",""
"","S2","","html-keyboard-response","89","164047","0.0-1.0-112.0","0","0","17466","","null","","","null","12","","NaN","","","","","","","","","","","","","",""
"","response","","html-keyboard-response","90","164565","0.0-1.0-113.0-0.0","0","0","17466","","516","","","68","12","","","1","12","training","adjacent","DE","4","5","M.jpg","L.jpg","1","1","1","",""
"","feedback","","html-keyboard-response","91","165573","0.0-1.0-114.0-0.0","0","0","17466","","null","","","null","12","","","","","","","","","","","","","","","",""
"","ITI","","html-keyboard-response","92","166575","0.0-1.0-117.0","0","0","17466","","null","","","null","12","","","","","","","","","","","","","","","NaN",""
"","S1","","html-keyboard-response","93","166841","0.0-1.0-119.0","0","0","17466","","null","","","null","13","","","","","","","","","","","","","","","",""
"","ISI","","html-keyboard-response","94","168858","0.0-1.0-120.0","0","0","17466","","null","","","null","13","NaN","","","","","","","","","","","","","","",""
"","S2","","html-keyboard-response","95","169111","0.0-1.0-121.0","0","0","17466","","null","","","null","13","","NaN","","","","","","","","","","","","","",""
"","response","","html-keyboard-response","96","169588","0.0-1.0-122.0-0.0","0","0","17466","","475","","","75","13","","","1","13","training","adjacent","EF","5","6","L.jpg","Q.jpg","0","1","0","",""
"","feedback","","html-keyboard-response","97","170596","0.0-1.0-123.0-0.0","0","0","17466","","null","","","null","13","","","","","","","","","","","","","","","",""
"","time_out","","html-keyboard-response","98","172605","0.0-1.0-125.0-0.0","0","0","17466","","null","","","null","13","","","","","","","","","","","","","","","",""
"","ITI","","html-keyboard-response","99","173614","0.0-1.0-126.0","0","0","17466","","null","","","null","13","","","","","","","","","","","","","","","NaN",""
"","S1","","html-keyboard-response","100","173876","0.0-1.0-128.0","0","0","17466","","null","","","null","14","","","","","","","","","","","","","","","",""
"","ISI","","html-keyboard-response","101","175878","0.0-1.0-129.0","0","0","17466","","null","","","null","14","NaN","","","","","","","","","","","","","","",""
"","S2","","html-keyboard-response","102","176131","0.0-1.0-130.0","0","0","17466","","null","","","null","14","","NaN","","","","","","","","","","","","","",""
"","response","","html-keyboard-response","103","176277","0.0-1.0-131.0-0.0","0","0","17466","","143","","","68","14","","","1","14","training","adjacent","DE","4","5","M.jpg","L.jpg","1","1","1","",""
"","feedback","","html-keyboard-response","104","177289","0.0-1.0-132.0-0.0","0","0","17466","","null","","","null","14","","","","","","","","","","","","","","","",""
"","ITI","","html-keyboard-response","105","178292","0.0-1.0-135.0","0","0","17466","","null","","","null","14","","","","","","","","","","","","","","","NaN",""
"","S1","","html-keyboard-response","106","178556","0.0-1.0-137.0","0","0","17466","","null","","","null","15","","","","","","","","","","","","","","","",""
"","ISI","","html-keyboard-response","107","180564","0.0-1.0-138.0","0","0","17466","","null","","","null","15","NaN","","","","","","","","","","","","","","",""
"","S2","","html-keyboard-response","108","180827","0.0-1.0-139.0","0","0","17466","","null","","","null","15","","NaN","","","","","","","","","","","","","",""
"","response","","html-keyboard-response","109","182587","0.0-1.0-140.0-0.0","0","0","17466","","null","","","null","15","","","1","15","training","adjacent","CD","3","4","R.jpg","M.jpg","NaN","1","0","",""
"","too_slow_prompt","","html-keyboard-response","110","183594","0.0-1.0-142.0-0.0","1","0","17466","","null","","","null","","","","","","","","","","","","","","","","",""
"","time_out","","html-keyboard-response","111","185596","0.0-1.0-143.0-0.0","0","0","17466","","null","","","null","15","","","","","","","","","","","","","","","",""
"","ITI","","html-keyboard-response","112","186603","0.0-1.0-144.0","0","0","17466","","null","","","null","15","","","","","","","","","","","","","","","NaN",""
"","S1","","html-keyboard-response","113","186863","0.0-1.0-146.0","0","0","17466","","null","","","null","16","","","","","","","","","","","","","","","",""
"","ISI","","html-keyboard-response","114","188875","0.0-1.0-147.0","0","0","17466","","null","","","null","16","NaN","","","","","","","","","","","","","","",""
"","S2","","html-keyboard-response","115","189141","0.0-1.0-148.0","0","0","17466","","null","","","null","16","","NaN","","","","","","","","","","","","","",""
"","response","","html-keyboard-response","116","189452","0.0-1.0-149.0-0.0","0","0","17466","","309","","","68","16","","","1","16","training","adjacent","BA","2","1","P.jpg","O.jpg","1","0","0","",""
"","feedback","","html-keyboard-response","117","190455","0.0-1.0-150.0-0.0","0","0","17466","","null","","","null","16","","","","","","","","","","","","","","","",""
"","time_out","","html-keyboard-response","118","192470","0.0-1.0-152.0-0.0","0","0","17466","","null","","","null","16","","","","","","","","","","","","","","","",""
"","ITI","","html-keyboard-response","119","193481","0.0-1.0-153.0","0","0","17466","","null","","","null","16","","","","","","","","","","","","","","","NaN",""
"","S1","","html-keyboard-response","120","193743","0.0-1.0-155.0","0","0","17466","","null","","","null","17","","","","","","","","","","","","","","","",""
"","ISI","","html-keyboard-response","121","195755","0.0-1.0-156.0","0","0","17466","","null","","","null","17","NaN","","","","","","","","","","","","","","",""
"","S2","","html-keyboard-response","122","196019","0.0-1.0-157.0","0","0","17466","","null","","","null","17","","NaN","","","","","","","","","","","","","",""
"","response","","html-keyboard-response","123","196420","0.0-1.0-158.0-0.0","0","0","17466","","399","","","75","17","","","1","17","training","adjacent","FE","6","5","Q.jpg","L.jpg","0","0","1","",""
"","feedback","","html-keyboard-response","124","197422","0.0-1.0-159.0-0.0","0","0","17466","","null","","","null","17","","","","","","","","","","","","","","","",""
"","ITI","","html-keyboard-response","125","198436","0.0-1.0-162.0","0","0","17466","","null","","","null","17","","","","","","","","","","","","","","","NaN",""
"","S1","","html-keyboard-response","126","198699","0.0-1.0-164.0","0","0","17466","","null","","","null","18","","","","","","","","","","","","","","","",""
"","ISI","","html-keyboard-response","127","200713","0.0-1.0-165.0","0","0","17466","","null","","","null","18","NaN","","","","","","","","","","","","","","",""
"","S2","","html-keyboard-response","128","200976","0.0-1.0-166.0","0","0","17466","","null","","","null","18","","NaN","","","","","","","","","","","","","",""
"","response","","html-keyboard-response","129","201476","0.0-1.0-167.0-0.0","0","0","17466","","499","","","68","18","","","1","18","training","adjacent","BA","2","1","P.jpg","O.jpg","1","0","0","",""
"","feedback","","html-keyboard-response","130","202480","0.0-1.0-168.0-0.0","0","0","17466","","null","","","null","18","","","","","","","","","","","","","","","",""
"","time_out","","html-keyboard-response","131","204482","0.0-1.0-170.0-0.0","0","0","17466","","null","","","null","18","","","","","","","","","","","","","","","",""
"","ITI","","html-keyboard-response","132","205485","0.0-1.0-171.0","0","0","17466","","null","","","null","18","","","","","","","","","","","","","","","NaN",""
"","S1","","html-keyboard-response","133","205750","0.0-1.0-173.0","0","0","17466","","null","","","null","19","","","","","","","","","","","","","","","",""
"","ISI","","html-keyboard-response","134","207762","0.0-1.0-174.0","0","0","17466","","null","","","null","19","NaN","","","","","","","","","","","","","","",""
"","S2","","html-keyboard-response","135","208015","0.0-1.0-175.0","0","0","17466","","null","","","null","19","","NaN","","","","","","","","","","","","","",""
"","response","","html-keyboard-response","136","208406","0.0-1.0-176.0-0.0","0","0","17466","","388","","","75","19","","","1","19","training","adjacent","FE","6","5","Q.jpg","L.jpg","0","0","1","",""
"","feedback","","html-keyboard-response","137","209410","0.0-1.0-177.0-0.0","0","0","17466","","null","","","null","19","","","","","","","","","","","","","","","",""
"","ITI","","html-keyboard-response","138","210420","0.0-1.0-180.0","0","0","17466","","null","","","null","19","","","","","","","","","","","","","","","NaN",""
"","S1","","html-keyboard-response","139","210683","0.0-1.0-182.0","0","0","17466","","null","","","null","20","","","","","","","","","","","","","","","",""
"","ISI","","html-keyboard-response","140","212699","0.0-1.0-183.0","0","0","17466","","null","","","null","20","NaN","","","","","","","","","","","","","","",""
"","S2","","html-keyboard-response","141","212962","0.0-1.0-184.0","0","0","17466","","null","","","null","20","","NaN","","","","","","","","","","","","","",""
"","response","","html-keyboard-response","142","213022","0.0-1.0-185.0-0.0","0","0","17466","","57","","","68","20","","","1","20","training","adjacent","EF","5","6","L.jpg","Q.jpg","1","1","1","",""
"","feedback","","html-keyboard-response","143","214031","0.0-1.0-186.0-0.0","0","0","17466","","null","","","null","20","","","","","","","","","","","","","","","",""
"","ITI","","html-keyboard-response","144","215041","0.0-1.0-189.0","0","0","17466","","null","","","null","20","","","","","","","","","","","","","","","NaN",""
"","S1","","html-keyboard-response","145","215294","0.0-1.0-191.0","0","0","17466","","null","","","null","21","","","","","","","","","","","","","","","",""
"","ISI","","html-keyboard-response","146","217303","0.0-1.0-192.0","0","0","17466","","null","","","null","21","NaN","","","","","","","","","","","","","","",""
"","S2","","html-keyboard-response","147","217565","0.0-1.0-193.0","0","0","17466","","null","","","null","21","","NaN","","","","","","","","","","","","","",""
"","response","","html-keyboard-response","148","217885","0.0-1.0-194.0-0.0","0","0","17466","","319","","","75","21","","","1","21","training","adjacent","AB","1","2","O.jpg","P.jpg","0","1","0","",""
"","feedback","","html-keyboard-response","149","218887","0.0-1.0-195.0-0.0","0","0","17466","","null","","","null","21","","","","","","","","","","","","","","","",""
"","time_out","","html-keyboard-response","150","220891","0.0-1.0-197.0-0.0","0","0","17466","","null","","","null","21","","","","","","","","","","","","","","","",""
"","ITI","","html-keyboard-response","151","221896","0.0-1.0-198.0","0","0","17466","","null","","","null","21","","","","","","","","","","","","","","","NaN",""
"","S1","","html-keyboard-response","152","222154","0.0-1.0-200.0","0","0","17466","","null","","","null","22","","","","","","","","","","","","","","","",""
"","ISI","","html-keyboard-response","153","224168","0.0-1.0-201.0","0","0","17466","","null","","","null","22","NaN","","","","","","","","","","","","","","",""
"","S2","","html-keyboard-response","154","224431","0.0-1.0-202.0","0","0","17466","","null","","","null","22","","NaN","","","","","","","","","","","","","",""
"","response","","html-keyboard-response","155","224789","0.0-1.0-203.0-0.0","0","0","17466","","356","","","75","22","","","1","22","training","adjacent","CB","3","2","R.jpg","P.jpg","0","0","1","",""
"","feedback","","html-keyboard-response","156","225796","0.0-1.0-204.0-0.0","0","0","17466","","null","","","null","22","","","","","","","","","","","","","","","",""
"","ITI","","html-keyboard-response","157","226799","0.0-1.0-207.0","0","0","17466","","null","","","null","22","","","","","","","","","","","","","","","NaN",""
"","S1","","html-keyboard-response","158","227063","0.0-1.0-209.0","0","0","17466","","null","","","null","23","","","","","","","","","","","","","","","",""
"","ISI","","html-keyboard-response","159","229079","0.0-1.0-210.0","0","0","17466","","null","","","null","23","NaN","","","","","","","","","","","","","","",""
"","S2","","html-keyboard-response","160","229332","0.0-1.0-211.0","0","0","17466","","null","","","null","23","","NaN","","","","","","","","","","","","","",""
"","response","","html-keyboard-response","161","229797","0.0-1.0-212.0-0.0","0","0","17466","","464","","","75","23","","","1","23","training","adjacent","FG","6","7","Q.jpg","N.jpg","0","1","0","",""
"","feedback","","html-keyboard-response","162","230811","0.0-1.0-213.0-0.0","0","0","17466","","null","","","null","23","","","","","","","","","","","","","","","",""
"","time_out","","html-keyboard-response","163","232819","0.0-1.0-215.0-0.0","0","0","17466","","null","","","null","23","","","","","","","","","","","","","","","",""
"","ITI","","html-keyboard-response","164","233822","0.0-1.0-216.0","0","0","17466","","null","","","null","23","","","","","","","","","","","","","","","NaN",""
"","S1","","html-keyboard-response","165","234085","0.0-1.0-218.0","0","0","17466","","null","","","null","24","","","","","","","","","","","","","","","",""
"","ISI","","html-keyboard-response","166","236088","0.0-1.0-219.0","0","0","17466","","null","","","null","24","NaN","","","","","","","","","","","","","","",""
"","S2","","html-keyboard-response","167","236341","0.0-1.0-220.0","0","0","17466","","null","","","null","24","","NaN","","","","","","","","","","","","","",""
"","response","","html-keyboard-response","168","236621","0.0-1.0-221.0-0.0","0","0","17466","","278","","","68","24","","","1","24","training","adjacent","BC","2","3","P.jpg","R.jpg","1","1","1","",""
"","feedback","","html-keyboard-response","169","237638","0.0-1.0-222.0-0.0","0","0","17466","","null","","","null","24","","","","","","","","","","","","","","","",""
"","ITI","","html-keyboard-response","170","238652","0.0-1.0-225.0","0","0","17466","","null","","","null","24","","","","","","","","","","","","","","","NaN",""
"","S1","","html-keyboard-response","171","238915","0.0-1.0-227.0","0","0","17466","","null","","","null","25","","","","","","","","","","","","","","","",""
"","ISI","","html-keyboard-response","172","240928","0.0-1.0-228.0","0","0","17466","","null","","","null","25","NaN","","","","","","","","","","","","","","",""
"","S2","","html-keyboard-response","173","241192","0.0-1.0-229.0","0","0","17466","","null","","","null","25","","NaN","","","","","","","","","","","","","",""
"","response","","html-keyboard-response","174","241838","0.0-1.0-230.0-0.0","0","0","17466","","643","","","68","25","","","1","25","training","adjacent","GF","7","6","N.jpg","Q.jpg","1","0","0","",""
"","feedback","","html-keyboard-response","175","242841","0.0-1.0-231.0-0.0","0","0","17466","","null","","","null","25","","","","","","","","","","","","","","","",""
"","time_out","","html-keyboard-response","176","244844","0.0-1.0-233.0-0.0","0","0","17466","","null","","","null","25","","","","","","","","","","","","","","","",""
"","ITI","","html-keyboard-response","177","245846","0.0-1.0-234.0","0","0","17466","","null","","","null","25","","","","","","","","","","","","","","","NaN",""
"","S1","","html-keyboard-response","178","246099","0.0-1.0-236.0","0","0","17466","","null","","","null","26","","","","","","","","","","","","","","","",""
"","ISI","","html-keyboard-response","179","248100","0.0-1.0-237.0","0","0","17466","","null","","","null","26","NaN","","","","","","","","","","","","","","",""
"","S2","","html-keyboard-response","180","248354","0.0-1.0-238.0","0","0","17466","","null","","","null","26","","NaN","","","","","","","","","","","","","",""
"","response","","html-keyboard-response","181","248446","0.0-1.0-239.0-0.0","0","0","17466","","90","","","75","26","","","1","26","training","adjacent","AB","1","2","O.jpg","P.jpg","0","1","0","",""
"","feedback","","html-keyboard-response","182","249453","0.0-1.0-240.0-0.0","0","0","17466","","null","","","null","26","","","","","","","","","","","","","","","",""
"","time_out","","html-keyboard-response","183","251456","0.0-1.0-242.0-0.0","0","0","17466","","null","","","null","26","","","","","","","","","","","","","","","",""
"","ITI","","html-keyboard-response","184","252464","0.0-1.0-243.0","0","0","17466","","null","","","null","26","","","","","","","","","","","","","","","NaN",""
"","S1","","html-keyboard-response","185","252727","0.0-1.0-245.0","0","0","17466","","null","","","null","27","","","","","","","","","","","","","","","",""
"","ISI","","html-keyboard-response","186","254730","0.0-1.0-246.0","0","0","17466","","null","","","null","27","NaN","","","","","","","","","","","","","","",""
"","S2","","html-keyboard-response","187","254994","0.0-1.0-247.0","0","0","17466","","null","","","null","27","","NaN","","","","","","","","","","","","","",""
"","response","","html-keyboard-response","188","255430","0.0-1.0-248.0-0.0","0","0","17466","","434","","","68","27","","","1","27","training","adjacent","DC","4","3","M.jpg","R.jpg","1","0","0","",""
"","feedback","","html-keyboard-response","189","256440","0.0-1.0-249.0-0.0","0","0","17466","","null","","","null","27","","","","","","","","","","","","","","","",""
"","time_out","","html-keyboard-response","190","258443","0.0-1.0-251.0-0.0","0","0","17466","","null","","","null","27","","","","","","","","","","","","","","","",""
"","ITI","","html-keyboard-response","191","259450","0.0-1.0-252.0","0","0","17466","","null","","","null","27","","","","","","","","","","","","","","","NaN",""
"","S1","","html-keyboard-response","192","259715","0.0-1.0-254.0","0","0","17466","","null","","","null","28","","","","","","","","","","","","","","","",""
"","ISI","","html-keyboard-response","193","261721","0.0-1.0-255.0","0","0","17466","","null","","","null","28","NaN","","","","","","","","","","","","","","",""
"","S2","","html-keyboard-response","194","261984","0.0-1.0-256.0","0","0","17466","","null","","","null","28","","NaN","","","","","","","","","","","","","",""
"","response","","html-keyboard-response","195","262365","0.0-1.0-257.0-0.0","0","0","17466","","379","","","75","28","","","1","28","training","adjacent","FG","6","7","Q.jpg","N.jpg","0","1","0","",""
"","feedback","","html-keyboard-response","196","263383","0.0-1.0-258.0-0.0","0","0","17466","","null","","","null","28","","","","","","","","","","","","","","","",""
"","time_out","","html-keyboard-response","197","265385","0.0-1.0-260.0-0.0","0","0","17466","","null","","","null","28","","","","","","","","","","","","","","","",""
"","ITI","","html-keyboard-response","198","266398","0.0-1.0-261.0","0","0","17466","","null","","","null","28","","","","","","","","","","","","","","","NaN",""
"","S1","","html-keyboard-response","199","266659","0.0-1.0-263.0","0","0","17466","","null","","","null","29","","","","","","","","","","","","","","","",""
"","ISI","","html-keyboard-response","200","268676","0.0-1.0-264.0","0","0","17466","","null","","","null","29","NaN","","","","","","","","","","","","","","",""
"","S2","","html-keyboard-response","201","268940","0.0-1.0-265.0","0","0","17466","","null","","","null","29","","NaN","","","","","","","","","","","","","",""
"","response","","html-keyboard-response","202","269077","0.0-1.0-266.0-0.0","0","0","17466","","135","","","68","29","","","1","29","training","adjacent","FG","6","7","Q.jpg","N.jpg","1","1","1","",""
"","feedback","","html-keyboard-response","203","270090","0.0-1.0-267.0-0.0","0","0","17466","","null","","","null","29","","","","","","","","","","","","","","","",""
"","ITI","","html-keyboard-response","204","271092","0.0-1.0-270.0","0","0","17466","","null","","","null","29","","","","","","","","","","","","","","","NaN",""
"","S1","","html-keyboard-response","205","271345","0.0-1.0-272.0","0","0","17466","","null","","","null","30","","","","","","","","","","","","","","","",""
"","ISI","","html-keyboard-response","206","273351","0.0-1.0-273.0","0","0","17466","","null","","","null","30","NaN","","","","","","","","","","","","","","",""
"","S2","","html-keyboard-response","207","273608","0.0-1.0-274.0","0","0","17466","","null","","","null","30","","NaN","","","","","","","","","","","","","",""
"","response","","html-keyboard-response","208","274221","0.0-1.0-275.0-0.0","0","0","17466","","611","","","68","30","","","1","30","training","adjacent","BC","2","3","P.jpg","R.jpg","1","1","1","",""
"","feedback","","html-keyboard-response","209","275232","0.0-1.0-276.0-0.0","0","0","17466","","null","","","null","30","","","","","","","","","","","","","","","",""
"","ITI","","html-keyboard-response","210","276242","0.0-1.0-279.0","0","0","17466","","null","","","null","30","","","","","","","","","","","","","","","NaN",""
"","S1","","html-keyboard-response","211","276506","0.0-1.0-281.0","0","0","17466","","null","","","null","31","","","","","","","","","","","","","","","",""
"","ISI","","html-keyboard-response","212","278521","0.0-1.0-282.0","0","0","17466","","null","","","null","31","NaN","","","","","","","","","","","","","","",""
"","S2","","html-keyboard-response","213","278786","0.0-1.0-283.0","0","0","17466","","null","","","null","31","","NaN","","","","","","","","","","","","","",""
"","response","","html-keyboard-response","214","279429","0.0-1.0-284.0-0.0","0","0","17466","","639","","","68","31","","","1","31","training","adjacent","EF","5","6","L.jpg","Q.jpg","1","1","1","",""
"","feedback","","html-keyboard-response","215","280448","0.0-1.0-285.0-0.0","0","0","17466","","null","","","null","31","","","","","","","","","","","","","","","",""
"","ITI","","html-keyboard-response","216","281450","0.0-1.0-288.0","0","0","17466","","null","","","null","31","","","","","","","","","","","","","","","NaN",""
"","S1","","html-keyboard-response","217","281706","0.0-1.0-290.0","0","0","17466","","null","","","null","32","","","","","","","","","","","","","","","",""
"","ISI","","html-keyboard-response","218","283708","0.0-1.0-291.0","0","0","17466","","null","","","null","32","NaN","","","","","","","","","","","","","","",""
"","S2","","html-keyboard-response","219","283974","0.0-1.0-292.0","0","0","17466","","null","","","null","32","","NaN","","","","","","","","","","","","","",""
"","response","","html-keyboard-response","220","284404","0.0-1.0-293.0-0.0","0","0","17466","","428","","","75","32","","","1","32","training","adjacent","DE","4","5","M.jpg","L.jpg","0","1","0","",""
"","feedback","","html-keyboard-response","221","285408","0.0-1.0-294.0-0.0","0","0","17466","","null","","","null","32","","","","","","","","","","","","","","","",""
"","time_out","","html-keyboard-response","222","287411","0.0-1.0-296.0-0.0","0","0","17466","","null","","","null","32","","","","","","","","","","","","","","","",""
"","ITI","","html-keyboard-response","223","288414","0.0-1.0-297.0","0","0","17466","","null","","","null","32","","","","","","","","","","","","","","","NaN",""
"","S1","","html-keyboard-response","224","288674","0.0-1.0-299.0","0","0","17466","","null","","","null","33","","","","","","","","","","","","","","","",""
"","ISI","","html-keyboard-response","225","290676","0.0-1.0-300.0","0","0","17466","","null","","","null","33","NaN","","","","","","","","","","","","","","",""
"","S2","","html-keyboard-response","226","290929","0.0-1.0-301.0","0","0","17466","","null","","","null","33","","NaN","","","","","","","","","","","","","",""
"","response","","html-keyboard-response","227","291389","0.0-1.0-302.0-0.0","0","0","17466","","457","","","68","33","","","1","33","training","adjacent","BA","2","1","P.jpg","O.jpg","1","0","0","",""
"","feedback","","html-keyboard-response","228","292402","0.0-1.0-303.0-0.0","0","0","17466","","null","","","null","33","","","","","","","","","","","","","","","",""
"","time_out","","html-keyboard-response","229","294418","0.0-1.0-305.0-0.0","0","0","17466","","null","","","null","33","","","","","","","","","","","","","","","",""
"","ITI","","html-keyboard-response","230","295421","0.0-1.0-306.0","0","0","17466","","null","","","null","33","","","","","","","","","","","","","","","NaN",""
"","S1","","html-keyboard-response","231","295676","0.0-1.0-308.0","0","0","17466","","null","","","null","34","","","","","","","","","","","","","","","",""
"","ISI","","html-keyboard-response","232","297684","0.0-1.0-309.0","0","0","17466","","null","","","null","34","NaN","","","","","","","","","","","","","","",""
"","S2","","html-keyboard-response","233","297936","0.0-1.0-310.0","0","0","17466","","null","","","null","34","","NaN","","","","","","","","","","","","","",""
"","response","","html-keyboard-response","234","298013","0.0-1.0-311.0-0.0","0","0","17466","","75","","","75","34","","","1","34","training","adjacent","ED","5","4","L.jpg","M.jpg","0","0","1","",""
"","feedback","","html-keyboard-response","235","299015","0.0-1.0-312.0-0.0","0","0","17466","","null","","","null","34","","","","","","","","","","","","","","","",""
"","ITI","","html-keyboard-response","236","300027","0.0-1.0-315.0","0","0","17466","","null","","","null","34","","","","","","","","","","","","","","","NaN",""
"","S1","","html-keyboard-response","237","300291","0.0-1.0-317.0","0","0","17466","","null","","","null","35","","","","","","","","","","","","","","","",""
"","ISI","","html-keyboard-response","238","302308","0.0-1.0-318.0","0","0","17466","","null","","","null","35","NaN","","","","","","","","","","","","","","",""
"","S2","","html-keyboard-response","239","302573","0.0-1.0-319.0","0","0","17466","","null","","","null","35","","NaN","","","","","","","","","","","","","",""
"","response","","html-keyboard-response","240","302822","0.0-1.0-320.0-0.0","0","0","17466","","247","","","75","35","","","1","35","training","adjacent","DC","4","3","M.jpg","R.jpg","0","0","1","",""
"","feedback","","html-keyboard-response","241","303825","0.0-1.0-321.0-0.0","0","0","17466","","null","","","null","35","","","","","","","","","","","","","","","",""
"","ITI","","html-keyboard-response","242","304830","0.0-1.0-324.0","0","0","17466","","null","","","null","35","","","","","","","","","","","","","","","NaN",""
"","S1","","html-keyboard-response","243","305093","0.0-1.0-326.0","0","0","17466","","null","","","null","36","","","","","","","","","","","","","","","",""
"","ISI","","html-keyboard-response","244","307095","0.0-1.0-327.0","0","0","17466","","1174","","","75","36","k","","","","","","","","","","","","","","",""
"","S2","","html-keyboard-response","245","307350","0.0-1.0-328.0","0","0","17466","","null","","","null","36","","NaN","","","","","","","","","","","","","",""
"","response","","html-keyboard-response","246","307773","0.0-1.0-329.0-0.0","0","0","17466","","420","","","68","36","","","1","36","training","adjacent","CB","3","2","R.jpg","P.jpg","1","0","0","",""
"","feedback","","html-keyboard-response","247","308775","0.0-1.0-330.0-0.0","0","0","17466","","null","","","null","36","","","","","","","","","","","","","","","",""
"","time_out","","html-keyboard-response","248","310779","0.0-1.0-332.0-0.0","0","0","17466","","null","","","null","36","","","","","","","","","","","","","","","",""
"","ITI","","html-keyboard-response","249","311787","0.0-1.0-333.0","0","0","17466","","null","","","null","36","","","","","","","","","","","","","","","NaN",""
"","S1","","html-keyboard-response","250","312049","0.0-1.0-335.0","0","0","17466","","null","","","null","37","","","","","","","","","","","","","","","",""
"","ISI","","html-keyboard-response","251","314051","0.0-1.0-336.0","0","0","17466","","null","","","null","37","NaN","","","","","","","","","","","","","","",""
"","S2","","html-keyboard-response","252","314317","0.0-1.0-337.0","0","0","17466","","null","","","null","37","","NaN","","","","","","","","","","","","","",""
"","response","","html-keyboard-response","253","314757","0.0-1.0-338.0-0.0","0","0","17466","","438","","","68","37","","","1","37","training","adjacent","EF","5","6","L.jpg","Q.jpg","1","1","1","",""
"","feedback","","html-keyboard-response","254","315773","0.0-1.0-339.0-0.0","0","0","17466","","null","","","null","37","","","","","","","","","","","","","","","",""
"","ITI","","html-keyboard-response","255","316785","0.0-1.0-342.0","0","0","17466","","null","","","null","37","","","","","","","","","","","","","","","NaN",""
"","S1","","html-keyboard-response","256","317049","0.0-1.0-344.0","0","0","17466","","null","","","null","38","","","","","","","","","","","","","","","",""
"","ISI","","html-keyboard-response","257","319051","0.0-1.0-345.0","0","0","17466","","null","","","null","38","NaN","","","","","","","","","","","","","","",""
"","S2","","html-keyboard-response","258","319314","0.0-1.0-346.0","0","0","17466","","null","","","null","38","","NaN","","","","","","","","","","","","","",""
"","response","","html-keyboard-response","259","319637","0.0-1.0-347.0-0.0","0","0","17466","","320","","","68","38","","","1","38","training","adjacent","BA","2","1","P.jpg","O.jpg","1","0","0","",""
"","feedback","","html-keyboard-response","260","320640","0.0-1.0-348.0-0.0","0","0","17466","","null","","","null","38","","","","","","","","","","","","","","","",""
"","time_out","","html-keyboard-response","261","322644","0.0-1.0-350.0-0.0","0","0","17466","","null","","","null","38","","","","","","","","","","","","","","","",""
"","ITI","","html-keyboard-response","262","323660","0.0-1.0-351.0","0","0","17466","","null","","","null","38","","","","","","","","","","","","","","","NaN",""
"","S1","","html-keyboard-response","263","323913","0.0-1.0-353.0","0","0","17466","","null","","","null","39","","","","","","","","","","","","","","","",""
"","ISI","","html-keyboard-response","264","325914","0.0-1.0-354.0","0","0","17466","","null","","","null","39","NaN","","","","","","","","","","","","","","",""
"","S2","","html-keyboard-response","265","326168","0.0-1.0-355.0","0","0","17466","","null","","","null","39","","NaN","","","","","","","","","","","","","",""
"","response","","html-keyboard-response","266","326677","0.0-1.0-356.0-0.0","0","0","17466","","507","","","68","39","","","1","39","training","adjacent","CD","3","4","R.jpg","M.jpg","1","1","1","",""
"","feedback","","html-keyboard-response","267","327680","0.0-1.0-357.0-0.0","0","0","17466","","null","","","null","39","","","","","","","","","","","","","","","",""
"","ITI","","html-keyboard-response","268","328683","0.0-1.0-360.0","0","0","17466","","null","","","null","39","","","","","","","","","","","","","","","NaN",""
"","S1","","html-keyboard-response","269","328938","0.0-1.0-362.0","0","0","17466","","null","","","null","40","","","","","","","","","","","","","","","",""
"","ISI","","html-keyboard-response","270","330941","0.0-1.0-363.0","0","0","17466","","null","","","null","40","NaN","","","","","","","","","","","","","","",""
"","S2","","html-keyboard-response","271","331209","0.0-1.0-364.0","0","0","17466","","null","","","null","40","","NaN","","","","","","","","","","","","","",""
"","response","","html-keyboard-response","272","331533","0.0-1.0-365.0-0.0","0","0","17466","","322","","","75","40","","","1","40","training","adjacent","FE","6","5","Q.jpg","L.jpg","0","0","1","",""
"","feedback","","html-keyboard-response","273","332545","0.0-1.0-366.0-0.0","0","0","17466","","null","","","null","40","","","","","","","","","","","","","","","",""
"","ITI","","html-keyboard-response","274","333551","0.0-1.0-369.0","0","0","17466","","null","","","null","40","","","","","","","","","","","","","","","NaN",""
"","S1","","html-keyboard-response","275","333815","0.0-1.0-371.0","0","0","17466","","null","","","null","41","","","","","","","","","","","","","","","",""
"","ISI","","html-keyboard-response","276","335821","0.0-1.0-372.0","0","0","17466","","null","","","null","41","NaN","","","","","","","","","","","","","","",""
"","S2","","html-keyboard-response","277","336075","0.0-1.0-373.0","0","0","17466","","null","","","null","41","","NaN","","","","","","","","","","","","","",""
"","response","","html-keyboard-response","278","336326","0.0-1.0-374.0-0.0","0","0","17466","","248","","","68","41","","","1","41","training","adjacent","DC","4","3","M.jpg","R.jpg","1","0","0","",""
"","feedback","","html-keyboard-response","279","337332","0.0-1.0-375.0-0.0","0","0","17466","","null","","","null","41","","","","","","","","","","","","","","","",""
"","time_out","","html-keyboard-response","280","339335","0.0-1.0-377.0-0.0","0","0","17466","","null","","","null","41","","","","","","","","","","","","","","","",""
"","ITI","","html-keyboard-response","281","340345","0.0-1.0-378.0","0","0","17466","","null","","","null","41","","","","","","","","","","","","","","","NaN",""
"","S1","","html-keyboard-response","282","340608","0.0-1.0-380.0","0","0","17466","","null","","","null","42","","","","","","","","","","","","","","","",""
"","ISI","","html-keyboard-response","283","342618","0.0-1.0-381.0","0","0","17466","","null","","","null","42","NaN","","","","","","","","","","","","","","",""
"","S2","","html-keyboard-response","284","342881","0.0-1.0-382.0","0","0","17466","","null","","","null","42","","NaN","","","","","","","","","","","","","",""
"","response","","html-keyboard-response","285","343150","0.0-1.0-383.0-0.0","0","0","17466","","266","","","68","42","","","1","42","training","adjacent","ED","5","4","L.jpg","M.jpg","1","0","0","",""
"","feedback","","html-keyboard-response","286","344153","0.0-1.0-384.0-0.0","0","0","17466","","null","","","null","42","","","","","","","","","","","","","","","",""
"","time_out","","html-keyboard-response","287","346156","0.0-1.0-386.0-0.0","0","0","17466","","null","","","null","42","","","","","","","","","","","","","","","",""
"","ITI","","html-keyboard-response","288","347158","0.0-1.0-387.0","0","0","17466","","null","","","null","42","","","","","","","","","","","","","","","NaN",""
"","S1","","html-keyboard-response","289","347416","0.0-1.0-389.0","0","0","17466","","null","","","null","43","","","","","","","","","","","","","","","",""
"","ISI","","html-keyboard-response","290","349420","0.0-1.0-390.0","0","0","17466","","null","","","null","43","NaN","","","","","","","","","","","","","","",""
"","S2","","html-keyboard-response","291","349673","0.0-1.0-391.0","0","0","17466","","null","","","null","43","","NaN","","","","","","","","","","","","","",""
"","response","","html-keyboard-response","292","349716","0.0-1.0-392.0-0.0","0","0","17466","","41","","","75","43","","","1","43","training","adjacent","AB","1","2","O.jpg","P.jpg","0","1","0","",""
"","feedback","","html-keyboard-response","293","350721","0.0-1.0-393.0-0.0","0","0","17466","","null","","","null","43","","","","","","","","","","","","","","","",""
"","time_out","","html-keyboard-response","294","352728","0.0-1.0-395.0-0.0","0","0","17466","","null","","","null","43","","","","","","","","","","","","","","","",""
"","ITI","","html-keyboard-response","295","353733","0.0-1.0-396.0","0","0","17466","","null","","","null","43","","","","","","","","","","","","","","","NaN",""
"","S1","","html-keyboard-response","296","354000","0.0-1.0-398.0","0","0","17466","","null","","","null","44","","","","","","","","","","","","","","","",""
"","ISI","","html-keyboard-response","297","356014","0.0-1.0-399.0","0","0","17466","","null","","","null","44","NaN","","","","","","","","","","","","","","",""
"","S2","","html-keyboard-response","298","356274","0.0-1.0-400.0","0","0","17466","","null","","","null","44","","NaN","","","","","","","","","","","","","",""
"","response","","html-keyboard-response","299","356566","0.0-1.0-401.0-0.0","0","0","17466","","289","","","75","44","","","1","44","training","adjacent","BC","2","3","P.jpg","R.jpg","0","1","0","",""
"","feedback","","html-keyboard-response","300","357575","0.0-1.0-402.0-0.0","0","0","17466","","null","","","null","44","","","","","","","","","","","","","","","",""
"","time_out","","html-keyboard-response","301","359594","0.0-1.0-404.0-0.0","0","0","17466","","null","","","null","44","","","","","","","","","","","","","","","",""
"","ITI","","html-keyboard-response","302","360597","0.0-1.0-405.0","0","0","17466","","null","","","null","44","","","","","","","","","","","","","","","NaN",""
"","S1","","html-keyboard-response","303","360853","0.0-1.0-407.0","0","0","17466","","null","","","null","45","","","","","","","","","","","","","","","",""
"","ISI","","html-keyboard-response","304","362869","0.0-1.0-408.0","0","0","17466","","270","","","68","45","d","","","","","","","","","","","","","","",""
"","S2","","html-keyboard-response","305","363123","0.0-1.0-409.0","0","0","17466","","null","","","null","45","","NaN","","","","","","","","","","","","","",""
"","response","","html-keyboard-response","306","363230","0.0-1.0-410.0-0.0","0","0","17466","","104","","","68","45","","","1","45","training","adjacent","GF","7","6","N.jpg","Q.jpg","1","0","0","",""
"","feedback","","html-keyboard-response","307","364234","0.0-1.0-411.0-0.0","0","0","17466","","null","","","null","45","","","","","","","","","","","","","","","",""
"","time_out","","html-keyboard-response","308","366252","0.0-1.0-413.0-0.0","0","0","17466","","null","","","null","45","","","","","","","","","","","","","","","",""
"","ITI","","html-keyboard-response","309","367263","0.0-1.0-414.0","0","0","17466","","null","","","null","45","","","","","","","","","","","","","","","NaN",""
"","S1","","html-keyboard-response","310","367524","0.0-1.0-416.0","0","0","17466","","null","","","null","46","","","","","","","","","","","","","","","",""
"","ISI","","html-keyboard-response","311","369542","0.0-1.0-417.0","0","0","17466","","null","","","null","46","NaN","","","","","","","","","","","","","","",""
"","S2","","html-keyboard-response","312","369803","0.0-1.0-418.0","0","0","17466","","null","","","null","46","","NaN","","","","","","","","","","","","","",""
"","response","","html-keyboard-response","313","369846","0.0-1.0-419.0-0.0","0","0","17466","","41","","","68","46","","","1","46","training","adjacent","CB","3","2","R.jpg","P.jpg","1","0","0","",""
"","feedback","","html-keyboard-response","314","370860","0.0-1.0-420.0-0.0","0","0","17466","","null","","","null","46","","","","","","","","","","","","","","","",""
"","time_out","","html-keyboard-response","315","372862","0.0-1.0-422.0-0.0","0","0","17466","","null","","","null","46","","","","","","","","","","","","","","","",""
"","ITI","","html-keyboard-response","316","373865","0.0-1.0-423.0","0","0","17466","","null","","","null","46","","","","","","","","","","","","","","","NaN",""
"","S1","","html-keyboard-response","317","374134","0.0-1.0-425.0","0","0","17466","","null","","","null","47","","","","","","","","","","","","","","","",""
"","ISI","","html-keyboard-response","318","376137","0.0-1.0-426.0","0","0","17466","","null","","","null","47","NaN","","","","","","","","","","","","","","",""
"","S2","","html-keyboard-response","319","376398","0.0-1.0-427.0","0","0","17466","","null","","","null","47","","NaN","","","","","","","","","","","","","",""
"","response","","html-keyboard-response","320","376798","0.0-1.0-428.0-0.0","0","0","17466","","397","","","68","47","","","1","47","training","adjacent","DC","4","3","M.jpg","R.jpg","1","0","0","",""
"","feedback","","html-keyboard-response","321","377809","0.0-1.0-429.0-0.0","0","0","17466","","null","","","null","47","","","","","","","","","","","","","","","",""
"","time_out","","html-keyboard-response","322","379824","0.0-1.0-431.0-0.0","0","0","17466","","null","","","null","47","","","","","","","","","","","","","","","",""
"","ITI","","html-keyboard-response","323","380826","0.0-1.0-432.0","0","0","17466","","null","","","null","47","","","","","","","","","","","","","","","NaN",""
"","block_over","","html-keyboard-response","324","395237","0.0-1.0-433.0-0.0","0","0","17466","","14409","","","32","47","","","","","","","","","","","","","","","",""
"","S1","","html-keyboard-response","325","395490","0.0-1.0-434.0","0","0","17466","","null","","","null","48","","","","","","","","","","","","","","","",""
"","ISI","","html-keyboard-response","326","397494","0.0-1.0-435.0","0","0","17466","","null","","","null","48","NaN","","","","","","","","","","","","","","",""
"","S2","","html-keyboard-response","327","397757","0.0-1.0-436.0","0","0","17466","","null","","","null","48","","NaN","","","","","","","","","","","","","",""
"","response","","html-keyboard-response","328","398236","0.0-1.0-437.0-0.0","0","0","17466","","477","","","68","48","","","2","48","training","adjacent","GF","7","6","N.jpg","Q.jpg","1","0","0","",""
"","feedback","","html-keyboard-response","329","399243","0.0-1.0-438.0-0.0","0","0","17466","","null","","","null","48","","","","","","","","","","","","","","","",""
"","time_out","","html-keyboard-response","330","401249","0.0-1.0-440.0-0.0","0","0","17466","","null","","","null","48","","","","","","","","","","","","","","","",""
"","ITI","","html-keyboard-response","331","402258","0.0-1.0-441.0","0","0","17466","","null","","","null","48","","","","","","","","","","","","","","","NaN",""
"","S1","","html-keyboard-response","332","402523","0.0-1.0-443.0","0","0","17466","","null","","","null","49","","","","","","","","","","","","","","","",""
"","ISI","","html-keyboard-response","333","404529","0.0-1.0-444.0","0","0","17466","","120","","","75","49","k","","","","","","","","","","","","","","",""
"","S2","","html-keyboard-response","334","404793","0.0-1.0-445.0","0","0","17466","","null","","","null","49","","NaN","","","","","","","","","","","","","",""
"","response","","html-keyboard-response","335","404860","0.0-1.0-446.0-0.0","0","0","17466","","65","","","68","49","","","2","49","training","adjacent","EF","5","6","L.jpg","Q.jpg","1","1","1","",""
"","feedback","","html-keyboard-response","336","405864","0.0-1.0-447.0-0.0","0","0","17466","","null","","","null","49","","","","","","","","","","","","","","","",""
"","ITI","","html-keyboard-response","337","406866","0.0-1.0-450.0","0","0","17466","","null","","","null","49","","","","","","","","","","","","","","","NaN",""
"","S1","","html-keyboard-response","338","407120","0.0-1.0-452.0","0","0","17466","","null","","","null","50","","","","","","","","","","","","","","","",""
"","ISI","","html-keyboard-response","339","409130","0.0-1.0-453.0","0","0","17466","","null","","","null","50","NaN","","","","","","","","","","","","","","",""
"","S2","","html-keyboard-response","340","409392","0.0-1.0-454.0","0","0","17466","","null","","","null","50","","NaN","","","","","","","","","","","","","",""
"","response","","html-keyboard-response","341","409854","0.0-1.0-455.0-0.0","0","0","17466","","459","","","75","50","","","2","50","training","adjacent","DC","4","3","M.jpg","R.jpg","0","0","1","",""
"","feedback","","html-keyboard-response","342","410865","0.0-1.0-456.0-0.0","0","0","17466","","null","","","null","50","","","","","","","","","","","","","","","",""
"","ITI","","html-keyboard-response","343","411874","0.0-1.0-459.0","0","0","17466","","null","","","null","50","","","","","","","","","","","","","","","NaN",""
"","S1","","html-keyboard-response","344","412127","0.0-1.0-461.0","0","0","17466","","null","","","null","51","","","","","","","","","","","","","","","",""
"","ISI","","html-keyboard-response","345","414130","0.0-1.0-462.0","0","0","17466","","null","","","null","51","NaN","","","","","","","","","","","","","","",""
"","S2","","html-keyboard-response","346","414384","0.0-1.0-463.0","0","0","17466","","null","","","null","51","","NaN","","","","","","","","","","","","","",""
"","response","","html-keyboard-response","347","414941","0.0-1.0-464.0-0.0","0","0","17466","","555","","","68","51","","","2","51","training","adjacent","FE","6","5","Q.jpg","L.jpg","1","0","0","",""
"","feedback","","html-keyboard-response","348","415945","0.0-1.0-465.0-0.0","0","0","17466","","null","","","null","51","","","","","","","","","","","","","","","",""
"","time_out","","html-keyboard-response","349","417952","0.0-1.0-467.0-0.0","0","0","17466","","null","","","null","51","","","","","","","","","","","","","","","",""
"","ITI","","html-keyboard-response","350","418955","0.0-1.0-468.0","0","0","17466","","null","","","null","51","","","","","","","","","","","","","","","NaN",""
"","S1","","html-keyboard-response","351","419219","0.0-1.0-470.0","0","0","17466","","null","","","null","52","","","","","","","","","","","","","","","",""
"","ISI","","html-keyboard-response","352","421222","0.0-1.0-471.0","0","0","17466","","null","","","null","52","NaN","","","","","","","","","","","","","","",""
"","S2","","html-keyboard-response","353","421474","0.0-1.0-472.0","0","0","17466","","null","","","null","52","","NaN","","","","","","","","","","","","","",""
"","response","","html-keyboard-response","354","422158","0.0-1.0-473.0-0.0","0","0","17466","","681","","","75","52","","","2","52","training","adjacent","DC","4","3","M.jpg","R.jpg","0","0","1","",""
"","feedback","","html-keyboard-response","355","423163","0.0-1.0-474.0-0.0","0","0","17466","","null","","","null","52","","","","","","","","","","","","","","","",""
"","ITI","","html-keyboard-response","356","424166","0.0-1.0-477.0","0","0","17466","","null","","","null","52","","","","","","","","","","","","","","","NaN",""
"","S1","","html-keyboard-response","357","424427","0.0-1.0-479.0","0","0","17466","","null","","","null","53","","","","","","","","","","","","","","","",""
"","ISI","","html-keyboard-response","358","426430","0.0-1.0-480.0","0","0","17466","","null","","","null","53","NaN","","","","","","","","","","","","","","",""
"","S2","","html-keyboard-response","359","426683","0.0-1.0-481.0","0","0","17466","","null","","","null","53","","NaN","","","","","","","","","","","","","",""
"","response","","html-keyboard-response","360","426796","0.0-1.0-482.0-0.0","0","0","17466","","111","","","75","53","","","2","53","training","adjacent","BC","2","3","P.jpg","R.jpg","0","1","0","",""
"","feedback","","html-keyboard-response","361","427800","0.0-1.0-483.0-0.0","0","0","17466","","null","","","null","53","","","","","","","","","","","","","","","",""
"","time_out","","html-keyboard-response","362","429802","0.0-1.0-485.0-0.0","0","0","17466","","null","","","null","53","","","","","","","","","","","","","","","",""
"","ITI","","html-keyboard-response","363","430818","0.0-1.0-486.0","0","0","17466","","null","","","null","53","","","","","","","","","","","","","","","NaN",""
"","S1","","html-keyboard-response","364","431082","0.0-1.0-488.0","0","0","17466","","null","","","null","54","","","","","","","","","","","","","","","",""
"","ISI","","html-keyboard-response","365","433085","0.0-1.0-489.0","0","0","17466","","null","","","null","54","NaN","","","","","","","","","","","","","","",""
"","S2","","html-keyboard-response","366","433348","0.0-1.0-490.0","0","0","17466","","null","","","null","54","","NaN","","","","","","","","","","","","","",""
"","response","","html-keyboard-response","367","433893","0.0-1.0-491.0-0.0","0","0","17466","","542","","","75","54","","","2","54","training","adjacent","CB","3","2","R.jpg","P.jpg","0","0","1","",""
"","feedback","","html-keyboard-response","368","434899","0.0-1.0-492.0-0.0","0","0","17466","","null","","","null","54","","","","","","","","","","","","","","","",""
"","ITI","","html-keyboard-response","369","435902","0.0-1.0-495.0","0","0","17466","","null","","","null","54","","","","","","","","","","","","","","","NaN",""
"","S1","","html-keyboard-response","370","436155","0.0-1.0-497.0","0","0","17466","","null","","","null","55","","","","","","","","","","","","","","","",""
"","ISI","","html-keyboard-response","371","438157","0.0-1.0-498.0","0","0","17466","","null","","","null","55","NaN","","","","","","","","","","","","","","",""
"","S2","","html-keyboard-response","372","438416","0.0-1.0-499.0","0","0","17466","","null","","","null","55","","NaN","","","","","","","","","","","","","",""
"","response","","html-keyboard-response","373","440169","0.0-1.0-500.0-0.0","0","0","17466","","null","","","null","55","","","2","55","training","adjacent","BA","2","1","P.jpg","O.jpg","NaN","0","0","",""
"","too_slow_prompt","","html-keyboard-response","374","441172","0.0-1.0-502.0-0.0","1","0","17466","","null","","","null","","","","","","","","","","","","","","","","",""
"","time_out","","html-keyboard-response","375","443175","0.0-1.0-503.0-0.0","0","0","17466","","null","","","null","55","","","","","","","","","","","","","","","",""
"","ITI","","html-keyboard-response","376","444177","0.0-1.0-504.0","0","0","17466","","null","","","null","55","","","","","","","","","","","","","","","NaN",""
"","S1","","html-keyboard-response","377","444440","0.0-1.0-506.0","0","0","17466","","null","","","null","56","","","","","","","","","","","","","","","",""
"","ISI","","html-keyboard-response","378","446450","0.0-1.0-507.0","0","0","17466","","null","","","null","56","NaN","","","","","","","","","","","","","","",""
"","S2","","html-keyboard-response","379","446715","0.0-1.0-508.0","0","0","17466","","null","","","null","56","","NaN","","","","","","","","","","","","","",""
"","response","","html-keyboard-response","380","446949","0.0-1.0-509.0-0.0","0","0","17466","","232","","","68","56","","","2","56","training","adjacent","DE","4","5","M.jpg","L.jpg","1","1","1","",""
"","feedback","","html-keyboard-response","381","447960","0.0-1.0-510.0-0.0","0","0","17466","","null","","","null","56","","","","","","","","","","","","","","","",""
"","ITI","","html-keyboard-response","382","448963","0.0-1.0-513.0","0","0","17466","","null","","","null","56","","","","","","","","","","","","","","","NaN",""
"","S1","","html-keyboard-response","383","449226","0.0-1.0-515.0","0","0","17466","","null","","","null","57","","","","","","","","","","","","","","","",""
"","ISI","","html-keyboard-response","384","451230","0.0-1.0-516.0","0","0","17466","","null","","","null","57","NaN","","","","","","","","","","","","","","",""
"","S2","","html-keyboard-response","385","451490","0.0-1.0-517.0","0","0","17466","","null","","","null","57","","NaN","","","","","","","","","","","","","",""
"","response","","html-keyboard-response","386","451572","0.0-1.0-518.0-0.0","0","0","17466","","80","","","68","57","","","2","57","training","adjacent","AB","1","2","O.jpg","P.jpg","1","1","1","",""
"","feedback","","html-keyboard-response","387","452578","0.0-1.0-519.0-0.0","0","0","17466","","null","","","null","57","","","","","","","","","","","","","","","",""
"","ITI","","html-keyboard-response","388","453581","0.0-1.0-522.0","0","0","17466","","null","","","null","57","","","","","","","","","","","","","","","NaN",""
"","S1","","html-keyboard-response","389","453839","0.0-1.0-524.0","0","0","17466","","null","","","null","58","","","","","","","","","","","","","","","",""
"","ISI","","html-keyboard-response","390","455842","0.0-1.0-525.0","0","0","17466","","null","","","null","58","NaN","","","","","","","","","","","","","","",""
"","S2","","html-keyboard-response","391","456094","0.0-1.0-526.0","0","0","17466","","null","","","null","58","","NaN","","","","","","","","","","","","","",""
"","response","","html-keyboard-response","392","456469","0.0-1.0-527.0-0.0","0","0","17466","","373","","","68","58","","","2","58","training","adjacent","ED","5","4","L.jpg","M.jpg","1","0","0","",""
"","feedback","","html-keyboard-response","393","457478","0.0-1.0-528.0-0.0","0","0","17466","","null","","","null","58","","","","","","","","","","","","","","","",""
"","time_out","","html-keyboard-response","394","459483","0.0-1.0-530.0-0.0","0","0","17466","","null","","","null","58","","","","","","","","","","","","","","","",""
"","ITI","","html-keyboard-response","395","460494","0.0-1.0-531.0","0","0","17466","","null","","","null","58","","","","","","","","","","","","","","","NaN",""
"","S1","","html-keyboard-response","396","460759","0.0-1.0-533.0","0","0","17466","","null","","","null","59","","","","","","","","","","","","","","","",""
"","ISI","","html-keyboard-response","397","462765","0.0-1.0-534.0","0","0","17466","","254","","","75","59","k","","","","","","","","","","","","","","",""
"","S2","","html-keyboard-response","398","463029","0.0-1.0-535.0","0","0","17466","","null","","","null","59","","NaN","","","","","","","","","","","","","",""
"","response","","html-keyboard-response","399","463045","0.0-1.0-536.0-0.0","0","0","17466","","15","","","75","59","","","2","59","training","adjacent","FG","6","7","Q.jpg","N.jpg","0","1","0","",""
"","feedback","","html-keyboard-response","400","464060","0.0-1.0-537.0-0.0","0","0","17466","","null","","","null","59","","","","","","","","","","","","","","","",""
"","time_out","","html-keyboard-response","401","466063","0.0-1.0-539.0-0.0","0","0","17466","","null","","","null","59","","","","","","","","","","","","","","","",""
"","ITI","","html-keyboard-response","402","467065","0.0-1.0-540.0","0","0","17466","","null","","","null","59","","","","","","","","","","","","","","","NaN",""
"","S1","","html-keyboard-response","403","467319","0.0-1.0-542.0","0","0","17466","","null","","","null","60","","","","","","","","","","","","","","","",""
"","ISI","","html-keyboard-response","404","469330","0.0-1.0-543.0","0","0","17466","","null","","","null","60","NaN","","","","","","","","","","","","","","",""
"","S2","","html-keyboard-response","405","469596","0.0-1.0-544.0","0","0","17466","","null","","","null","60","","NaN","","","","","","","","","","","","","",""
"","response","","html-keyboard-response","406","469933","0.0-1.0-545.0-0.0","0","0","17466","","335","","","75","60","","","2","60","training","adjacent","FG","6","7","Q.jpg","N.jpg","0","1","0","",""
"","feedback","","html-keyboard-response","407","470937","0.0-1.0-546.0-0.0","0","0","17466","","null","","","null","60","","","","","","","","","","","","","","","",""
"","time_out","","html-keyboard-response","408","472947","0.0-1.0-548.0-0.0","0","0","17466","","null","","","null","60","","","","","","","","","","","","","","","",""
"","ITI","","html-keyboard-response","409","473956","0.0-1.0-549.0","0","0","17466","","null","","","null","60","","","","","","","","","","","","","","","NaN",""
"","S1","","html-keyboard-response","410","474217","0.0-1.0-551.0","0","0","17466","","null","","","null","61","","","","","","","","","","","","","","","",""
"","ISI","","html-keyboard-response","411","476220","0.0-1.0-552.0","0","0","17466","","null","","","null","61","NaN","","","","","","","","","","","","","","",""
"","S2","","html-keyboard-response","412","476473","0.0-1.0-553.0","0","0","17466","","null","","","null","61","","NaN","","","","","","","","","","","","","",""
"","response","","html-keyboard-response","413","476782","0.0-1.0-554.0-0.0","0","0","17466","","307","","","75","61","","","2","61","training","adjacent","BA","2","1","P.jpg","O.jpg","0","0","1","",""
"","feedback","","html-keyboard-response","414","477790","0.0-1.0-555.0-0.0","0","0","17466","","null","","","null","61","","","","","","","","","","","","","","","",""
"","ITI","","html-keyboard-response","415","478793","0.0-1.0-558.0","0","0","17466","","null","","","null","61","","","","","","","","","","","","","","","NaN",""
"","S1","","html-keyboard-response","416","479051","0.0-1.0-560.0","0","0","17466","","null","","","null","62","","","","","","","","","","","","","","","",""
"","ISI","","html-keyboard-response","417","481054","0.0-1.0-561.0","0","0","17466","","null","","","null","62","NaN","","","","","","","","","","","","","","",""
"","S2","","html-keyboard-response","418","481306","0.0-1.0-562.0","0","0","17466","","null","","","null","62","","NaN","","","","","","","","","","","","","",""
"","response","","html-keyboard-response","419","481757","0.0-1.0-563.0-0.0","0","0","17466","","447","","","68","62","","","2","62","training","adjacent","BA","2","1","P.jpg","O.jpg","1","0","0","",""
"","feedback","","html-keyboard-response","420","482766","0.0-1.0-564.0-0.0","0","0","17466","","null","","","null","62","","","","","","","","","","","","","","","",""
"","time_out","","html-keyboard-response","421","484780","0.0-1.0-566.0-0.0","0","0","17466","","null","","","null","62","","","","","","","","","","","","","","","",""
"","ITI","","html-keyboard-response","422","485783","0.0-1.0-567.0","0","0","17466","","null","","","null","62","","","","","","","","","","","","","","","NaN",""
"","S1","","html-keyboard-response","423","486041","0.0-1.0-569.0","0","0","17466","","null","","","null","63","","","","","","","","","","","","","","","",""
"","ISI","","html-keyboard-response","424","488044","0.0-1.0-570.0","0","0","17466","","null","","","null","63","NaN","","","","","","","","","","","","","","",""
"","S2","","html-keyboard-response","425","488297","0.0-1.0-571.0","0","0","17466","","null","","","null","63","","NaN","","","","","","","","","","","","","",""
"","response","","html-keyboard-response","426","488646","0.0-1.0-572.0-0.0","0","0","17466","","347","","","68","63","","","2","63","training","adjacent","FG","6","7","Q.jpg","N.jpg","1","1","1","",""
"","feedback","","html-keyboard-response","427","489663","0.0-1.0-573.0-0.0","0","0","17466","","null","","","null","63","","","","","","","","","","","","","","","",""
"","ITI","","html-keyboard-response","428","490671","0.0-1.0-576.0","0","0","17466","","null","","","null","63","","","","","","","","","","","","","","","NaN",""
"","S1","","html-keyboard-response","429","490934","0.0-1.0-578.0","0","0","17466","","null","","","null","64","","","","","","","","","","","","","","","",""
"","ISI","","html-keyboard-response","430","492936","0.0-1.0-579.0","0","0","17466","","null","","","null","64","NaN","","","","","","","","","","","","","","",""
"","S2","","html-keyboard-response","431","493201","0.0-1.0-580.0","0","0","17466","","null","","","null","64","","NaN","","","","","","","","","","","","","",""
"","response","","html-keyboard-response","432","493428","0.0-1.0-581.0-0.0","0","0","17466","","225","","","68","64","","","2","64","training","adjacent","DE","4","5","M.jpg","L.jpg","1","1","1","",""
"","feedback","","html-keyboard-response","433","494436","0.0-1.0-582.0-0.0","0","0","17466","","null","","","null","64","","","","","","","","","","","","","","","",""
"","ITI","","html-keyboard-response","434","495446","0.0-1.0-585.0","0","0","17466","","null","","","null","64","","","","","","","","","","","","","","","NaN",""
"","S1","","html-keyboard-response","435","495711","0.0-1.0-587.0","0","0","17466","","null","","","null","65","","","","","","","","","","","","","","","",""
"","ISI","","html-keyboard-response","436","497714","0.0-1.0-588.0","0","0","17466","","null","","","null","65","NaN","","","","","","","","","","","","","","",""
"","S2","","html-keyboard-response","437","497977","0.0-1.0-589.0","0","0","17466","","null","","","null","65","","NaN","","","","","","","","","","","","","",""
"","response","","html-keyboard-response","438","498029","0.0-1.0-590.0-0.0","0","0","17466","","49","","","75","65","","","2","65","training","adjacent","FG","6","7","Q.jpg","N.jpg","0","1","0","",""
"","feedback","","html-keyboard-response","439","499039","0.0-1.0-591.0-0.0","0","0","17466","","null","","","null","65","","","","","","","","","","","","","","","",""
"","time_out","","html-keyboard-response","440","501042","0.0-1.0-593.0-0.0","0","0","17466","","null","","","null","65","","","","","","","","","","","","","","","",""
"","ITI","","html-keyboard-response","441","502045","0.0-1.0-594.0","0","0","17466","","null","","","null","65","","","","","","","","","","","","","","","NaN",""
"","S1","","html-keyboard-response","442","502298","0.0-1.0-596.0","0","0","17466","","null","","","null","66","","","","","","","","","","","","","","","",""
"","ISI","","html-keyboard-response","443","504303","0.0-1.0-597.0","0","0","17466","","null","","","null","66","NaN","","","","","","","","","","","","","","",""
"","S2","","html-keyboard-response","444","504566","0.0-1.0-598.0","0","0","17466","","null","","","null","66","","NaN","","","","","","","","","","","","","",""
"","response","","html-keyboard-response","445","504605","0.0-1.0-599.0-0.0","0","0","17466","","37","","","68","66","","","2","66","training","adjacent","GF","7","6","N.jpg","Q.jpg","1","0","0","",""
"","feedback","","html-keyboard-response","446","505613","0.0-1.0-600.0-0.0","0","0","17466","","null","","","null","66","","","","","","","","","","","","","","","",""
"","time_out","","html-keyboard-response","447","507629","0.0-1.0-602.0-0.0","0","0","17466","","null","","","null","66","","","","","","","","","","","","","","","",""
"","ITI","","html-keyboard-response","448","508638","0.0-1.0-603.0","0","0","17466","","null","","","null","66","","","","","","","","","","","","","","","NaN",""
"","S1","","html-keyboard-response","449","508902","0.0-1.0-605.0","0","0","17466","","null","","","null","67","","","","","","","","","","","","","","","",""
"","ISI","","html-keyboard-response","450","510909","0.0-1.0-606.0","0","0","17466","","null","","","null","67","NaN","","","","","","","","","","","","","","",""
"","S2","","html-keyboard-response","451","511172","0.0-1.0-607.0","0","0","17466","","null","","","null","67","","NaN","","","","","","","","","","","","","",""
"","response","","html-keyboard-response","452","511205","0.0-1.0-608.0-0.0","0","0","17466","","31","","","75","67","","","2","67","training","adjacent","AB","1","2","O.jpg","P.jpg","0","1","0","",""
"","feedback","","html-keyboard-response","453","512222","0.0-1.0-609.0-0.0","0","0","17466","","null","","","null","67","","","","","","","","","","","","","","","",""
"","time_out","","html-keyboard-response","454","514231","0.0-1.0-611.0-0.0","0","0","17466","","null","","","null","67","","","","","","","","","","","","","","","",""
"","ITI","","html-keyboard-response","455","515235","0.0-1.0-612.0","0","0","17466","","null","","","null","67","","","","","","","","","","","","","","","NaN",""
"","S1","","html-keyboard-response","456","515501","0.0-1.0-614.0","0","0","17466","","null","","","null","68","","","","","","","","","","","","","","","",""
"","ISI","","html-keyboard-response","457","517516","0.0-1.0-615.0","0","0","17466","","null","","","null","68","NaN","","","","","","","","","","","","","","",""
"","S2","","html-keyboard-response","458","517782","0.0-1.0-616.0","0","0","17466","","null","","","null","68","","NaN","","","","","","","","","","","","","",""
"","response","","html-keyboard-response","459","518079","0.0-1.0-617.0-0.0","0","0","17466","","295","","","68","68","","","2","68","training","adjacent","BC","2","3","P.jpg","R.jpg","1","1","1","",""
"","feedback","","html-keyboard-response","460","519082","0.0-1.0-618.0-0.0","0","0","17466","","null","","","null","68","","","","","","","","","","","","","","","",""
"","ITI","","html-keyboard-response","461","520084","0.0-1.0-621.0","0","0","17466","","null","","","null","68","","","","","","","","","","","","","","","NaN",""
"","S1","","html-keyboard-response","462","520340","0.0-1.0-623.0","0","0","17466","","null","","","null","69","","","","","","","","","","","","","","","",""
"","ISI","","html-keyboard-response","463","522344","0.0-1.0-624.0","0","0","17466","","null","","","null","69","NaN","","","","","","","","","","","","","","",""
"","S2","","html-keyboard-response","464","522608","0.0-1.0-625.0","0","0","17466","","null","","","null","69","","NaN","","","","","","","","","","","","","",""
"","response","","html-keyboard-response","465","522982","0.0-1.0-626.0-0.0","0","0","17466","","371","","","75","69","","","2","69","training","adjacent","AB","1","2","O.jpg","P.jpg","0","1","0","",""
"","feedback","","html-keyboard-response","466","523988","0.0-1.0-627.0-0.0","0","0","17466","","null","","","null","69","","","","","","","","","","","","","","","",""
"","time_out","","html-keyboard-response","467","525991","0.0-1.0-629.0-0.0","0","0","17466","","null","","","null","69","","","","","","","","","","","","","","","",""
"","ITI","","html-keyboard-response","468","526994","0.0-1.0-630.0","0","0","17466","","null","","","null","69","","","","","","","","","","","","","","","NaN",""
"","S1","","html-keyboard-response","469","527249","0.0-1.0-632.0","0","0","17466","","null","","","null","70","","","","","","","","","","","","","","","",""
"","ISI","","html-keyboard-response","470","529264","0.0-1.0-633.0","0","0","17466","","186","","","68","70","d","","","","","","","","","","","","","","",""
"","S2","","html-keyboard-response","471","529526","0.0-1.0-634.0","0","0","17466","","null","","","null","70","","NaN","","","","","","","","","","","","","",""
"","response","","html-keyboard-response","472","529749","0.0-1.0-635.0-0.0","0","0","17466","","221","","","75","70","","","2","70","training","adjacent","ED","5","4","L.jpg","M.jpg","0","0","1","",""
"","feedback","","html-keyboard-response","473","530752","0.0-1.0-636.0-0.0","0","0","17466","","null","","","null","70","","","","","","","","","","","","","","","",""
"","ITI","","html-keyboard-response","474","531762","0.0-1.0-639.0","0","0","17466","","null","","","null","70","","","","","","","","","","","","","","","NaN",""
"","S1","","html-keyboard-response","475","532014","0.0-1.0-641.0","0","0","17466","","null","","","null","71","","","","","","","","","","","","","","","",""
"","ISI","","html-keyboard-response","476","534016","0.0-1.0-642.0","0","0","17466","","null","","","null","71","NaN","","","","","","","","","","","","","","",""
"","S2","","html-keyboard-response","477","534275","0.0-1.0-643.0","0","0","17466","","null","","","null","71","","NaN","","","","","","","","","","","","","",""
"","response","","html-keyboard-response","478","534637","0.0-1.0-644.0-0.0","0","0","17466","","360","","","68","71","","","2","71","training","adjacent","DE","4","5","M.jpg","L.jpg","1","1","1","",""
"","feedback","","html-keyboard-response","479","535640","0.0-1.0-645.0-0.0","0","0","17466","","null","","","null","71","","","","","","","","","","","","","","","",""
"","ITI","","html-keyboard-response","480","536645","0.0-1.0-648.0","0","0","17466","","null","","","null","71","","","","","","","","","","","","","","","NaN",""
"","S1","","html-keyboard-response","481","536906","0.0-1.0-650.0","0","0","17466","","null","","","null","72","","","","","","","","","","","","","","","",""
"","ISI","","html-keyboard-response","482","538923","0.0-1.0-651.0","0","0","17466","","null","","","null","72","NaN","","","","","","","","","","","","","","",""
"","S2","","html-keyboard-response","483","539189","0.0-1.0-652.0","0","0","17466","","null","","","null","72","","NaN","","","","","","","","","","","","","",""
"","response","","html-keyboard-response","484","539423","0.0-1.0-653.0-0.0","0","0","17466","","230","","","75","72","","","2","72","training","adjacent","GF","7","6","N.jpg","Q.jpg","0","0","1","",""
"","feedback","","html-keyboard-response","485","540425","0.0-1.0-654.0-0.0","0","0","17466","","null","","","null","72","","","","","","","","","","","","","","","",""
"","ITI","","html-keyboard-response","486","541437","0.0-1.0-657.0","0","0","17466","","null","","","null","72","","","","","","","","","","","","","","","NaN",""
"","S1","","html-keyboard-response","487","541701","0.0-1.0-659.0","0","0","17466","","null","","","null","73","","","","","","","","","","","","","","","",""
"","ISI","","html-keyboard-response","488","543705","0.0-1.0-660.0","0","0","17466","","null","","","null","73","NaN","","","","","","","","","","","","","","",""
"","S2","","html-keyboard-response","489","543970","0.0-1.0-661.0","0","0","17466","","null","","","null","73","","NaN","","","","","","","","","","","","","",""
"","response","","html-keyboard-response","490","544124","0.0-1.0-662.0-0.0","0","0","17466","","152","","","75","73","","","2","73","training","adjacent","AB","1","2","O.jpg","P.jpg","0","1","0","",""
"","feedback","","html-keyboard-response","491","545127","0.0-1.0-663.0-0.0","0","0","17466","","null","","","null","73","","","","","","","","","","","","","","","",""
"","time_out","","html-keyboard-response","492","547129","0.0-1.0-665.0-0.0","0","0","17466","","null","","","null","73","","","","","","","","","","","","","","","",""
"","ITI","","html-keyboard-response","493","548133","0.0-1.0-666.0","0","0","17466","","null","","","null","73","","","","","","","","","","","","","","","NaN",""
"","S1","","html-keyboard-response","494","548391","0.0-1.0-668.0","0","0","17466","","null","","","null","74","","","","","","","","","","","","","","","",""
"","ISI","","html-keyboard-response","495","550403","0.0-1.0-669.0","0","0","17466","","null","","","null","74","NaN","","","","","","","","","","","","","","",""
"","S2","","html-keyboard-response","496","550663","0.0-1.0-670.0","0","0","17466","","null","","","null","74","","NaN","","","","","","","","","","","","","",""
"","response","","html-keyboard-response","497","550846","0.0-1.0-671.0-0.0","0","0","17466","","180","","","68","74","","","2","74","training","adjacent","FE","6","5","Q.jpg","L.jpg","1","0","0","",""
"","feedback","","html-keyboard-response","498","551860","0.0-1.0-672.0-0.0","0","0","17466","","null","","","null","74","","","","","","","","","","","","","","","",""
"","time_out","","html-keyboard-response","499","553877","0.0-1.0-674.0-0.0","0","0","17466","","null","","","null","74","","","","","","","","","","","","","","","",""
"","ITI","","html-keyboard-response","500","554880","0.0-1.0-675.0","0","0","17466","","null","","","null","74","","","","","","","","","","","","","","","NaN",""
"","S1","","html-keyboard-response","501","555136","0.0-1.0-677.0","0","0","17466","","null","","","null","75","","","","","","","","","","","","","","","",""
"","ISI","","html-keyboard-response","502","557148","0.0-1.0-678.0","0","0","17466","","580","","","68","75","d","","","","","","","","","","","","","","",""
"","S2","","html-keyboard-response","503","557412","0.0-1.0-679.0","0","0","17466","","null","","","null","75","","NaN","","","","","","","","","","","","","",""
"","response","","html-keyboard-response","504","557437","0.0-1.0-680.0-0.0","0","0","17466","","22","","","75","75","","","2","75","training","adjacent","ED","5","4","L.jpg","M.jpg","0","0","1","",""
"","feedback","","html-keyboard-response","505","558443","0.0-1.0-681.0-0.0","0","0","17466","","null","","","null","75","","","","","","","","","","","","","","","",""
"","ITI","","html-keyboard-response","506","559445","0.0-1.0-684.0","0","0","17466","","null","","","null","75","","","","","","","","","","","","","","","NaN",""
"","S1","","html-keyboard-response","507","559699","0.0-1.0-686.0","0","0","17466","","null","","","null","76","","","","","","","","","","","","","","","",""
"","ISI","","html-keyboard-response","508","561712","0.0-1.0-687.0","0","0","17466","","null","","","null","76","NaN","","","","","","","","","","","","","","",""
"","S2","","html-keyboard-response","509","561967","0.0-1.0-688.0","0","0","17466","","null","","","null","76","","NaN","","","","","","","","","","","","","",""
"","response","","html-keyboard-response","510","563734","0.0-1.0-689.0-0.0","0","0","17466","","null","","","null","76","","","2","76","training","adjacent","CD","3","4","R.jpg","M.jpg","NaN","1","0","",""
"","too_slow_prompt","","html-keyboard-response","511","564747","0.0-1.0-691.0-0.0","1","0","17466","","null","","","null","","","","","","","","","","","","","","","","",""
"","time_out","","html-keyboard-response","512","566761","0.0-1.0-692.0-0.0","0","0","17466","","null","","","null","76","","","","","","","","","","","","","","","",""
"","ITI","","html-keyboard-response","513","567774","0.0-1.0-693.0","0","0","17466","","null","","","null","76","","","","","","","","","","","","","","","NaN",""
"","S1","","html-keyboard-response","514","568037","0.0-1.0-695.0","0","0","17466","","null","","","null","77","","","","","","","","","","","","","","","",""
"","ISI","","html-keyboard-response","515","570040","0.0-1.0-696.0","0","0","17466","","null","","","null","77","NaN","","","","","","","","","","","","","","",""
"","S2","","html-keyboard-response","516","570293","0.0-1.0-697.0","0","0","17466","","null","","","null","77","","NaN","","","","","","","","","","","","","",""
"","response","","html-keyboard-response","517","570654","0.0-1.0-698.0-0.0","0","0","17466","","359","","","68","77","","","2","77","training","adjacent","EF","5","6","L.jpg","Q.jpg","1","1","1","",""
"","feedback","","html-keyboard-response","518","571665","0.0-1.0-699.0-0.0","0","0","17466","","null","","","null","77","","","","","","","","","","","","","","","",""
"","ITI","","html-keyboard-response","519","572668","0.0-1.0-702.0","0","0","17466","","null","","","null","77","","","","","","","","","","","","","","","NaN",""
"","S1","","html-keyboard-response","520","572925","0.0-1.0-704.0","0","0","17466","","null","","","null","78","","","","","","","","","","","","","","","",""
"","ISI","","html-keyboard-response","521","574927","0.0-1.0-705.0","0","0","17466","","null","","","null","78","NaN","","","","","","","","","","","","","","",""
"","S2","","html-keyboard-response","522","575181","0.0-1.0-706.0","0","0","17466","","null","","","null","78","","NaN","","","","","","","","","","","","","",""
"","response","","html-keyboard-response","523","575533","0.0-1.0-707.0-0.0","0","0","17466","","350","","","75","78","","","2","78","training","adjacent","CD","3","4","R.jpg","M.jpg","0","1","0","",""
"","feedback","","html-keyboard-response","524","576548","0.0-1.0-708.0-0.0","0","0","17466","","null","","","null","78","","","","","","","","","","","","","","","",""
"","time_out","","html-keyboard-response","525","578555","0.0-1.0-710.0-0.0","0","0","17466","","null","","","null","78","","","","","","","","","","","","","","","",""
"","ITI","","html-keyboard-response","526","579563","0.0-1.0-711.0","0","0","17466","","null","","","null","78","","","","","","","","","","","","","","","NaN",""
"","S1","","html-keyboard-response","527","579830","0.0-1.0-713.0","0","0","17466","","null","","","null","79","","","","","","","","","","","","","","","",""
"","ISI","","html-keyboard-response","528","581832","0.0-1.0-714.0","0","0","17466","","null","","","null","79","NaN","","","","","","","","","","","","","","",""
"","S2","","html-keyboard-response","529","582086","0.0-1.0-715.0","0","0","17466","","null","","","null","79","","NaN","","","","","","","","","","","","","",""
"","response","","html-keyboard-response","530","582383","0.0-1.0-716.0-0.0","0","0","17466","","294","","","68","79","","","2","79","training","adjacent","BA","2","1","P.jpg","O.jpg","1","0","0","",""
"","feedback","","html-keyboard-response","531","583388","0.0-1.0-717.0-0.0","0","0","17466","","null","","","null","79","","","","","","","","","","","","","","","",""
"","time_out","","html-keyboard-response","532","585396","0.0-1.0-719.0-0.0","0","0","17466","","null","","","null","79","","","","","","","","","","","","","","","",""
"","ITI","","html-keyboard-response","533","586405","0.0-1.0-720.0","0","0","17466","","null","","","null","79","","","","","","","","","","","","","","","NaN",""
"","S1","","html-keyboard-response","534","586657","0.0-1.0-722.0","0","0","17466","","null","","","null","80","","","","","","","","","","","","","","","",""
"","ISI","","html-keyboard-response","535","588665","0.0-1.0-723.0","0","0","17466","","null","","","null","80","NaN","","","","","","","","","","","","","","",""
"","S2","","html-keyboard-response","536","588928","0.0-1.0-724.0","0","0","17466","","null","","","null","80","","NaN","","","","","","","","","","","","","",""
"","response","","html-keyboard-response","537","589173","0.0-1.0-725.0-0.0","0","0","17466","","243","","","75","80","","","2","80","training","adjacent","EF","5","6","L.jpg","Q.jpg","0","1","0","",""
"","feedback","","html-keyboard-response","538","590177","0.0-1.0-726.0-0.0","0","0","17466","","null","","","null","80","","","","","","","","","","","","","","","",""
"","time_out","","html-keyboard-response","539","592180","0.0-1.0-728.0-0.0","0","0","17466","","null","","","null","80","","","","","","","","","","","","","","","",""
"","ITI","","html-keyboard-response","540","593196","0.0-1.0-729.0","0","0","17466","","null","","","null","80","","","","","","","","","","","","","","","NaN",""
"","S1","","html-keyboard-response","541","593460","0.0-1.0-731.0","0","0","17466","","null","","","null","81","","","","","","","","","","","","","","","",""
"","ISI","","html-keyboard-response","542","595462","0.0-1.0-732.0","0","0","17466","","null","","","null","81","NaN","","","","","","","","","","","","","","",""
"","S2","","html-keyboard-response","543","595724","0.0-1.0-733.0","0","0","17466","","null","","","null","81","","NaN","","","","","","","","","","","","","",""
"","response","","html-keyboard-response","544","595892","0.0-1.0-734.0-0.0","0","0","17466","","168","","","75","81","","","2","81","training","adjacent","CD","3","4","R.jpg","M.jpg","0","1","0","",""
"","feedback","","html-keyboard-response","545","596895","0.0-1.0-735.0-0.0","0","0","17466","","null","","","null","81","","","","","","","","","","","","","","","",""
"","time_out","","html-keyboard-response","546","598900","0.0-1.0-737.0-0.0","0","0","17466","","null","","","null","81","","","","","","","","","","","","","","","",""
"","ITI","","html-keyboard-response","547","599918","0.0-1.0-738.0","0","0","17466","","null","","","null","81","","","","","","","","","","","","","","","NaN",""
"","S1","","html-keyboard-response","548","600184","0.0-1.0-740.0","0","0","17466","","null","","","null","82","","","","","","","","","","","","","","","",""
"","ISI","","html-keyboard-response","549","602196","0.0-1.0-741.0","0","0","17466","","null","","","null","82","NaN","","","","","","","","","","","","","","",""
"","S2","","html-keyboard-response","550","602462","0.0-1.0-742.0","0","0","17466","","null","","","null","82","","NaN","","","","","","","","","","","","","",""
"","response","","html-keyboard-response","551","602533","0.0-1.0-743.0-0.0","0","0","17466","","69","","","68","82","","","2","82","training","adjacent","CB","3","2","R.jpg","P.jpg","1","0","0","",""
"","feedback","","html-keyboard-response","552","603547","0.0-1.0-744.0-0.0","0","0","17466","","null","","","null","82","","","","","","","","","","","","","","","",""
"","time_out","","html-keyboard-response","553","605559","0.0-1.0-746.0-0.0","0","0","17466","","null","","","null","82","","","","","","","","","","","","","","","",""
"","ITI","","html-keyboard-response","554","606570","0.0-1.0-747.0","0","0","17466","","null","","","null","82","","","","","","","","","","","","","","","NaN",""
"","S1","","html-keyboard-response","555","606833","0.0-1.0-749.0","0","0","17466","","null","","","null","83","","","","","","","","","","","","","","","",""
"","ISI","","html-keyboard-response","556","608851","0.0-1.0-750.0","0","0","17466","","null","","","null","83","NaN","","","","","","","","","","","","","","",""
"","S2","","html-keyboard-response","557","609118","0.0-1.0-751.0","0","0","17466","","null","","","null","83","","NaN","","","","","","","","","","","","","",""
"","response","","html-keyboard-response","558","609238","0.0-1.0-752.0-0.0","0","0","17466","","117","","","68","83","","","2","83","training","adjacent","DC","4","3","M.jpg","R.jpg","1","0","0","",""
"","feedback","","html-keyboard-response","559","610254","0.0-1.0-753.0-0.0","0","0","17466","","null","","","null","83","","","","","","","","","","","","","","","",""
"","time_out","","html-keyboard-response","560","612265","0.0-1.0-755.0-0.0","0","0","17466","","null","","","null","83","","","","","","","","","","","","","","","",""
"","ITI","","html-keyboard-response","561","613274","0.0-1.0-756.0","0","0","17466","","null","","","null","83","","","","","","","","","","","","","","","NaN",""
"","S1","","html-keyboard-response","562","613536","0.0-1.0-758.0","0","0","17466","","null","","","null","84","","","","","","","","","","","","","","","",""
"","ISI","","html-keyboard-response","563","615540","0.0-1.0-759.0","0","0","17466","","null","","","null","84","NaN","","","","","","","","","","","","","","",""
"","S2","","html-keyboard-response","564","615804","0.0-1.0-760.0","0","0","17466","","null","","","null","84","","NaN","","","","","","","","","","","","","",""
"","response","","html-keyboard-response","565","615869","0.0-1.0-761.0-0.0","0","0","17466","","63","","","75","84","","","2","84","training","adjacent","EF","5","6","L.jpg","Q.jpg","0","1","0","",""
"","feedback","","html-keyboard-response","566","616878","0.0-1.0-762.0-0.0","0","0","17466","","null","","","null","84","","","","","","","","","","","","","","","",""
"","time_out","","html-keyboard-response","567","618881","0.0-1.0-764.0-0.0","0","0","17466","","null","","","null","84","","","","","","","","","","","","","","","",""
"","ITI","","html-keyboard-response","568","619883","0.0-1.0-765.0","0","0","17466","","null","","","null","84","","","","","","","","","","","","","","","NaN",""
"","S1","","html-keyboard-response","569","620147","0.0-1.0-767.0","0","0","17466","","null","","","null","85","","","","","","","","","","","","","","","",""
"","ISI","","html-keyboard-response","570","622150","0.0-1.0-768.0","0","0","17466","","111","","","75","85","k","","","","","","","","","","","","","","",""
"","S2","","html-keyboard-response","571","622402","0.0-1.0-769.0","0","0","17466","","null","","","null","85","","NaN","","","","","","","","","","","","","",""
"","response","","html-keyboard-response","572","622421","0.0-1.0-770.0-0.0","0","0","17466","","18","","","68","85","","","2","85","training","adjacent","CD","3","4","R.jpg","M.jpg","1","1","1","",""
"","feedback","","html-keyboard-response","573","623437","0.0-1.0-771.0-0.0","0","0","17466","","null","","","null","85","","","","","","","","","","","","","","","",""
"","ITI","","html-keyboard-response","574","624440","0.0-1.0-774.0","0","0","17466","","null","","","null","85","","","","","","","","","","","","","","","NaN",""
"","S1","","html-keyboard-response","575","624698","0.0-1.0-776.0","0","0","17466","","null","","","null","86","","","","","","","","","","","","","","","",""
"","ISI","","html-keyboard-response","576","626700","0.0-1.0-777.0","0","0","17466","","null","","","null","86","NaN","","","","","","","","","","","","","","",""
"","S2","","html-keyboard-response","577","626963","0.0-1.0-778.0","0","0","17466","","null","","","null","86","","NaN","","","","","","","","","","","","","",""
"","response","","html-keyboard-response","578","627421","0.0-1.0-779.0-0.0","0","0","17466","","456","","","68","86","","","2","86","training","adjacent","ED","5","4","L.jpg","M.jpg","1","0","0","",""
