"success","ttype","start_time","trial_type","trial_index","time_elapsed","internal_node_id","warning","missed_checkup","PID","view_history","rt","responses","repeat_instructions","key_press","index","keypress_isi","keypress_S2","block","trial_num","phase","group_type","pair_type","S1_stim","S2_stim","S1_img","S2_img","S1_chosen","S1_higher","accuracy","keypress_iti","total_bonus_tally"
"true","full_screen","d03072023hr1746","fullscreen","0","6204","0.0-0.0","0","0","49031","","","","","","","","","","","","","","","","","","","","","",""
"","instructions","","instructions","1","82982","0.0-1.0-0.0-0.0","0","0","49031","[{""page_index"":0,""viewing_time"":3332},{""page_index"":1,""viewing_time"":51948},{""page_index"":2,""viewing_time"":3000},{""page_index"":1,""viewing_time"":11738},{""page_index"":2,""viewing_time"":5132},{""page_index"":3,""viewing_time"":1624}]","76775","","","","","","","","","","","","","","","","","","","",""
"","comprehension_check","","survey-multi-choice","2","108342","0.0-1.0-0.0-1.0","0","0","49031","","25356","{""Q0"":""True"",""Q1"":""K"",""Q2"":""Once the second image appears and while the screen 'MAKE A CHOICE' is shown"",""Q3"":""Green mark"",""Q4"":""either D or K""}","0","","","","","","","","","","","","","","","","","",""
"","start_exp","","html-keyboard-response","3","110215","0.0-1.0-1.0","0","0","49031","","1869","","","32","","","","","","","","","","","","","","","","",""
"","S1","","html-keyboard-response","4","110470","0.0-1.0-2.0","0","0","49031","","null","","","null","0","","","","","","","","","","","","","","","",""
"","ISI","","html-keyboard-response","5","111474","0.0-1.0-3.0","0","0","49031","","652","","","68","0","d","","","","","","","","","","","","","","",""
"","S2","","html-keyboard-response","6","111730","0.0-1.0-4.0","0","0","49031","","null","","","null","0","","NaN","","","","","","","","","","","","","",""
"","response","","html-keyboard-response","7","112638","0.0-1.0-5.0-0.0","0","0","49031","","904","","","75","0","","","1","0","training","adjacent","BA","2","1","O.jpg","R.jpg","1","0","0","",""
"","feedback","","html-keyboard-response","8","113643","0.0-1.0-6.0-0.0","0","0","49031","","null","","","null","0","","","","","","","","","","","","","","","",""
"","time_out","","html-keyboard-response","9","115647","0.0-1.0-8.0-0.0","0","0","49031","","null","","","null","0","","","","","","","","","","","","","","","",""
"","ITI","","html-keyboard-response","10","116651","0.0-1.0-9.0","0","0","49031","","987","","","32","0","","","","","","","","","","","","","","","space",""
"","S1","","html-keyboard-response","11","116906","0.0-1.0-11.0","0","0","49031","","null","","","null","1","","","","","","","","","","","","","","","",""
"","ISI","","html-keyboard-response","12","117910","0.0-1.0-12.0","0","0","49031","","null","","","null","1","NaN","","","","","","","","","","","","","","",""
"","S2","","html-keyboard-response","13","118164","0.0-1.0-13.0","0","0","49031","","null","","","null","1","","NaN","","","","","","","","","","","","","",""
"","response","","html-keyboard-response","14","118718","0.0-1.0-14.0-0.0","0","0","49031","","550","","","68","1","","","1","1","training","adjacent","FE","6","5","Q.jpg","P.jpg","0","0","1","",""
"","feedback","","html-keyboard-response","15","119724","0.0-1.0-15.0-0.0","0","0","49031","","null","","","null","1","","","","","","","","","","","","","","","",""
"","ITI","","html-keyboard-response","16","120726","0.0-1.0-18.0","0","0","49031","","null","","","null","1","","","","","","","","","","","","","","","NaN",""
"","S1","","html-keyboard-response","17","120980","0.0-1.0-20.0","0","0","49031","","null","","","null","2","","","","","","","","","","","","","","","",""
"","ISI","","html-keyboard-response","18","121986","0.0-1.0-21.0","0","0","49031","","null","","","null","2","NaN","","","","","","","","","","","","","","",""
"","S2","","html-keyboard-response","19","122241","0.0-1.0-22.0","0","0","49031","","null","","","null","2","","NaN","","","","","","","","","","","","","",""
"","response","","html-keyboard-response","20","122630","0.0-1.0-23.0-0.0","0","0","49031","","386","","","75","2","","","1","2","training","adjacent","GF","7","6","N.jpg","Q.jpg","1","0","0","",""
"","feedback","","html-keyboard-response","21","123635","0.0-1.0-24.0-0.0","0","0","49031","","null","","","null","2","","","","","","","","","","","","","","","",""
"","time_out","","html-keyboard-response","22","125638","0.0-1.0-26.0-0.0","0","0","49031","","null","","","null","2","","","","","","","","","","","","","","","",""
"","ITI","","html-keyboard-response","23","126642","0.0-1.0-27.0","0","0","49031","","341","","","32","2","","","","","","","","","","","","","","","space",""
"","S1","","html-keyboard-response","24","126897","0.0-1.0-29.0","0","0","49031","","null","","","null","3","","","","","","","","","","","","","","","",""
"","ISI","","html-keyboard-response","25","127900","0.0-1.0-30.0","0","0","49031","","null","","","null","3","NaN","","","","","","","","","","","","","","",""
"","S2","","html-keyboard-response","26","128155","0.0-1.0-31.0","0","0","49031","","null","","","null","3","","NaN","","","","","","","","","","","","","",""
"","response","","html-keyboard-response","27","129238","0.0-1.0-32.0-0.0","0","0","49031","","1080","","","68","3","","","1","3","training","adjacent","BA","2","1","O.jpg","R.jpg","0","0","1","",""
"","feedback","","html-keyboard-response","28","130242","0.0-1.0-33.0-0.0","0","0","49031","","null","","","null","3","","","","","","","","","","","","","","","",""
"","ITI","","html-keyboard-response","29","131247","0.0-1.0-36.0","0","0","49031","","null","","","null","3","","","","","","","","","","","","","","","NaN",""
"","S1","","html-keyboard-response","30","131501","0.0-1.0-38.0","0","0","49031","","null","","","null","4","","","","","","","","","","","","","","","",""
"","ISI","","html-keyboard-response","31","132505","0.0-1.0-39.0","0","0","49031","","null","","","null","4","NaN","","","","","","","","","","","","","","",""
"","S2","","html-keyboard-response","32","132759","0.0-1.0-40.0","0","0","49031","","null","","","null","4","","NaN","","","","","","","","","","","","","",""
"","response","","html-keyboard-response","33","133735","0.0-1.0-41.0-0.0","0","0","49031","","972","","","68","4","","","1","4","training","adjacent","CB","3","2","L.jpg","O.jpg","0","0","1","",""
"","feedback","","html-keyboard-response","34","134739","0.0-1.0-42.0-0.0","0","0","49031","","null","","","null","4","","","","","","","","","","","","","","","",""
"","ITI","","html-keyboard-response","35","135743","0.0-1.0-45.0","0","0","49031","","null","","","null","4","","","","","","","","","","","","","","","NaN",""
"","S1","","html-keyboard-response","36","135998","0.0-1.0-47.0","0","0","49031","","null","","","null","5","","","","","","","","","","","","","","","",""
"","ISI","","html-keyboard-response","37","137002","0.0-1.0-48.0","0","0","49031","","null","","","null","5","NaN","","","","","","","","","","","","","","",""
"","S2","","html-keyboard-response","38","137257","0.0-1.0-49.0","0","0","49031","","null","","","null","5","","NaN","","","","","","","","","","","","","",""
"","response","","html-keyboard-response","39","138047","0.0-1.0-50.0-0.0","0","0","49031","","786","","","75","5","","","1","5","training","adjacent","BC","2","3","O.jpg","L.jpg","1","1","1","",""
"","feedback","","html-keyboard-response","40","139051","0.0-1.0-51.0-0.0","0","0","49031","","null","","","null","5","","","","","","","","","","","","","","","",""
"","ITI","","html-keyboard-response","41","140055","0.0-1.0-54.0","0","0","49031","","null","","","null","5","","","","","","","","","","","","","","","NaN",""
"","S1","","html-keyboard-response","42","140310","0.0-1.0-56.0","0","0","49031","","null","","","null","6","","","","","","","","","","","","","","","",""
"","ISI","","html-keyboard-response","43","141314","0.0-1.0-57.0","0","0","49031","","null","","","null","6","NaN","","","","","","","","","","","","","","",""
"","S2","","html-keyboard-response","44","141568","0.0-1.0-58.0","0","0","49031","","null","","","null","6","","NaN","","","","","","","","","","","","","",""
"","response","","html-keyboard-response","45","142895","0.0-1.0-59.0-0.0","0","0","49031","","1323","","","68","6","","","1","6","training","adjacent","FG","6","7","Q.jpg","N.jpg","0","1","0","",""
"","feedback","","html-keyboard-response","46","143899","0.0-1.0-60.0-0.0","0","0","49031","","null","","","null","6","","","","","","","","","","","","","","","",""
"","time_out","","html-keyboard-response","47","145903","0.0-1.0-62.0-0.0","0","0","49031","","null","","","null","6","","","","","","","","","","","","","","","",""
"","ITI","","html-keyboard-response","48","146907","0.0-1.0-63.0","0","0","49031","","812","","","75","6","","","","","","","","","","","","","","","k",""
"","S1","","html-keyboard-response","49","147162","0.0-1.0-65.0","0","0","49031","","null","","","null","7","","","","","","","","","","","","","","","",""
"","ISI","","html-keyboard-response","50","148166","0.0-1.0-66.0","0","0","49031","","null","","","null","7","NaN","","","","","","","","","","","","","","",""
"","S2","","html-keyboard-response","51","148420","0.0-1.0-67.0","0","0","49031","","null","","","null","7","","NaN","","","","","","","","","","","","","",""
"","response","","html-keyboard-response","52","149295","0.0-1.0-68.0-0.0","0","0","49031","","871","","","75","7","","","1","7","training","adjacent","EF","5","6","P.jpg","Q.jpg","1","1","1","",""
"","feedback","","html-keyboard-response","53","150299","0.0-1.0-69.0-0.0","0","0","49031","","null","","","null","7","","","","","","","","","","","","","","","",""
"","ITI","","html-keyboard-response","54","151304","0.0-1.0-72.0","0","0","49031","","null","","","null","7","","","","","","","","","","","","","","","NaN",""
"","S1","","html-keyboard-response","55","151559","0.0-1.0-74.0","0","0","49031","","null","","","null","8","","","","","","","","","","","","","","","",""
"","ISI","","html-keyboard-response","56","152563","0.0-1.0-75.0","0","0","49031","","null","","","null","8","NaN","","","","","","","","","","","","","","",""
"","S2","","html-keyboard-response","57","152818","0.0-1.0-76.0","0","0","49031","","null","","","null","8","","NaN","","","","","","","","","","","","","",""
"","response","","html-keyboard-response","58","153519","0.0-1.0-77.0-0.0","0","0","49031","","697","","","75","8","","","1","8","training","adjacent","CB","3","2","L.jpg","O.jpg","1","0","0","",""
"","feedback","","html-keyboard-response","59","154523","0.0-1.0-78.0-0.0","0","0","49031","","null","","","null","8","","","","","","","","","","","","","","","",""
"","time_out","","html-keyboard-response","60","156528","0.0-1.0-80.0-0.0","0","0","49031","","null","","","null","8","","","","","","","","","","","","","","","",""
"","ITI","","html-keyboard-response","61","157532","0.0-1.0-81.0","0","0","49031","","null","","","null","8","","","","","","","","","","","","","","","NaN",""
"","S1","","html-keyboard-response","62","157786","0.0-1.0-83.0","0","0","49031","","null","","","null","9","","","","","","","","","","","","","","","",""
"","ISI","","html-keyboard-response","63","158790","0.0-1.0-84.0","0","0","49031","","null","","","null","9","NaN","","","","","","","","","","","","","","",""
"","S2","","html-keyboard-response","64","159045","0.0-1.0-85.0","0","0","49031","","null","","","null","9","","NaN","","","","","","","","","","","","","",""
"","response","","html-keyboard-response","65","160319","0.0-1.0-86.0-0.0","0","0","49031","","1270","","","68","9","","","1","9","training","adjacent","BC","2","3","O.jpg","L.jpg","0","1","0","",""
"","feedback","","html-keyboard-response","66","161323","0.0-1.0-87.0-0.0","0","0","49031","","null","","","null","9","","","","","","","","","","","","","","","",""
"","time_out","","html-keyboard-response","67","163327","0.0-1.0-89.0-0.0","0","0","49031","","null","","","null","9","","","","","","","","","","","","","","","",""
"","ITI","","html-keyboard-response","68","164332","0.0-1.0-90.0","0","0","49031","","null","","","null","9","","","","","","","","","","","","","","","NaN",""
"","S1","","html-keyboard-response","69","164585","0.0-1.0-92.0","0","0","49031","","null","","","null","10","","","","","","","","","","","","","","","",""
"","ISI","","html-keyboard-response","70","165590","0.0-1.0-93.0","0","0","49031","","null","","","null","10","NaN","","","","","","","","","","","","","","",""
"","S2","","html-keyboard-response","71","165848","0.0-1.0-94.0","0","0","49031","","null","","","null","10","","NaN","","","","","","","","","","","","","",""
"","response","","html-keyboard-response","72","166724","0.0-1.0-95.0-0.0","0","0","49031","","873","","","68","10","","","1","10","training","adjacent","ED","5","4","P.jpg","M.jpg","0","0","1","",""
"","feedback","","html-keyboard-response","73","167728","0.0-1.0-96.0-0.0","0","0","49031","","null","","","null","10","","","","","","","","","","","","","","","",""
"","ITI","","html-keyboard-response","74","168732","0.0-1.0-99.0","0","0","49031","","null","","","null","10","","","","","","","","","","","","","","","NaN",""
"","S1","","html-keyboard-response","75","168987","0.0-1.0-101.0","0","0","49031","","null","","","null","11","","","","","","","","","","","","","","","",""
"","ISI","","html-keyboard-response","76","169990","0.0-1.0-102.0","0","0","49031","","null","","","null","11","NaN","","","","","","","","","","","","","","",""
"","S2","","html-keyboard-response","77","170244","0.0-1.0-103.0","0","0","49031","","null","","","null","11","","NaN","","","","","","","","","","","","","",""
"","response","","html-keyboard-response","78","170631","0.0-1.0-104.0-0.0","0","0","49031","","383","","","75","11","","","1","11","training","adjacent","DE","4","5","M.jpg","P.jpg","1","1","1","",""
"","feedback","","html-keyboard-response","79","171636","0.0-1.0-105.0-0.0","0","0","49031","","null","","","null","11","","","","","","","","","","","","","","","",""
"","ITI","","html-keyboard-response","80","172640","0.0-1.0-108.0","0","0","49031","","null","","","null","11","","","","","","","","","","","","","","","NaN",""
"","S1","","html-keyboard-response","81","172896","0.0-1.0-110.0","0","0","49031","","null","","","null","12","","","","","","","","","","","","","","","",""
"","ISI","","html-keyboard-response","82","173900","0.0-1.0-111.0","0","0","49031","","null","","","null","12","NaN","","","","","","","","","","","","","","",""
"","S2","","html-keyboard-response","83","174155","0.0-1.0-112.0","0","0","49031","","null","","","null","12","","NaN","","","","","","","","","","","","","",""
"","response","","html-keyboard-response","84","174848","0.0-1.0-113.0-0.0","0","0","49031","","688","","","68","12","","","1","12","training","adjacent","GF","7","6","N.jpg","Q.jpg","0","0","1","",""
"","feedback","","html-keyboard-response","85","175852","0.0-1.0-114.0-0.0","0","0","49031","","null","","","null","12","","","","","","","","","","","","","","","",""
"","ITI","","html-keyboard-response","86","176856","0.0-1.0-117.0","0","0","49031","","null","","","null","12","","","","","","","","","","","","","","","NaN",""
"","S1","","html-keyboard-response","87","177110","0.0-1.0-119.0","0","0","49031","","null","","","null","13","","","","","","","","","","","","","","","",""
"","ISI","","html-keyboard-response","88","178113","0.0-1.0-120.0","0","0","49031","","null","","","null","13","NaN","","","","","","","","","","","","","","",""
"","S2","","html-keyboard-response","89","178369","0.0-1.0-121.0","0","0","49031","","null","","","null","13","","NaN","","","","","","","","","","","","","",""
"","response","","html-keyboard-response","90","179214","0.0-1.0-122.0-0.0","0","0","49031","","842","","","75","13","","","1","13","training","adjacent","DC","4","3","M.jpg","L.jpg","1","0","0","",""
"","feedback","","html-keyboard-response","91","180220","0.0-1.0-123.0-0.0","0","0","49031","","null","","","null","13","","","","","","","","","","","","","","","",""
"","time_out","","html-keyboard-response","92","182224","0.0-1.0-125.0-0.0","0","0","49031","","null","","","null","13","","","","","","","","","","","","","","","",""
"","ITI","","html-keyboard-response","93","183227","0.0-1.0-126.0","0","0","49031","","null","","","null","13","","","","","","","","","","","","","","","NaN",""
"","S1","","html-keyboard-response","94","183479","0.0-1.0-128.0","0","0","49031","","null","","","null","14","","","","","","","","","","","","","","","",""
"","ISI","","html-keyboard-response","95","184482","0.0-1.0-129.0","0","0","49031","","null","","","null","14","NaN","","","","","","","","","","","","","","",""
"","S2","","html-keyboard-response","96","184737","0.0-1.0-130.0","0","0","49031","","null","","","null","14","","NaN","","","","","","","","","","","","","",""
"","response","","html-keyboard-response","97","186492","0.0-1.0-131.0-0.0","0","0","49031","","null","","","null","14","","","1","14","training","adjacent","CB","3","2","L.jpg","O.jpg","NaN","0","0","",""
"","too_slow_prompt","","html-keyboard-response","98","187496","0.0-1.0-133.0-0.0","1","0","49031","","null","","","null","","","","","","","","","","","","","","","","",""
"","time_out","","html-keyboard-response","99","189500","0.0-1.0-134.0-0.0","0","0","49031","","null","","","null","14","","","","","","","","","","","","","","","",""
"","ITI","","html-keyboard-response","100","190504","0.0-1.0-135.0","0","0","49031","","null","","","null","14","","","","","","","","","","","","","","","NaN",""
"","S1","","html-keyboard-response","101","190757","0.0-1.0-137.0","0","0","49031","","null","","","null","15","","","","","","","","","","","","","","","",""
"","ISI","","html-keyboard-response","102","191761","0.0-1.0-138.0","0","0","49031","","null","","","null","15","NaN","","","","","","","","","","","","","","",""
"","S2","","html-keyboard-response","103","192015","0.0-1.0-139.0","0","0","49031","","null","","","null","15","","NaN","","","","","","","","","","","","","",""
"","response","","html-keyboard-response","104","192101","0.0-1.0-140.0-0.0","0","0","49031","","83","","","68","15","","","1","15","training","adjacent","FE","6","5","Q.jpg","P.jpg","0","0","1","",""
"","feedback","","html-keyboard-response","105","193105","0.0-1.0-141.0-0.0","0","0","49031","","null","","","null","15","","","","","","","","","","","","","","","",""
"","ITI","","html-keyboard-response","106","194108","0.0-1.0-144.0","0","0","49031","","null","","","null","15","","","","","","","","","","","","","","","NaN",""
"","S1","","html-keyboard-response","107","194363","0.0-1.0-146.0","0","0","49031","","null","","","null","16","","","","","","","","","","","","","","","",""
"","ISI","","html-keyboard-response","108","195367","0.0-1.0-147.0","0","0","49031","","null","","","null","16","NaN","","","","","","","","","","","","","","",""
"","S2","","html-keyboard-response","109","195621","0.0-1.0-148.0","0","0","49031","","null","","","null","16","","NaN","","","","","","","","","","","","","",""
"","response","","html-keyboard-response","110","195751","0.0-1.0-149.0-0.0","0","0","49031","","126","","","75","16","","","1","16","training","adjacent","DC","4","3","M.jpg","L.jpg","1","0","0","",""
"","feedback","","html-keyboard-response","111","196759","0.0-1.0-150.0-0.0","0","0","49031","","null","","","null","16","","","","","","","","","","","","","","","",""
"","time_out","","html-keyboard-response","112","198763","0.0-1.0-152.0-0.0","0","0","49031","","null","","","null","16","","","","","","","","","","","","","","","",""
"","ITI","","html-keyboard-response","113","199768","0.0-1.0-153.0","0","0","49031","","null","","","null","16","","","","","","","","","","","","","","","NaN",""
"","S1","","html-keyboard-response","114","200021","0.0-1.0-155.0","0","0","49031","","null","","","null","17","","","","","","","","","","","","","","","",""
"","ISI","","html-keyboard-response","115","201025","0.0-1.0-156.0","0","0","49031","","null","","","null","17","NaN","","","","","","","","","","","","","","",""
"","S2","","html-keyboard-response","116","201280","0.0-1.0-157.0","0","0","49031","","null","","","null","17","","NaN","","","","","","","","","","","","","",""
"","response","","html-keyboard-response","117","202054","0.0-1.0-158.0-0.0","0","0","49031","","771","","","68","17","","","1","17","training","adjacent","ED","5","4","P.jpg","M.jpg","0","0","1","",""
"","feedback","","html-keyboard-response","118","203059","0.0-1.0-159.0-0.0","0","0","49031","","null","","","null","17","","","","","","","","","","","","","","","",""
"","ITI","","html-keyboard-response","119","204063","0.0-1.0-162.0","0","0","49031","","null","","","null","17","","","","","","","","","","","","","","","NaN",""
"","S1","","html-keyboard-response","120","204317","0.0-1.0-164.0","0","0","49031","","null","","","null","18","","","","","","","","","","","","","","","",""
"","ISI","","html-keyboard-response","121","205321","0.0-1.0-165.0","0","0","49031","","null","","","null","18","NaN","","","","","","","","","","","","","","",""
"","S2","","html-keyboard-response","122","205577","0.0-1.0-166.0","0","0","49031","","null","","","null","18","","NaN","","","","","","","","","","","","","",""
"","response","","html-keyboard-response","123","206174","0.0-1.0-167.0-0.0","0","0","49031","","593","","","68","18","","","1","18","training","adjacent","CD","3","4","L.jpg","M.jpg","0","1","0","",""
"","feedback","","html-keyboard-response","124","207178","0.0-1.0-168.0-0.0","0","0","49031","","null","","","null","18","","","","","","","","","","","","","","","",""
"","time_out","","html-keyboard-response","125","209181","0.0-1.0-170.0-0.0","0","0","49031","","null","","","null","18","","","","","","","","","","","","","","","",""
"","ITI","","html-keyboard-response","126","210187","0.0-1.0-171.0","0","0","49031","","null","","","null","18","","","","","","","","","","","","","","","NaN",""
"","S1","","html-keyboard-response","127","210441","0.0-1.0-173.0","0","0","49031","","null","","","null","19","","","","","","","","","","","","","","","",""
"","ISI","","html-keyboard-response","128","211445","0.0-1.0-174.0","0","0","49031","","null","","","null","19","NaN","","","","","","","","","","","","","","",""
"","S2","","html-keyboard-response","129","211698","0.0-1.0-175.0","0","0","49031","","null","","","null","19","","NaN","","","","","","","","","","","","","",""
"","response","","html-keyboard-response","130","212167","0.0-1.0-176.0-0.0","0","0","49031","","465","","","68","19","","","1","19","training","adjacent","ED","5","4","P.jpg","M.jpg","0","0","1","",""
"","feedback","","html-keyboard-response","131","213171","0.0-1.0-177.0-0.0","0","0","49031","","null","","","null","19","","","","","","","","","","","","","","","",""
"","ITI","","html-keyboard-response","132","214184","0.0-1.0-180.0","0","0","49031","","null","","","null","19","","","","","","","","","","","","","","","NaN",""
"","S1","","html-keyboard-response","133","214438","0.0-1.0-182.0","0","0","49031","","null","","","null","20","","","","","","","","","","","","","","","",""
"","ISI","","html-keyboard-response","134","215442","0.0-1.0-183.0","0","0","49031","","null","","","null","20","NaN","","","","","","","","","","","","","","",""
"","S2","","html-keyboard-response","135","215697","0.0-1.0-184.0","0","0","49031","","null","","","null","20","","NaN","","","","","","","","","","","","","",""
"","response","","html-keyboard-response","136","216327","0.0-1.0-185.0-0.0","0","0","49031","","627","","","68","20","","","1","20","training","adjacent","FG","6","7","Q.jpg","N.jpg","0","1","0","",""
"","feedback","","html-keyboard-response","137","217330","0.0-1.0-186.0-0.0","0","0","49031","","null","","","null","20","","","","","","","","","","","","","","","",""
"","time_out","","html-keyboard-response","138","219334","0.0-1.0-188.0-0.0","0","0","49031","","null","","","null","20","","","","","","","","","","","","","","","",""
"","ITI","","html-keyboard-response","139","220338","0.0-1.0-189.0","0","0","49031","","null","","","null","20","","","","","","","","","","","","","","","NaN",""
"","S1","","html-keyboard-response","140","220592","0.0-1.0-191.0","0","0","49031","","null","","","null","21","","","","","","","","","","","","","","","",""
"","ISI","","html-keyboard-response","141","221603","0.0-1.0-192.0","0","0","49031","","null","","","null","21","NaN","","","","","","","","","","","","","","",""
"","S2","","html-keyboard-response","142","221857","0.0-1.0-193.0","0","0","49031","","null","","","null","21","","NaN","","","","","","","","","","","","","",""
"","response","","html-keyboard-response","143","222902","0.0-1.0-194.0-0.0","0","0","49031","","1042","","","68","21","","","1","21","training","adjacent","GF","7","6","N.jpg","Q.jpg","0","0","1","",""
"","feedback","","html-keyboard-response","144","223907","0.0-1.0-195.0-0.0","0","0","49031","","null","","","null","21","","","","","","","","","","","","","","","",""
"","ITI","","html-keyboard-response","145","224910","0.0-1.0-198.0","0","0","49031","","null","","","null","21","","","","","","","","","","","","","","","NaN",""
"","S1","","html-keyboard-response","146","225165","0.0-1.0-200.0","0","0","49031","","null","","","null","22","","","","","","","","","","","","","","","",""
"","ISI","","html-keyboard-response","147","226168","0.0-1.0-201.0","0","0","49031","","null","","","null","22","NaN","","","","","","","","","","","","","","",""
"","S2","","html-keyboard-response","148","226423","0.0-1.0-202.0","0","0","49031","","null","","","null","22","","NaN","","","","","","","","","","","","","",""
"","response","","html-keyboard-response","149","227575","0.0-1.0-203.0-0.0","0","0","49031","","1148","","","68","22","","","1","22","training","adjacent","EF","5","6","P.jpg","Q.jpg","0","1","0","",""
"","feedback","","html-keyboard-response","150","228579","0.0-1.0-204.0-0.0","0","0","49031","","null","","","null","22","","","","","","","","","","","","","","","",""
"","time_out","","html-keyboard-response","151","230583","0.0-1.0-206.0-0.0","0","0","49031","","null","","","null","22","","","","","","","","","","","","","","","",""
"","ITI","","html-keyboard-response","152","231588","0.0-1.0-207.0","0","0","49031","","null","","","null","22","","","","","","","","","","","","","","","NaN",""
"","S1","","html-keyboard-response","153","231843","0.0-1.0-209.0","0","0","49031","","null","","","null","23","","","","","","","","","","","","","","","",""
"","ISI","","html-keyboard-response","154","232846","0.0-1.0-210.0","0","0","49031","","null","","","null","23","NaN","","","","","","","","","","","","","","",""
"","S2","","html-keyboard-response","155","233100","0.0-1.0-211.0","0","0","49031","","null","","","null","23","","NaN","","","","","","","","","","","","","",""
"","response","","html-keyboard-response","156","233567","0.0-1.0-212.0-0.0","0","0","49031","","463","","","75","23","","","1","23","training","adjacent","FE","6","5","Q.jpg","P.jpg","1","0","0","",""
"","feedback","","html-keyboard-response","157","234572","0.0-1.0-213.0-0.0","0","0","49031","","null","","","null","23","","","","","","","","","","","","","","","",""
"","time_out","","html-keyboard-response","158","236576","0.0-1.0-215.0-0.0","0","0","49031","","null","","","null","23","","","","","","","","","","","","","","","",""
"","ITI","","html-keyboard-response","159","237580","0.0-1.0-216.0","0","0","49031","","null","","","null","23","","","","","","","","","","","","","","","NaN",""
"","S1","","html-keyboard-response","160","237834","0.0-1.0-218.0","0","0","49031","","null","","","null","24","","","","","","","","","","","","","","","",""
"","ISI","","html-keyboard-response","161","238838","0.0-1.0-219.0","0","0","49031","","null","","","null","24","NaN","","","","","","","","","","","","","","",""
"","S2","","html-keyboard-response","162","239092","0.0-1.0-220.0","0","0","49031","","null","","","null","24","","NaN","","","","","","","","","","","","","",""
"","response","","html-keyboard-response","163","239462","0.0-1.0-221.0-0.0","0","0","49031","","367","","","75","24","","","1","24","training","adjacent","DE","4","5","M.jpg","P.jpg","1","1","1","",""
"","feedback","","html-keyboard-response","164","240467","0.0-1.0-222.0-0.0","0","0","49031","","null","","","null","24","","","","","","","","","","","","","","","",""
"","ITI","","html-keyboard-response","165","241471","0.0-1.0-225.0","0","0","49031","","null","","","null","24","","","","","","","","","","","","","","","NaN",""
"","S1","","html-keyboard-response","166","241726","0.0-1.0-227.0","0","0","49031","","null","","","null","25","","","","","","","","","","","","","","","",""
"","ISI","","html-keyboard-response","167","242729","0.0-1.0-228.0","0","0","49031","","null","","","null","25","NaN","","","","","","","","","","","","","","",""
"","S2","","html-keyboard-response","168","242983","0.0-1.0-229.0","0","0","49031","","null","","","null","25","","NaN","","","","","","","","","","","","","",""
"","response","","html-keyboard-response","169","243101","0.0-1.0-230.0-0.0","0","0","49031","","114","","","68","25","","","1","25","training","adjacent","BA","2","1","O.jpg","R.jpg","0","0","1","",""
"","feedback","","html-keyboard-response","170","244106","0.0-1.0-231.0-0.0","0","0","49031","","null","","","null","25","","","","","","","","","","","","","","","",""
"","ITI","","html-keyboard-response","171","245109","0.0-1.0-234.0","0","0","49031","","null","","","null","25","","","","","","","","","","","","","","","NaN",""
"","S1","","html-keyboard-response","172","245363","0.0-1.0-236.0","0","0","49031","","null","","","null","26","","","","","","","","","","","","","","","",""
"","ISI","","html-keyboard-response","173","246367","0.0-1.0-237.0","0","0","49031","","null","","","null","26","NaN","","","","","","","","","","","","","","",""
"","S2","","html-keyboard-response","174","246621","0.0-1.0-238.0","0","0","49031","","null","","","null","26","","NaN","","","","","","","","","","","","","",""
"","response","","html-keyboard-response","175","246925","0.0-1.0-239.0-0.0","0","0","49031","","300","","","68","26","","","1","26","training","adjacent","GF","7","6","N.jpg","Q.jpg","0","0","1","",""
"","feedback","","html-keyboard-response","176","247930","0.0-1.0-240.0-0.0","0","0","49031","","null","","","null","26","","","","","","","","","","","","","","","",""
"","ITI","","html-keyboard-response","177","248933","0.0-1.0-243.0","0","0","49031","","null","","","null","26","","","","","","","","","","","","","","","NaN",""
"","S1","","html-keyboard-response","178","249188","0.0-1.0-245.0","0","0","49031","","null","","","null","27","","","","","","","","","","","","","","","",""
"","ISI","","html-keyboard-response","179","250193","0.0-1.0-246.0","0","0","49031","","null","","","null","27","NaN","","","","","","","","","","","","","","",""
"","S2","","html-keyboard-response","180","250447","0.0-1.0-247.0","0","0","49031","","null","","","null","27","","NaN","","","","","","","","","","","","","",""
"","response","","html-keyboard-response","181","250541","0.0-1.0-248.0-0.0","0","0","49031","","90","","","75","27","","","1","27","training","adjacent","CB","3","2","L.jpg","O.jpg","1","0","0","",""
"","feedback","","html-keyboard-response","182","251546","0.0-1.0-249.0-0.0","0","0","49031","","null","","","null","27","","","","","","","","","","","","","","","",""
"","time_out","","html-keyboard-response","183","253550","0.0-1.0-251.0-0.0","0","0","49031","","null","","","null","27","","","","","","","","","","","","","","","",""
"","ITI","","html-keyboard-response","184","254554","0.0-1.0-252.0","0","0","49031","","null","","","null","27","","","","","","","","","","","","","","","NaN",""
"","S1","","html-keyboard-response","185","254808","0.0-1.0-254.0","0","0","49031","","null","","","null","28","","","","","","","","","","","","","","","",""
"","ISI","","html-keyboard-response","186","255812","0.0-1.0-255.0","0","0","49031","","null","","","null","28","NaN","","","","","","","","","","","","","","",""
"","S2","","html-keyboard-response","187","256068","0.0-1.0-256.0","0","0","49031","","null","","","null","28","","NaN","","","","","","","","","","","","","",""
"","response","","html-keyboard-response","188","256261","0.0-1.0-257.0-0.0","0","0","49031","","189","","","68","28","","","1","28","training","adjacent","BC","2","3","O.jpg","L.jpg","0","1","0","",""
"","feedback","","html-keyboard-response","189","257266","0.0-1.0-258.0-0.0","0","0","49031","","null","","","null","28","","","","","","","","","","","","","","","",""
"","time_out","","html-keyboard-response","190","259271","0.0-1.0-260.0-0.0","0","0","49031","","null","","","null","28","","","","","","","","","","","","","","","",""
"","ITI","","html-keyboard-response","191","260275","0.0-1.0-261.0","0","0","49031","","null","","","null","28","","","","","","","","","","","","","","","NaN",""
"","S1","","html-keyboard-response","192","260530","0.0-1.0-263.0","0","0","49031","","null","","","null","29","","","","","","","","","","","","","","","",""
"","ISI","","html-keyboard-response","193","261535","0.0-1.0-264.0","0","0","49031","","null","","","null","29","NaN","","","","","","","","","","","","","","",""
"","S2","","html-keyboard-response","194","261790","0.0-1.0-265.0","0","0","49031","","null","","","null","29","","NaN","","","","","","","","","","","","","",""
"","response","","html-keyboard-response","195","261917","0.0-1.0-266.0-0.0","0","0","49031","","124","","","75","29","","","1","29","training","adjacent","DE","4","5","M.jpg","P.jpg","1","1","1","",""
"","feedback","","html-keyboard-response","196","262921","0.0-1.0-267.0-0.0","0","0","49031","","null","","","null","29","","","","","","","","","","","","","","","",""
"","ITI","","html-keyboard-response","197","263925","0.0-1.0-270.0","0","0","49031","","null","","","null","29","","","","","","","","","","","","","","","NaN",""
"","S1","","html-keyboard-response","198","264179","0.0-1.0-272.0","0","0","49031","","null","","","null","30","","","","","","","","","","","","","","","",""
"","ISI","","html-keyboard-response","199","265183","0.0-1.0-273.0","0","0","49031","","null","","","null","30","NaN","","","","","","","","","","","","","","",""
"","S2","","html-keyboard-response","200","265437","0.0-1.0-274.0","0","0","49031","","null","","","null","30","","NaN","","","","","","","","","","","","","",""
"","response","","html-keyboard-response","201","265933","0.0-1.0-275.0-0.0","0","0","49031","","492","","","75","30","","","1","30","training","adjacent","AB","1","2","R.jpg","O.jpg","1","1","1","",""
"","feedback","","html-keyboard-response","202","266940","0.0-1.0-276.0-0.0","0","0","49031","","null","","","null","30","","","","","","","","","","","","","","","",""
"","ITI","","html-keyboard-response","203","267945","0.0-1.0-279.0","0","0","49031","","null","","","null","30","","","","","","","","","","","","","","","NaN",""
"","S1","","html-keyboard-response","204","268199","0.0-1.0-281.0","0","0","49031","","null","","","null","31","","","","","","","","","","","","","","","",""
"","ISI","","html-keyboard-response","205","269202","0.0-1.0-282.0","0","0","49031","","null","","","null","31","NaN","","","","","","","","","","","","","","",""
"","S2","","html-keyboard-response","206","269457","0.0-1.0-283.0","0","0","49031","","null","","","null","31","","NaN","","","","","","","","","","","","","",""
"","response","","html-keyboard-response","207","269919","0.0-1.0-284.0-0.0","0","0","49031","","456","","","75","31","","","1","31","training","adjacent","AB","1","2","R.jpg","O.jpg","1","1","1","",""
"","feedback","","html-keyboard-response","208","270925","0.0-1.0-285.0-0.0","0","0","49031","","null","","","null","31","","","","","","","","","","","","","","","",""
"","ITI","","html-keyboard-response","209","271930","0.0-1.0-288.0","0","0","49031","","null","","","null","31","","","","","","","","","","","","","","","NaN",""
"","S1","","html-keyboard-response","210","272185","0.0-1.0-290.0","0","0","49031","","null","","","null","32","","","","","","","","","","","","","","","",""
"","ISI","","html-keyboard-response","211","273188","0.0-1.0-291.0","0","0","49031","","null","","","null","32","NaN","","","","","","","","","","","","","","",""
"","S2","","html-keyboard-response","212","273442","0.0-1.0-292.0","0","0","49031","","null","","","null","32","","NaN","","","","","","","","","","","","","",""
"","response","","html-keyboard-response","213","273822","0.0-1.0-293.0-0.0","0","0","49031","","375","","","75","32","","","1","32","training","adjacent","CD","3","4","L.jpg","M.jpg","1","1","1","",""
"","feedback","","html-keyboard-response","214","274826","0.0-1.0-294.0-0.0","0","0","49031","","null","","","null","32","","","","","","","","","","","","","","","",""
"","ITI","","html-keyboard-response","215","275831","0.0-1.0-297.0","0","0","49031","","null","","","null","32","","","","","","","","","","","","","","","NaN",""
"","S1","","html-keyboard-response","216","276085","0.0-1.0-299.0","0","0","49031","","null","","","null","33","","","","","","","","","","","","","","","",""
"","ISI","","html-keyboard-response","217","277088","0.0-1.0-300.0","0","0","49031","","null","","","null","33","NaN","","","","","","","","","","","","","","",""
"","S2","","html-keyboard-response","218","277343","0.0-1.0-301.0","0","0","49031","","null","","","null","33","","NaN","","","","","","","","","","","","","",""
"","response","","html-keyboard-response","219","277781","0.0-1.0-302.0-0.0","0","0","49031","","434","","","68","33","","","1","33","training","adjacent","CD","3","4","L.jpg","M.jpg","0","1","0","",""
"","feedback","","html-keyboard-response","220","278786","0.0-1.0-303.0-0.0","0","0","49031","","null","","","null","33","","","","","","","","","","","","","","","",""
"","time_out","","html-keyboard-response","221","280790","0.0-1.0-305.0-0.0","0","0","49031","","null","","","null","33","","","","","","","","","","","","","","","",""
"","ITI","","html-keyboard-response","222","281795","0.0-1.0-306.0","0","0","49031","","null","","","null","33","","","","","","","","","","","","","","","NaN",""
"","S1","","html-keyboard-response","223","282049","0.0-1.0-308.0","0","0","49031","","null","","","null","34","","","","","","","","","","","","","","","",""
"","ISI","","html-keyboard-response","224","283053","0.0-1.0-309.0","0","0","49031","","null","","","null","34","NaN","","","","","","","","","","","","","","",""
"","S2","","html-keyboard-response","225","283307","0.0-1.0-310.0","0","0","49031","","null","","","null","34","","NaN","","","","","","","","","","","","","",""
"","response","","html-keyboard-response","226","283629","0.0-1.0-311.0-0.0","0","0","49031","","318","","","68","34","","","1","34","training","adjacent","BC","2","3","O.jpg","L.jpg","0","1","0","",""
"","feedback","","html-keyboard-response","227","284635","0.0-1.0-312.0-0.0","0","0","49031","","null","","","null","34","","","","","","","","","","","","","","","",""
"","time_out","","html-keyboard-response","228","286640","0.0-1.0-314.0-0.0","0","0","49031","","null","","","null","34","","","","","","","","","","","","","","","",""
"","ITI","","html-keyboard-response","229","287645","0.0-1.0-315.0","0","0","49031","","null","","","null","34","","","","","","","","","","","","","","","NaN",""
"","S1","","html-keyboard-response","230","287901","0.0-1.0-317.0","0","0","49031","","null","","","null","35","","","","","","","","","","","","","","","",""
"","ISI","","html-keyboard-response","231","288905","0.0-1.0-318.0","0","0","49031","","null","","","null","35","NaN","","","","","","","","","","","","","","",""
"","S2","","html-keyboard-response","232","289160","0.0-1.0-319.0","0","0","49031","","null","","","null","35","","NaN","","","","","","","","","","","","","",""
"","response","","html-keyboard-response","233","289527","0.0-1.0-320.0-0.0","0","0","49031","","364","","","75","35","","","1","35","training","adjacent","DE","4","5","M.jpg","P.jpg","1","1","1","",""
"","feedback","","html-keyboard-response","234","290533","0.0-1.0-321.0-0.0","0","0","49031","","null","","","null","35","","","","","","","","","","","","","","","",""
"","ITI","","html-keyboard-response","235","291549","0.0-1.0-324.0","0","0","49031","","null","","","null","35","","","","","","","","","","","","","","","NaN",""
"","S1","","html-keyboard-response","236","291803","0.0-1.0-326.0","0","0","49031","","null","","","null","36","","","","","","","","","","","","","","","",""
"","ISI","","html-keyboard-response","237","292807","0.0-1.0-327.0","0","0","49031","","null","","","null","36","NaN","","","","","","","","","","","","","","",""
"","S2","","html-keyboard-response","238","293062","0.0-1.0-328.0","0","0","49031","","null","","","null","36","","NaN","","","","","","","","","","","","","",""
"","response","","html-keyboard-response","239","293461","0.0-1.0-329.0-0.0","0","0","49031","","395","","","75","36","","","1","36","training","adjacent","AB","1","2","R.jpg","O.jpg","1","1","1","",""
"","feedback","","html-keyboard-response","240","294466","0.0-1.0-330.0-0.0","0","0","49031","","null","","","null","36","","","","","","","","","","","","","","","",""
"","ITI","","html-keyboard-response","241","295470","0.0-1.0-333.0","0","0","49031","","null","","","null","36","","","","","","","","","","","","","","","NaN",""
"","S1","","html-keyboard-response","242","295725","0.0-1.0-335.0","0","0","49031","","null","","","null","37","","","","","","","","","","","","","","","",""
"","ISI","","html-keyboard-response","243","296729","0.0-1.0-336.0","0","0","49031","","null","","","null","37","NaN","","","","","","","","","","","","","","",""
"","S2","","html-keyboard-response","244","296981","0.0-1.0-337.0","0","0","49031","","248","","","68","37","","d","1","37","training","adjacent","BA","2","1","O.jpg","R.jpg","0","0","1","",""
"","feedback","","html-keyboard-response","245","297986","0.0-1.0-339.0-0.0","0","0","49031","","null","","","null","37","","","","","","","","","","","","","","","",""
"","ITI","","html-keyboard-response","246","298990","0.0-1.0-342.0","0","0","49031","","null","","","null","37","","","","","","","","","","","","","","","NaN",""
"","S1","","html-keyboard-response","247","299245","0.0-1.0-344.0","0","0","49031","","null","","","null","38","","","","","","","","","","","","","","","",""
"","ISI","","html-keyboard-response","248","300249","0.0-1.0-345.0","0","0","49031","","null","","","null","38","NaN","","","","","","","","","","","","","","",""
"","S2","","html-keyboard-response","249","300504","0.0-1.0-346.0","0","0","49031","","null","","","null","38","","NaN","","","","","","","","","","","","","",""
"","response","","html-keyboard-response","250","300621","0.0-1.0-347.0-0.0","0","0","49031","","114","","","68","38","","","1","38","training","adjacent","ED","5","4","P.jpg","M.jpg","0","0","1","",""
"","feedback","","html-keyboard-response","251","301626","0.0-1.0-348.0-0.0","0","0","49031","","null","","","null","38","","","","","","","","","","","","","","","",""
"","ITI","","html-keyboard-response","252","302630","0.0-1.0-351.0","0","0","49031","","null","","","null","38","","","","","","","","","","","","","","","NaN",""
"","S1","","html-keyboard-response","253","302885","0.0-1.0-353.0","0","0","49031","","null","","","null","39","","","","","","","","","","","","","","","",""
"","ISI","","html-keyboard-response","254","303890","0.0-1.0-354.0","0","0","49031","","null","","","null","39","NaN","","","","","","","","","","","","","","",""
"","S2","","html-keyboard-response","255","304144","0.0-1.0-355.0","0","0","49031","","null","","","null","39","","NaN","","","","","","","","","","","","","",""
"","response","","html-keyboard-response","256","304692","0.0-1.0-356.0-0.0","0","0","49031","","544","","","75","39","","","1","39","training","adjacent","FG","6","7","Q.jpg","N.jpg","1","1","1","",""
"","feedback","","html-keyboard-response","257","305696","0.0-1.0-357.0-0.0","0","0","49031","","null","","","null","39","","","","","","","","","","","","","","","",""
"","ITI","","html-keyboard-response","258","306700","0.0-1.0-360.0","0","0","49031","","null","","","null","39","","","","","","","","","","","","","","","NaN",""
"","S1","","html-keyboard-response","259","306955","0.0-1.0-362.0","0","0","49031","","null","","","null","40","","","","","","","","","","","","","","","",""
"","ISI","","html-keyboard-response","260","307959","0.0-1.0-363.0","0","0","49031","","null","","","null","40","NaN","","","","","","","","","","","","","","",""
"","S2","","html-keyboard-response","261","308213","0.0-1.0-364.0","0","0","49031","","null","","","null","40","","NaN","","","","","","","","","","","","","",""
"","response","","html-keyboard-response","262","308435","0.0-1.0-365.0-0.0","0","0","49031","","219","","","75","40","","","1","40","training","adjacent","DC","4","3","M.jpg","L.jpg","1","0","0","",""
"","feedback","","html-keyboard-response","263","309440","0.0-1.0-366.0-0.0","0","0","49031","","null","","","null","40","","","","","","","","","","","","","","","",""
"","time_out","","html-keyboard-response","264","311444","0.0-1.0-368.0-0.0","0","0","49031","","null","","","null","40","","","","","","","","","","","","","","","",""
"","ITI","","html-keyboard-response","265","312448","0.0-1.0-369.0","0","0","49031","","null","","","null","40","","","","","","","","","","","","","","","NaN",""
"","S1","","html-keyboard-response","266","312702","0.0-1.0-371.0","0","0","49031","","null","","","null","41","","","","","","","","","","","","","","","",""
"","ISI","","html-keyboard-response","267","313706","0.0-1.0-372.0","0","0","49031","","null","","","null","41","NaN","","","","","","","","","","","","","","",""
"","S2","","html-keyboard-response","268","313961","0.0-1.0-373.0","0","0","49031","","null","","","null","41","","NaN","","","","","","","","","","","","","",""
"","response","","html-keyboard-response","269","314308","0.0-1.0-374.0-0.0","0","0","49031","","343","","","68","41","","","1","41","training","adjacent","CD","3","4","L.jpg","M.jpg","0","1","0","",""
"","feedback","","html-keyboard-response","270","315313","0.0-1.0-375.0-0.0","0","0","49031","","null","","","null","41","","","","","","","","","","","","","","","",""
"","time_out","","html-keyboard-response","271","317317","0.0-1.0-377.0-0.0","0","0","49031","","null","","","null","41","","","","","","","","","","","","","","","",""
"","ITI","","html-keyboard-response","272","318320","0.0-1.0-378.0","0","0","49031","","null","","","null","41","","","","","","","","","","","","","","","NaN",""
"","S1","","html-keyboard-response","273","318574","0.0-1.0-380.0","0","0","49031","","null","","","null","42","","","","","","","","","","","","","","","",""
"","ISI","","html-keyboard-response","274","319577","0.0-1.0-381.0","0","0","49031","","null","","","null","42","NaN","","","","","","","","","","","","","","",""
"","S2","","html-keyboard-response","275","319832","0.0-1.0-382.0","0","0","49031","","null","","","null","42","","NaN","","","","","","","","","","","","","",""
"","response","","html-keyboard-response","276","320380","0.0-1.0-383.0-0.0","0","0","49031","","544","","","68","42","","","1","42","training","adjacent","AB","1","2","R.jpg","O.jpg","0","1","0","",""
"","feedback","","html-keyboard-response","277","321384","0.0-1.0-384.0-0.0","0","0","49031","","null","","","null","42","","","","","","","","","","","","","","","",""
"","time_out","","html-keyboard-response","278","323389","0.0-1.0-386.0-0.0","0","0","49031","","null","","","null","42","","","","","","","","","","","","","","","",""
"","ITI","","html-keyboard-response","279","324393","0.0-1.0-387.0","0","0","49031","","null","","","null","42","","","","","","","","","","","","","","","NaN",""
"","S1","","html-keyboard-response","280","324648","0.0-1.0-389.0","0","0","49031","","null","","","null","43","","","","","","","","","","","","","","","",""
"","ISI","","html-keyboard-response","281","325651","0.0-1.0-390.0","0","0","49031","","null","","","null","43","NaN","","","","","","","","","","","","","","",""
"","S2","","html-keyboard-response","282","325906","0.0-1.0-391.0","0","0","49031","","null","","","null","43","","NaN","","","","","","","","","","","","","",""
"","response","","html-keyboard-response","283","326716","0.0-1.0-392.0-0.0","0","0","49031","","806","","","68","43","","","1","43","training","adjacent","EF","5","6","P.jpg","Q.jpg","0","1","0","",""
"","feedback","","html-keyboard-response","284","327720","0.0-1.0-393.0-0.0","0","0","49031","","null","","","null","43","","","","","","","","","","","","","","","",""
"","time_out","","html-keyboard-response","285","329723","0.0-1.0-395.0-0.0","0","0","49031","","null","","","null","43","","","","","","","","","","","","","","","",""
"","ITI","","html-keyboard-response","286","330727","0.0-1.0-396.0","0","0","49031","","null","","","null","43","","","","","","","","","","","","","","","NaN",""
"","S1","","html-keyboard-response","287","330996","0.0-1.0-398.0","0","0","49031","","null","","","null","44","","","","","","","","","","","","","","","",""
"","ISI","","html-keyboard-response","288","331999","0.0-1.0-399.0","0","0","49031","","null","","","null","44","NaN","","","","","","","","","","","","","","",""
"","S2","","html-keyboard-response","289","332254","0.0-1.0-400.0","0","0","49031","","null","","","null","44","","NaN","","","","","","","","","","","","","",""
"","response","","html-keyboard-response","290","332436","0.0-1.0-401.0-0.0","0","0","49031","","178","","","75","44","","","1","44","training","adjacent","DC","4","3","M.jpg","L.jpg","1","0","0","",""
"","feedback","","html-keyboard-response","291","333441","0.0-1.0-402.0-0.0","0","0","49031","","null","","","null","44","","","","","","","","","","","","","","","",""
"","time_out","","html-keyboard-response","292","335444","0.0-1.0-404.0-0.0","0","0","49031","","null","","","null","44","","","","","","","","","","","","","","","",""
"","ITI","","html-keyboard-response","293","336449","0.0-1.0-405.0","0","0","49031","","null","","","null","44","","","","","","","","","","","","","","","NaN",""
"","S1","","html-keyboard-response","294","336705","0.0-1.0-407.0","0","0","49031","","null","","","null","45","","","","","","","","","","","","","","","",""
"","ISI","","html-keyboard-response","295","337708","0.0-1.0-408.0","0","0","49031","","null","","","null","45","NaN","","","","","","","","","","","","","","",""
"","S2","","html-keyboard-response","296","337963","0.0-1.0-409.0","0","0","49031","","null","","","null","45","","NaN","","","","","","","","","","","","","",""
"","response","","html-keyboard-response","297","338324","0.0-1.0-410.0-0.0","0","0","49031","","357","","","75","45","","","1","45","training","adjacent","FG","6","7","Q.jpg","N.jpg","1","1","1","",""
"","feedback","","html-keyboard-response","298","339329","0.0-1.0-411.0-0.0","0","0","49031","","null","","","null","45","","","","","","","","","","","","","","","",""
"","ITI","","html-keyboard-response","299","340334","0.0-1.0-414.0","0","0","49031","","null","","","null","45","","","","","","","","","","","","","","","NaN",""
"","S1","","html-keyboard-response","300","340588","0.0-1.0-416.0","0","0","49031","","null","","","null","46","","","","","","","","","","","","","","","",""
"","ISI","","html-keyboard-response","301","341592","0.0-1.0-417.0","0","0","49031","","null","","","null","46","NaN","","","","","","","","","","","","","","",""
"","S2","","html-keyboard-response","302","341847","0.0-1.0-418.0","0","0","49031","","null","","","null","46","","NaN","","","","","","","","","","","","","",""
"","response","","html-keyboard-response","303","342156","0.0-1.0-419.0-0.0","0","0","49031","","305","","","75","46","","","1","46","training","adjacent","FE","6","5","Q.jpg","P.jpg","1","0","0","",""
"","feedback","","html-keyboard-response","304","343161","0.0-1.0-420.0-0.0","0","0","49031","","null","","","null","46","","","","","","","","","","","","","","","",""
"","time_out","","html-keyboard-response","305","345165","0.0-1.0-422.0-0.0","0","0","49031","","null","","","null","46","","","","","","","","","","","","","","","",""
"","ITI","","html-keyboard-response","306","346169","0.0-1.0-423.0","0","0","49031","","null","","","null","46","","","","","","","","","","","","","","","NaN",""
"","S1","","html-keyboard-response","307","346423","0.0-1.0-425.0","0","0","49031","","null","","","null","47","","","","","","","","","","","","","","","",""
"","ISI","","html-keyboard-response","308","347428","0.0-1.0-426.0","0","0","49031","","null","","","null","47","NaN","","","","","","","","","","","","","","",""
"","S2","","html-keyboard-response","309","347683","0.0-1.0-427.0","0","0","49031","","null","","","null","47","","NaN","","","","","","","","","","","","","",""
"","response","","html-keyboard-response","310","348308","0.0-1.0-428.0-0.0","0","0","49031","","621","","","68","47","","","1","47","training","adjacent","EF","5","6","P.jpg","Q.jpg","0","1","0","",""
"","feedback","","html-keyboard-response","311","349312","0.0-1.0-429.0-0.0","0","0","49031","","null","","","null","47","","","","","","","","","","","","","","","",""
"","time_out","","html-keyboard-response","312","351316","0.0-1.0-431.0-0.0","0","0","49031","","null","","","null","47","","","","","","","","","","","","","","","",""
"","ITI","","html-keyboard-response","313","352320","0.0-1.0-432.0","0","0","49031","","null","","","null","47","","","","","","","","","","","","","","","NaN",""
"","block_over","","html-keyboard-response","314","359332","0.0-1.0-433.0-0.0","0","0","49031","","7007","","","32","47","","","","","","","","","","","","","","","",""
"","S1","","html-keyboard-response","315","359586","0.0-1.0-434.0","0","0","49031","","null","","","null","48","","","","","","","","","","","","","","","",""
"","ISI","","html-keyboard-response","316","360590","0.0-1.0-435.0","0","0","49031","","null","","","null","48","NaN","","","","","","","","","","","","","","",""
"","S2","","html-keyboard-response","317","360844","0.0-1.0-436.0","0","0","49031","","null","","","null","48","","NaN","","","","","","","","","","","","","",""
"","response","","html-keyboard-response","318","361972","0.0-1.0-437.0-0.0","0","0","49031","","1124","","","68","48","","","2","48","training","adjacent","AB","1","2","R.jpg","O.jpg","0","1","0","",""
"","feedback","","html-keyboard-response","319","362975","0.0-1.0-438.0-0.0","0","0","49031","","null","","","null","48","","","","","","","","","","","","","","","",""
"","time_out","","html-keyboard-response","320","364979","0.0-1.0-440.0-0.0","0","0","49031","","null","","","null","48","","","","","","","","","","","","","","","",""
"","ITI","","html-keyboard-response","321","365983","0.0-1.0-441.0","0","0","49031","","null","","","null","48","","","","","","","","","","","","","","","NaN",""
"","S1","","html-keyboard-response","322","366237","0.0-1.0-443.0","0","0","49031","","null","","","null","49","","","","","","","","","","","","","","","",""
"","ISI","","html-keyboard-response","323","367241","0.0-1.0-444.0","0","0","49031","","null","","","null","49","NaN","","","","","","","","","","","","","","",""
"","S2","","html-keyboard-response","324","367495","0.0-1.0-445.0","0","0","49031","","null","","","null","49","","NaN","","","","","","","","","","","","","",""
"","response","","html-keyboard-response","325","367811","0.0-1.0-446.0-0.0","0","0","49031","","312","","","75","49","","","2","49","training","adjacent","FE","6","5","Q.jpg","P.jpg","1","0","0","",""
"","feedback","","html-keyboard-response","326","368815","0.0-1.0-447.0-0.0","0","0","49031","","null","","","null","49","","","","","","","","","","","","","","","",""
"","time_out","","html-keyboard-response","327","370820","0.0-1.0-449.0-0.0","0","0","49031","","null","","","null","49","","","","","","","","","","","","","","","",""
"","ITI","","html-keyboard-response","328","371824","0.0-1.0-450.0","0","0","49031","","null","","","null","49","","","","","","","","","","","","","","","NaN",""
"","S1","","html-keyboard-response","329","372079","0.0-1.0-452.0","0","0","49031","","null","","","null","50","","","","","","","","","","","","","","","",""
"","ISI","","html-keyboard-response","330","373083","0.0-1.0-453.0","0","0","49031","","null","","","null","50","NaN","","","","","","","","","","","","","","",""
"","S2","","html-keyboard-response","331","373338","0.0-1.0-454.0","0","0","49031","","null","","","null","50","","NaN","","","","","","","","","","","","","",""
"","response","","html-keyboard-response","332","373643","0.0-1.0-455.0-0.0","0","0","49031","","301","","","68","50","","","2","50","training","adjacent","DE","4","5","M.jpg","P.jpg","0","1","0","",""
"","feedback","","html-keyboard-response","333","374648","0.0-1.0-456.0-0.0","0","0","49031","","null","","","null","50","","","","","","","","","","","","","","","",""
"","time_out","","html-keyboard-response","334","376653","0.0-1.0-458.0-0.0","0","0","49031","","null","","","null","50","","","","","","","","","","","","","","","",""
"","ITI","","html-keyboard-response","335","377657","0.0-1.0-459.0","0","0","49031","","null","","","null","50","","","","","","","","","","","","","","","NaN",""
"","S1","","html-keyboard-response","336","377912","0.0-1.0-461.0","0","0","49031","","null","","","null","51","","","","","","","","","","","","","","","",""
"","ISI","","html-keyboard-response","337","378916","0.0-1.0-462.0","0","0","49031","","719","","","75","51","k","","","","","","","","","","","","","","",""
"","S2","","html-keyboard-response","338","379171","0.0-1.0-463.0","0","0","49031","","null","","","null","51","","NaN","","","","","","","","","","","","","",""
"","response","","html-keyboard-response","339","380027","0.0-1.0-464.0-0.0","0","0","49031","","852","","","75","51","","","2","51","training","adjacent","DC","4","3","M.jpg","L.jpg","1","0","0","",""
"","feedback","","html-keyboard-response","340","381032","0.0-1.0-465.0-0.0","0","0","49031","","null","","","null","51","","","","","","","","","","","","","","","",""
"","time_out","","html-keyboard-response","341","383036","0.0-1.0-467.0-0.0","0","0","49031","","null","","","null","51","","","","","","","","","","","","","","","",""
"","ITI","","html-keyboard-response","342","384041","0.0-1.0-468.0","0","0","49031","","null","","","null","51","","","","","","","","","","","","","","","NaN",""
"","S1","","html-keyboard-response","343","384295","0.0-1.0-470.0","0","0","49031","","null","","","null","52","","","","","","","","","","","","","","","",""
"","ISI","","html-keyboard-response","344","385298","0.0-1.0-471.0","0","0","49031","","null","","","null","52","NaN","","","","","","","","","","","","","","",""
"","S2","","html-keyboard-response","345","385552","0.0-1.0-472.0","0","0","49031","","null","","","null","52","","NaN","","","","","","","","","","","","","",""
"","response","","html-keyboard-response","346","386307","0.0-1.0-473.0-0.0","0","0","49031","","750","","","68","52","","","2","52","training","adjacent","ED","5","4","P.jpg","M.jpg","0","0","1","",""
"","feedback","","html-keyboard-response","347","387311","0.0-1.0-474.0-0.0","0","0","49031","","null","","","null","52","","","","","","","","","","","","","","","",""
"","ITI","","html-keyboard-response","348","388315","0.0-1.0-477.0","0","0","49031","","null","","","null","52","","","","","","","","","","","","","","","NaN",""
"","S1","","html-keyboard-response","349","388570","0.0-1.0-479.0","0","0","49031","","null","","","null","53","","","","","","","","","","","","","","","",""
"","ISI","","html-keyboard-response","350","389573","0.0-1.0-480.0","0","0","49031","","null","","","null","53","NaN","","","","","","","","","","","","","","",""
"","S2","","html-keyboard-response","351","389828","0.0-1.0-481.0","0","0","49031","","null","","","null","53","","NaN","","","","","","","","","","","","","",""
"","response","","html-keyboard-response","352","390667","0.0-1.0-482.0-0.0","0","0","49031","","834","","","68","53","","","2","53","training","adjacent","ED","5","4","P.jpg","M.jpg","0","0","1","",""
"","feedback","","html-keyboard-response","353","391672","0.0-1.0-483.0-0.0","0","0","49031","","null","","","null","53","","","","","","","","","","","","","","","",""
"","ITI","","html-keyboard-response","354","392678","0.0-1.0-486.0","0","0","49031","","null","","","null","53","","","","","","","","","","","","","","","NaN",""
"","S1","","html-keyboard-response","355","392934","0.0-1.0-488.0","0","0","49031","","null","","","null","54","","","","","","","","","","","","","","","",""
"","ISI","","html-keyboard-response","356","393939","0.0-1.0-489.0","0","0","49031","","null","","","null","54","NaN","","","","","","","","","","","","","","",""
"","S2","","html-keyboard-response","357","394193","0.0-1.0-490.0","0","0","49031","","null","","","null","54","","NaN","","","","","","","","","","","","","",""
"","response","","html-keyboard-response","358","394715","0.0-1.0-491.0-0.0","0","0","49031","","518","","","75","54","","","2","54","training","adjacent","EF","5","6","P.jpg","Q.jpg","1","1","1","",""
"","feedback","","html-keyboard-response","359","395722","0.0-1.0-492.0-0.0","0","0","49031","","null","","","null","54","","","","","","","","","","","","","","","",""
"","ITI","","html-keyboard-response","360","396727","0.0-1.0-495.0","0","0","49031","","null","","","null","54","","","","","","","","","","","","","","","NaN",""
"","S1","","html-keyboard-response","361","396985","0.0-1.0-497.0","0","0","49031","","null","","","null","55","","","","","","","","","","","","","","","",""
"","ISI","","html-keyboard-response","362","397989","0.0-1.0-498.0","0","0","49031","","null","","","null","55","NaN","","","","","","","","","","","","","","",""
"","S2","","html-keyboard-response","363","398235","0.0-1.0-499.0","0","0","49031","","241","","","68","55","","d","2","55","training","adjacent","FE","6","5","Q.jpg","P.jpg","0","0","1","",""
"","feedback","","html-keyboard-response","364","399241","0.0-1.0-501.0-0.0","0","0","49031","","null","","","null","55","","","","","","","","","","","","","","","",""
"","ITI","","html-keyboard-response","365","400245","0.0-1.0-504.0","0","0","49031","","null","","","null","55","","","","","","","","","","","","","","","NaN",""
"","S1","","html-keyboard-response","366","400499","0.0-1.0-506.0","0","0","49031","","null","","","null","56","","","","","","","","","","","","","","","",""
"","ISI","","html-keyboard-response","367","401503","0.0-1.0-507.0","0","0","49031","","null","","","null","56","NaN","","","","","","","","","","","","","","",""
"","S2","","html-keyboard-response","368","401758","0.0-1.0-508.0","0","0","49031","","null","","","null","56","","NaN","","","","","","","","","","","","","",""
"","response","","html-keyboard-response","369","402242","0.0-1.0-509.0-0.0","0","0","49031","","481","","","75","56","","","2","56","training","adjacent","DC","4","3","M.jpg","L.jpg","1","0","0","",""
"","feedback","","html-keyboard-response","370","403245","0.0-1.0-510.0-0.0","0","0","49031","","null","","","null","56","","","","","","","","","","","","","","","",""
"","time_out","","html-keyboard-response","371","405250","0.0-1.0-512.0-0.0","0","0","49031","","null","","","null","56","","","","","","","","","","","","","","","",""
"","ITI","","html-keyboard-response","372","406254","0.0-1.0-513.0","0","0","49031","","null","","","null","56","","","","","","","","","","","","","","","NaN",""
"","S1","","html-keyboard-response","373","406509","0.0-1.0-515.0","0","0","49031","","null","","","null","57","","","","","","","","","","","","","","","",""
"","ISI","","html-keyboard-response","374","407513","0.0-1.0-516.0","0","0","49031","","null","","","null","57","NaN","","","","","","","","","","","","","","",""
"","S2","","html-keyboard-response","375","407768","0.0-1.0-517.0","0","0","49031","","null","","","null","57","","NaN","","","","","","","","","","","","","",""
"","response","","html-keyboard-response","376","408251","0.0-1.0-518.0-0.0","0","0","49031","","480","","","68","57","","","2","57","training","adjacent","FE","6","5","Q.jpg","P.jpg","0","0","1","",""
"","feedback","","html-keyboard-response","377","409256","0.0-1.0-519.0-0.0","0","0","49031","","null","","","null","57","","","","","","","","","","","","","","","",""
"","ITI","","html-keyboard-response","378","410259","0.0-1.0-522.0","0","0","49031","","null","","","null","57","","","","","","","","","","","","","","","NaN",""
"","S1","","html-keyboard-response","379","410516","0.0-1.0-524.0","0","0","49031","","null","","","null","58","","","","","","","","","","","","","","","",""
"","ISI","","html-keyboard-response","380","411520","0.0-1.0-525.0","0","0","49031","","null","","","null","58","NaN","","","","","","","","","","","","","","",""
"","S2","","html-keyboard-response","381","411774","0.0-1.0-526.0","0","0","49031","","null","","","null","58","","NaN","","","","","","","","","","","","","",""
"","response","","html-keyboard-response","382","412491","0.0-1.0-527.0-0.0","0","0","49031","","712","","","68","58","","","2","58","training","adjacent","AB","1","2","R.jpg","O.jpg","0","1","0","",""
"","feedback","","html-keyboard-response","383","413495","0.0-1.0-528.0-0.0","0","0","49031","","null","","","null","58","","","","","","","","","","","","","","","",""
"","time_out","","html-keyboard-response","384","415500","0.0-1.0-530.0-0.0","0","0","49031","","null","","","null","58","","","","","","","","","","","","","","","",""
"","ITI","","html-keyboard-response","385","416503","0.0-1.0-531.0","0","0","49031","","null","","","null","58","","","","","","","","","","","","","","","NaN",""
"","S1","","html-keyboard-response","386","416758","0.0-1.0-533.0","0","0","49031","","null","","","null","59","","","","","","","","","","","","","","","",""
"","ISI","","html-keyboard-response","387","417761","0.0-1.0-534.0","0","0","49031","","null","","","null","59","NaN","","","","","","","","","","","","","","",""
"","S2","","html-keyboard-response","388","418016","0.0-1.0-535.0","0","0","49031","","null","","","null","59","","NaN","","","","","","","","","","","","","",""
"","response","","html-keyboard-response","389","418763","0.0-1.0-536.0-0.0","0","0","49031","","744","","","75","59","","","2","59","training","adjacent","CD","3","4","L.jpg","M.jpg","1","1","1","",""
"","feedback","","html-keyboard-response","390","419768","0.0-1.0-537.0-0.0","0","0","49031","","null","","","null","59","","","","","","","","","","","","","","","",""
"","ITI","","html-keyboard-response","391","420772","0.0-1.0-540.0","0","0","49031","","null","","","null","59","","","","","","","","","","","","","","","NaN",""
"","S1","","html-keyboard-response","392","421027","0.0-1.0-542.0","0","0","49031","","null","","","null","60","","","","","","","","","","","","","","","",""
"","ISI","","html-keyboard-response","393","422032","0.0-1.0-543.0","0","0","49031","","null","","","null","60","NaN","","","","","","","","","","","","","","",""
"","S2","","html-keyboard-response","394","422287","0.0-1.0-544.0","0","0","49031","","null","","","null","60","","NaN","","","","","","","","","","","","","",""
"","response","","html-keyboard-response","395","422939","0.0-1.0-545.0-0.0","0","0","49031","","648","","","75","60","","","2","60","training","adjacent","CB","3","2","L.jpg","O.jpg","1","0","0","",""
"","feedback","","html-keyboard-response","396","423942","0.0-1.0-546.0-0.0","0","0","49031","","null","","","null","60","","","","","","","","","","","","","","","",""
"","time_out","","html-keyboard-response","397","425947","0.0-1.0-548.0-0.0","0","0","49031","","null","","","null","60","","","","","","","","","","","","","","","",""
"","ITI","","html-keyboard-response","398","426951","0.0-1.0-549.0","0","0","49031","","null","","","null","60","","","","","","","","","","","","","","","NaN",""
"","S1","","html-keyboard-response","399","427206","0.0-1.0-551.0","0","0","49031","","null","","","null","61","","","","","","","","","","","","","","","",""
"","ISI","","html-keyboard-response","400","428209","0.0-1.0-552.0","0","0","49031","","null","","","null","61","NaN","","","","","","","","","","","","","","",""
"","S2","","html-keyboard-response","401","428464","0.0-1.0-553.0","0","0","49031","","null","","","null","61","","NaN","","","","","","","","","","","","","",""
"","response","","html-keyboard-response","402","429177","0.0-1.0-554.0-0.0","0","0","49031","","709","","","68","61","","","2","61","training","adjacent","CB","3","2","L.jpg","O.jpg","0","0","1","",""
"","feedback","","html-keyboard-response","403","430182","0.0-1.0-555.0-0.0","0","0","49031","","null","","","null","61","","","","","","","","","","","","","","","",""
"","ITI","","html-keyboard-response","404","431188","0.0-1.0-558.0","0","0","49031","","null","","","null","61","","","","","","","","","","","","","","","NaN",""
"","S1","","html-keyboard-response","405","431442","0.0-1.0-560.0","0","0","49031","","null","","","null","62","","","","","","","","","","","","","","","",""
"","ISI","","html-keyboard-response","406","432446","0.0-1.0-561.0","0","0","49031","","null","","","null","62","NaN","","","","","","","","","","","","","","",""
"","S2","","html-keyboard-response","407","432701","0.0-1.0-562.0","0","0","49031","","null","","","null","62","","NaN","","","","","","","","","","","","","",""
"","response","","html-keyboard-response","408","433161","0.0-1.0-563.0-0.0","0","0","49031","","457","","","75","62","","","2","62","training","adjacent","CD","3","4","L.jpg","M.jpg","1","1","1","",""
"","feedback","","html-keyboard-response","409","434166","0.0-1.0-564.0-0.0","0","0","49031","","null","","","null","62","","","","","","","","","","","","","","","",""
"","ITI","","html-keyboard-response","410","435171","0.0-1.0-567.0","0","0","49031","","null","","","null","62","","","","","","","","","","","","","","","NaN",""
"","S1","","html-keyboard-response","411","435425","0.0-1.0-569.0","0","0","49031","","null","","","null","63","","","","","","","","","","","","","","","",""
"","ISI","","html-keyboard-response","412","436431","0.0-1.0-570.0","0","0","49031","","null","","","null","63","NaN","","","","","","","","","","","","","","",""
"","S2","","html-keyboard-response","413","436684","0.0-1.0-571.0","0","0","49031","","null","","","null","63","","NaN","","","","","","","","","","","","","",""
"","response","","html-keyboard-response","414","437329","0.0-1.0-572.0-0.0","0","0","49031","","640","","","68","63","","","2","63","training","adjacent","AB","1","2","R.jpg","O.jpg","0","1","0","",""
"","feedback","","html-keyboard-response","415","438334","0.0-1.0-573.0-0.0","0","0","49031","","null","","","null","63","","","","","","","","","","","","","","","",""
"","time_out","","html-keyboard-response","416","440338","0.0-1.0-575.0-0.0","0","0","49031","","null","","","null","63","","","","","","","","","","","","","","","",""
"","ITI","","html-keyboard-response","417","441345","0.0-1.0-576.0","0","0","49031","","null","","","null","63","","","","","","","","","","","","","","","NaN",""
"","S1","","html-keyboard-response","418","441601","0.0-1.0-578.0","0","0","49031","","null","","","null","64","","","","","","","","","","","","","","","",""
"","ISI","","html-keyboard-response","419","442604","0.0-1.0-579.0","0","0","49031","","null","","","null","64","NaN","","","","","","","","","","","","","","",""
"","S2","","html-keyboard-response","420","442859","0.0-1.0-580.0","0","0","49031","","null","","","null","64","","NaN","","","","","","","","","","","","","",""
"","response","","html-keyboard-response","421","443496","0.0-1.0-581.0-0.0","0","0","49031","","634","","","75","64","","","2","64","training","adjacent","ED","5","4","P.jpg","M.jpg","1","0","0","",""
"","feedback","","html-keyboard-response","422","444501","0.0-1.0-582.0-0.0","0","0","49031","","null","","","null","64","","","","","","","","","","","","","","","",""
"","time_out","","html-keyboard-response","423","446506","0.0-1.0-584.0-0.0","0","0","49031","","null","","","null","64","","","","","","","","","","","","","","","",""
"","ITI","","html-keyboard-response","424","447510","0.0-1.0-585.0","0","0","49031","","null","","","null","64","","","","","","","","","","","","","","","NaN",""
"","S1","","html-keyboard-response","425","447764","0.0-1.0-587.0","0","0","49031","","null","","","null","65","","","","","","","","","","","","","","","",""
"","ISI","","html-keyboard-response","426","448779","0.0-1.0-588.0","0","0","49031","","null","","","null","65","NaN","","","","","","","","","","","","","","",""
"","S2","","html-keyboard-response","427","449034","0.0-1.0-589.0","0","0","49031","","null","","","null","65","","NaN","","","","","","","","","","","","","",""
"","response","","html-keyboard-response","428","449553","0.0-1.0-590.0-0.0","0","0","49031","","515","","","68","65","","","2","65","training","adjacent","BA","2","1","O.jpg","R.jpg","0","0","1","",""
"","feedback","","html-keyboard-response","429","450559","0.0-1.0-591.0-0.0","0","0","49031","","null","","","null","65","","","","","","","","","","","","","","","",""
"","ITI","","html-keyboard-response","430","451563","0.0-1.0-594.0","0","0","49031","","null","","","null","65","","","","","","","","","","","","","","","NaN",""
"","S1","","html-keyboard-response","431","451818","0.0-1.0-596.0","0","0","49031","","null","","","null","66","","","","","","","","","","","","","","","",""
"","ISI","","html-keyboard-response","432","452821","0.0-1.0-597.0","0","0","49031","","null","","","null","66","NaN","","","","","","","","","","","","","","",""
"","S2","","html-keyboard-response","433","453075","0.0-1.0-598.0","0","0","49031","","null","","","null","66","","NaN","","","","","","","","","","","","","",""
"","response","","html-keyboard-response","434","453850","0.0-1.0-599.0-0.0","0","0","49031","","770","","","68","66","","","2","66","training","adjacent","DE","4","5","M.jpg","P.jpg","0","1","0","",""
"","feedback","","html-keyboard-response","435","454854","0.0-1.0-600.0-0.0","0","0","49031","","null","","","null","66","","","","","","","","","","","","","","","",""
"","time_out","","html-keyboard-response","436","456859","0.0-1.0-602.0-0.0","0","0","49031","","null","","","null","66","","","","","","","","","","","","","","","",""
"","ITI","","html-keyboard-response","437","457862","0.0-1.0-603.0","0","0","49031","","null","","","null","66","","","","","","","","","","","","","","","NaN",""
"","S1","","html-keyboard-response","438","458121","0.0-1.0-605.0","0","0","49031","","null","","","null","67","","","","","","","","","","","","","","","",""
"","ISI","","html-keyboard-response","439","459125","0.0-1.0-606.0","0","0","49031","","null","","","null","67","NaN","","","","","","","","","","","","","","",""
"","S2","","html-keyboard-response","440","459381","0.0-1.0-607.0","0","0","49031","","null","","","null","67","","NaN","","","","","","","","","","","","","",""
"","response","","html-keyboard-response","441","459561","0.0-1.0-608.0-0.0","0","0","49031","","177","","","68","67","","","2","67","training","adjacent","GF","7","6","N.jpg","Q.jpg","0","0","1","",""
"","feedback","","html-keyboard-response","442","460566","0.0-1.0-609.0-0.0","0","0","49031","","null","","","null","67","","","","","","","","","","","","","","","",""
"","ITI","","html-keyboard-response","443","461571","0.0-1.0-612.0","0","0","49031","","null","","","null","67","","","","","","","","","","","","","","","NaN",""
"","S1","","html-keyboard-response","444","461825","0.0-1.0-614.0","0","0","49031","","null","","","null","68","","","","","","","","","","","","","","","",""
"","ISI","","html-keyboard-response","445","462829","0.0-1.0-615.0","0","0","49031","","null","","","null","68","NaN","","","","","","","","","","","","","","",""
"","S2","","html-keyboard-response","446","463083","0.0-1.0-616.0","0","0","49031","","null","","","null","68","","NaN","","","","","","","","","","","","","",""
"","response","","html-keyboard-response","447","463186","0.0-1.0-617.0-0.0","0","0","49031","","99","","","68","68","","","2","68","training","adjacent","GF","7","6","N.jpg","Q.jpg","0","0","1","",""
"","feedback","","html-keyboard-response","448","464191","0.0-1.0-618.0-0.0","0","0","49031","","null","","","null","68","","","","","","","","","","","","","","","",""
"","ITI","","html-keyboard-response","449","465195","0.0-1.0-621.0","0","0","49031","","null","","","null","68","","","","","","","","","","","","","","","NaN",""
"","S1","","html-keyboard-response","450","465451","0.0-1.0-623.0","0","0","49031","","null","","","null","69","","","","","","","","","","","","","","","",""
"","ISI","","html-keyboard-response","451","466455","0.0-1.0-624.0","0","0","49031","","null","","","null","69","NaN","","","","","","","","","","","","","","",""
"","S2","","html-keyboard-response","452","466709","0.0-1.0-625.0","0","0","49031","","null","","","null","69","","NaN","","","","","","","","","","","","","",""
"","response","","html-keyboard-response","453","467050","0.0-1.0-626.0-0.0","0","0","49031","","337","","","68","69","","","2","69","training","adjacent","DC","4","3","M.jpg","L.jpg","0","0","1","",""
"","feedback","","html-keyboard-response","454","468053","0.0-1.0-627.0-0.0","0","0","49031","","null","","","null","69","","","","","","","","","","","","","","","",""
"","ITI","","html-keyboard-response","455","469057","0.0-1.0-630.0","0","0","49031","","null","","","null","69","","","","","","","","","","","","","","","NaN",""
"","S1","","html-keyboard-response","456","469311","0.0-1.0-632.0","0","0","49031","","null","","","null","70","","","","","","","","","","","","","","","",""
"","ISI","","html-keyboard-response","457","470315","0.0-1.0-633.0","0","0","49031","","null","","","null","70","NaN","","","","","","","","","","","","","","",""
"","S2","","html-keyboard-response","458","470569","0.0-1.0-634.0","0","0","49031","","null","","","null","70","","NaN","","","","","","","","","","","","","",""
"","response","","html-keyboard-response","459","471145","0.0-1.0-635.0-0.0","0","0","49031","","573","","","75","70","","","2","70","training","adjacent","BC","2","3","O.jpg","L.jpg","1","1","1","",""
"","feedback","","html-keyboard-response","460","472150","0.0-1.0-636.0-0.0","0","0","49031","","null","","","null","70","","","","","","","","","","","","","","","",""
"","ITI","","html-keyboard-response","461","473155","0.0-1.0-639.0","0","0","49031","","null","","","null","70","","","","","","","","","","","","","","","NaN",""
"","S1","","html-keyboard-response","462","473410","0.0-1.0-641.0","0","0","49031","","null","","","null","71","","","","","","","","","","","","","","","",""
"","ISI","","html-keyboard-response","463","474414","0.0-1.0-642.0","0","0","49031","","null","","","null","71","NaN","","","","","","","","","","","","","","",""
"","S2","","html-keyboard-response","464","474669","0.0-1.0-643.0","0","0","49031","","null","","","null","71","","NaN","","","","","","","","","","","","","",""
"","response","","html-keyboard-response","465","475121","0.0-1.0-644.0-0.0","0","0","49031","","449","","","75","71","","","2","71","training","adjacent","DE","4","5","M.jpg","P.jpg","1","1","1","",""
"","feedback","","html-keyboard-response","466","476126","0.0-1.0-645.0-0.0","0","0","49031","","null","","","null","71","","","","","","","","","","","","","","","",""
"","ITI","","html-keyboard-response","467","477131","0.0-1.0-648.0","0","0","49031","","null","","","null","71","","","","","","","","","","","","","","","NaN",""
"","S1","","html-keyboard-response","468","477385","0.0-1.0-650.0","0","0","49031","","null","","","null","72","","","","","","","","","","","","","","","",""
"","ISI","","html-keyboard-response","469","478389","0.0-1.0-651.0","0","0","49031","","null","","","null","72","NaN","","","","","","","","","","","","","","",""
"","S2","","html-keyboard-response","470","478644","0.0-1.0-652.0","0","0","49031","","null","","","null","72","","NaN","","","","","","","","","","","","","",""
"","response","","html-keyboard-response","471","479361","0.0-1.0-653.0-0.0","0","0","49031","","714","","","75","72","","","2","72","training","adjacent","DE","4","5","M.jpg","P.jpg","1","1","1","",""
"","feedback","","html-keyboard-response","472","480366","0.0-1.0-654.0-0.0","0","0","49031","","null","","","null","72","","","","","","","","","","","","","","","",""
"","ITI","","html-keyboard-response","473","481371","0.0-1.0-657.0","0","0","49031","","null","","","null","72","","","","","","","","","","","","","","","NaN",""
"","S1","","html-keyboard-response","474","481626","0.0-1.0-659.0","0","0","49031","","null","","","null","73","","","","","","","","","","","","","","","",""
"","ISI","","html-keyboard-response","475","482630","0.0-1.0-660.0","0","0","49031","","null","","","null","73","NaN","","","","","","","","","","","","","","",""
"","S2","","html-keyboard-response","476","482885","0.0-1.0-661.0","0","0","49031","","null","","","null","73","","NaN","","","","","","","","","","","","","",""
"","response","","html-keyboard-response","477","483585","0.0-1.0-662.0-0.0","0","0","49031","","697","","","75","73","","","2","73","training","adjacent","BC","2","3","O.jpg","L.jpg","1","1","1","",""
"","feedback","","html-keyboard-response","478","484590","0.0-1.0-663.0-0.0","0","0","49031","","null","","","null","73","","","","","","","","","","","","","","","",""
"","ITI","","html-keyboard-response","479","485595","0.0-1.0-666.0","0","0","49031","","null","","","null","73","","","","","","","","","","","","","","","NaN",""
"","S1","","html-keyboard-response","480","485850","0.0-1.0-668.0","0","0","49031","","null","","","null","74","","","","","","","","","","","","","","","",""
"","ISI","","html-keyboard-response","481","486854","0.0-1.0-669.0","0","0","49031","","null","","","null","74","NaN","","","","","","","","","","","","","","",""
"","S2","","html-keyboard-response","482","487108","0.0-1.0-670.0","0","0","49031","","null","","","null","74","","NaN","","","","","","","","","","","","","",""
"","response","","html-keyboard-response","483","487617","0.0-1.0-671.0-0.0","0","0","49031","","505","","","68","74","","","2","74","training","adjacent","FG","6","7","Q.jpg","N.jpg","0","1","0","",""
"","feedback","","html-keyboard-response","484","488621","0.0-1.0-672.0-0.0","0","0","49031","","null","","","null","74","","","","","","","","","","","","","","","",""
"","time_out","","html-keyboard-response","485","490625","0.0-1.0-674.0-0.0","0","0","49031","","null","","","null","74","","","","","","","","","","","","","","","",""
"","ITI","","html-keyboard-response","486","491630","0.0-1.0-675.0","0","0","49031","","null","","","null","74","","","","","","","","","","","","","","","NaN",""
"","S1","","html-keyboard-response","487","491884","0.0-1.0-677.0","0","0","49031","","null","","","null","75","","","","","","","","","","","","","","","",""
"","ISI","","html-keyboard-response","488","492888","0.0-1.0-678.0","0","0","49031","","null","","","null","75","NaN","","","","","","","","","","","","","","",""
"","S2","","html-keyboard-response","489","493143","0.0-1.0-679.0","0","0","49031","","null","","","null","75","","NaN","","","","","","","","","","","","","",""
"","response","","html-keyboard-response","490","493705","0.0-1.0-680.0-0.0","0","0","49031","","558","","","68","75","","","2","75","training","adjacent","GF","7","6","N.jpg","Q.jpg","0","0","1","",""
"","feedback","","html-keyboard-response","491","494710","0.0-1.0-681.0-0.0","0","0","49031","","null","","","null","75","","","","","","","","","","","","","","","",""
"","ITI","","html-keyboard-response","492","495714","0.0-1.0-684.0","0","0","49031","","null","","","null","75","","","","","","","","","","","","","","","NaN",""
"","S1","","html-keyboard-response","493","495970","0.0-1.0-686.0","0","0","49031","","null","","","null","76","","","","","","","","","","","","","","","",""
"","ISI","","html-keyboard-response","494","496973","0.0-1.0-687.0","0","0","49031","","null","","","null","76","NaN","","","","","","","","","","","","","","",""
"","S2","","html-keyboard-response","495","497224","0.0-1.0-688.0","0","0","49031","","247","","","75","76","","k","2","76","training","adjacent","FG","6","7","Q.jpg","N.jpg","1","1","1","",""
"","feedback","","html-keyboard-response","496","498230","0.0-1.0-690.0-0.0","0","0","49031","","null","","","null","76","","","","","","","","","","","","","","","",""
"","ITI","","html-keyboard-response","497","499235","0.0-1.0-693.0","0","0","49031","","null","","","null","76","","","","","","","","","","","","","","","NaN",""
"","S1","","html-keyboard-response","498","499490","0.0-1.0-695.0","0","0","49031","","null","","","null","77","","","","","","","","","","","","","","","",""
"","ISI","","html-keyboard-response","499","500494","0.0-1.0-696.0","0","0","49031","","null","","","null","77","NaN","","","","","","","","","","","","","","",""
"","S2","","html-keyboard-response","500","500750","0.0-1.0-697.0","0","0","49031","","null","","","null","77","","NaN","","","","","","","","","","","","","",""
"","response","","html-keyboard-response","501","501681","0.0-1.0-698.0-0.0","0","0","49031","","927","","","75","77","","","2","77","training","adjacent","CD","3","4","L.jpg","M.jpg","1","1","1","",""
"","feedback","","html-keyboard-response","502","502685","0.0-1.0-699.0-0.0","0","0","49031","","null","","","null","77","","","","","","","","","","","","","","","",""
"","ITI","","html-keyboard-response","503","503690","0.0-1.0-702.0","0","0","49031","","null","","","null","77","","","","","","","","","","","","","","","NaN",""
"","S1","","html-keyboard-response","504","503944","0.0-1.0-704.0","0","0","49031","","null","","","null","78","","","","","","","","","","","","","","","",""
"","ISI","","html-keyboard-response","505","504948","0.0-1.0-705.0","0","0","49031","","null","","","null","78","NaN","","","","","","","","","","","","","","",""
"","S2","","html-keyboard-response","506","505202","0.0-1.0-706.0","0","0","49031","","null","","","null","78","","NaN","","","","","","","","","","","","","",""
"","response","","html-keyboard-response","507","506105","0.0-1.0-707.0-0.0","0","0","49031","","899","","","75","78","","","2","78","training","adjacent","FE","6","5","Q.jpg","P.jpg","1","0","0","",""
"","feedback","","html-keyboard-response","508","507110","0.0-1.0-708.0-0.0","0","0","49031","","null","","","null","78","","","","","","","","","","","","","","","",""
"","time_out","","html-keyboard-response","509","509114","0.0-1.0-710.0-0.0","0","0","49031","","null","","","null","78","","","","","","","","","","","","","","","",""
"","ITI","","html-keyboard-response","510","510119","0.0-1.0-711.0","0","0","49031","","null","","","null","78","","","","","","","","","","","","","","","NaN",""
"","S1","","html-keyboard-response","511","510373","0.0-1.0-713.0","0","0","49031","","null","","","null","79","","","","","","","","","","","","","","","",""
"","ISI","","html-keyboard-response","512","511377","0.0-1.0-714.0","0","0","49031","","null","","","null","79","NaN","","","","","","","","","","","","","","",""
"","S2","","html-keyboard-response","513","511631","0.0-1.0-715.0","0","0","49031","","null","","","null","79","","NaN","","","","","","","","","","","","","",""
"","response","","html-keyboard-response","514","512121","0.0-1.0-716.0-0.0","0","0","49031","","486","","","68","79","","","2","79","training","adjacent","FG","6","7","Q.jpg","N.jpg","0","1","0","",""
"","feedback","","html-keyboard-response","515","513126","0.0-1.0-717.0-0.0","0","0","49031","","null","","","null","79","","","","","","","","","","","","","","","",""
"","time_out","","html-keyboard-response","516","515130","0.0-1.0-719.0-0.0","0","0","49031","","null","","","null","79","","","","","","","","","","","","","","","",""
"","ITI","","html-keyboard-response","517","516134","0.0-1.0-720.0","0","0","49031","","null","","","null","79","","","","","","","","","","","","","","","NaN",""
"","S1","","html-keyboard-response","518","516388","0.0-1.0-722.0","0","0","49031","","null","","","null","80","","","","","","","","","","","","","","","",""
"","ISI","","html-keyboard-response","519","517391","0.0-1.0-723.0","0","0","49031","","null","","","null","80","NaN","","","","","","","","","","","","","","",""
"","S2","","html-keyboard-response","520","517646","0.0-1.0-724.0","0","0","49031","","null","","","null","80","","NaN","","","","","","","","","","","","","",""
"","response","","html-keyboard-response","521","518073","0.0-1.0-725.0-0.0","0","0","49031","","423","","","75","80","","","2","80","training","adjacent","EF","5","6","P.jpg","Q.jpg","1","1","1","",""
"","feedback","","html-keyboard-response","522","519078","0.0-1.0-726.0-0.0","0","0","49031","","null","","","null","80","","","","","","","","","","","","","","","",""
"","ITI","","html-keyboard-response","523","520084","0.0-1.0-729.0","0","0","49031","","null","","","null","80","","","","","","","","","","","","","","","NaN",""
"","S1","","html-keyboard-response","524","520340","0.0-1.0-731.0","0","0","49031","","null","","","null","81","","","","","","","","","","","","","","","",""
"","ISI","","html-keyboard-response","525","521344","0.0-1.0-732.0","0","0","49031","","null","","","null","81","NaN","","","","","","","","","","","","","","",""
"","S2","","html-keyboard-response","526","521599","0.0-1.0-733.0","0","0","49031","","null","","","null","81","","NaN","","","","","","","","","","","","","",""
"","response","","html-keyboard-response","527","521761","0.0-1.0-734.0-0.0","0","0","49031","","157","","","75","81","","","2","81","training","adjacent","BA","2","1","O.jpg","R.jpg","1","0","0","",""
"","feedback","","html-keyboard-response","528","522766","0.0-1.0-735.0-0.0","0","0","49031","","null","","","null","81","","","","","","","","","","","","","","","",""
"","time_out","","html-keyboard-response","529","524770","0.0-1.0-737.0-0.0","0","0","49031","","null","","","null","81","","","","","","","","","","","","","","","",""
"","ITI","","html-keyboard-response","530","525773","0.0-1.0-738.0","0","0","49031","","null","","","null","81","","","","","","","","","","","","","","","NaN",""
"","S1","","html-keyboard-response","531","526027","0.0-1.0-740.0","0","0","49031","","null","","","null","82","","","","","","","","","","","","","","","",""
"","ISI","","html-keyboard-response","532","527032","0.0-1.0-741.0","0","0","49031","","null","","","null","82","NaN","","","","","","","","","","","","","","",""
"","S2","","html-keyboard-response","533","527286","0.0-1.0-742.0","0","0","49031","","null","","","null","82","","NaN","","","","","","","","","","","","","",""
"","response","","html-keyboard-response","534","527865","0.0-1.0-743.0-0.0","0","0","49031","","575","","","75","82","","","2","82","training","adjacent","BC","2","3","O.jpg","L.jpg","1","1","1","",""
"","feedback","","html-keyboard-response","535","528870","0.0-1.0-744.0-0.0","0","0","49031","","null","","","null","82","","","","","","","","","","","","","","","",""
"","ITI","","html-keyboard-response","536","529874","0.0-1.0-747.0","0","0","49031","","null","","","null","82","","","","","","","","","","","","","","","NaN",""
"","S1","","html-keyboard-response","537","530130","0.0-1.0-749.0","0","0","49031","","null","","","null","83","","","","","","","","","","","","","","","",""
"","ISI","","html-keyboard-response","538","531134","0.0-1.0-750.0","0","0","49031","","null","","","null","83","NaN","","","","","","","","","","","","","","",""
"","S2","","html-keyboard-response","539","531389","0.0-1.0-751.0","0","0","49031","","null","","","null","83","","NaN","","","","","","","","","","","","","",""
"","response","","html-keyboard-response","540","531937","0.0-1.0-752.0-0.0","0","0","49031","","544","","","68","83","","","2","83","training","adjacent","CB","3","2","L.jpg","O.jpg","0","0","1","",""
"","feedback","","html-keyboard-response","541","532941","0.0-1.0-753.0-0.0","0","0","49031","","null","","","null","83","","","","","","","","","","","","","","","",""
"","ITI","","html-keyboard-response","542","533946","0.0-1.0-756.0","0","0","49031","","null","","","null","83","","","","","","","","","","","","","","","NaN",""
"","S1","","html-keyboard-response","543","534201","0.0-1.0-758.0","0","0","49031","","null","","","null","84","","","","","","","","","","","","","","","",""
"","ISI","","html-keyboard-response","544","535204","0.0-1.0-759.0","0","0","49031","","null","","","null","84","NaN","","","","","","","","","","","","","","",""
"","S2","","html-keyboard-response","545","535459","0.0-1.0-760.0","0","0","49031","","null","","","null","84","","NaN","","","","","","","","","","","","","",""
"","response","","html-keyboard-response","546","536169","0.0-1.0-761.0-0.0","0","0","49031","","706","","","68","84","","","2","84","training","adjacent","EF","5","6","P.jpg","Q.jpg","0","1","0","",""
"","feedback","","html-keyboard-response","547","537174","0.0-1.0-762.0-0.0","0","0","49031","","null","","","null","84","","","","","","","","","","","","","","","",""
"","time_out","","html-keyboard-response","548","539179","0.0-1.0-764.0-0.0","0","0","49031","","null","","","null","84","","","","","","","","","","","","","","","",""
"","ITI","","html-keyboard-response","549","540183","0.0-1.0-765.0","0","0","49031","","null","","","null","84","","","","","","","","","","","","","","","NaN",""
"","S1","","html-keyboard-response","550","540436","0.0-1.0-767.0","0","0","49031","","null","","","null","85","","","","","","","","","","","","","","","",""
"","ISI","","html-keyboard-response","551","541440","0.0-1.0-768.0","0","0","49031","","null","","","null","85","NaN","","","","","","","","","","","","","","",""
"","S2","","html-keyboard-response","552","541695","0.0-1.0-769.0","0","0","49031","","null","","","null","85","","NaN","","","","","","","","","","","","","",""
"","response","","html-keyboard-response","553","542593","0.0-1.0-770.0-0.0","0","0","49031","","893","","","75","85","","","2","85","training","adjacent","CB","3","2","L.jpg","O.jpg","1","0","0","",""
"","feedback","","html-keyboard-response","554","543608","0.0-1.0-771.0-0.0","0","0","49031","","null","","","null","85","","","","","","","","","","","","","","","",""
"","time_out","","html-keyboard-response","555","545613","0.0-1.0-773.0-0.0","0","0","49031","","null","","","null","85","","","","","","","","","","","","","","","",""
"","ITI","","html-keyboard-response","556","546618","0.0-1.0-774.0","0","0","49031","","null","","","null","85","","","","","","","","","","","","","","","NaN",""
"","S1","","html-keyboard-response","557","546873","0.0-1.0-776.0","0","0","49031","","null","","","null","86","","","","","","","","","","","","","","","",""
"","ISI","","html-keyboard-response","558","547876","0.0-1.0-777.0","0","0","49031","","null","","","null","86","NaN","","","","","","","","","","","","","","",""
"","S2","","html-keyboard-response","559","548131","0.0-1.0-778.0","0","0","49031","","null","","","null","86","","NaN","","","","","","","","","","","","","",""
"","response","","html-keyboard-response","560","548544","0.0-1.0-779.0-0.0","0","0","49031","","410","","","75","86","","","2","86","training","adjacent","AB","1","2","R.jpg","O.jpg","1","1","1","",""
"","feedback","","html-keyboard-response","561","549550","0.0-1.0-780.0-0.0","0","0","49031","","null","","","null","86","","","","","","","","","","","","","","","",""
"","ITI","","html-keyboard-response","562","550555","0.0-1.0-783.0","0","0","49031","","null","","","null","86","","","","","","","","","","","","","","","NaN",""
"","S1","","html-keyboard-response","563","550810","0.0-1.0-785.0","0","0","49031","","null","","","null","87","","","","","","","","","","","","","","","",""
"","ISI","","html-keyboard-response","564","551813","0.0-1.0-786.0","0","0","49031","","null","","","null","87","NaN","","","","","","","","","","","","","","",""
"","S2","","html-keyboard-response","565","552069","0.0-1.0-787.0","0","0","49031","","null","","","null","87","","NaN","","","","","","","","","","","","","",""
"","response","","html-keyboard-response","566","552625","0.0-1.0-788.0-0.0","0","0","49031","","551","","","75","87","","","2","87","training","adjacent","BC","2","3","O.jpg","L.jpg","1","1","1","",""
"","feedback","","html-keyboard-response","567","553630","0.0-1.0-789.0-0.0","0","0","49031","","null","","","null","87","","","","","","","","","","","","","","","",""
"","ITI","","html-keyboard-response","568","554635","0.0-1.0-792.0","0","0","49031","","null","","","null","87","","","","","","","","","","","","","","","NaN",""
"","S1","","html-keyboard-response","569","554889","0.0-1.0-794.0","0","0","49031","","null","","","null","88","","","","","","","","","","","","","","","",""
"","ISI","","html-keyboard-response","570","555893","0.0-1.0-795.0","0","0","49031","","null","","","null","88","NaN","","","","","","","","","","","","","","",""
"","S2","","html-keyboard-response","571","556148","0.0-1.0-796.0","0","0","49031","","null","","","null","88","","NaN","","","","","","","","","","","","","",""
"","response","","html-keyboard-response","572","556385","0.0-1.0-797.0-0.0","0","0","49031","","233","","","68","88","","","2","88","training","adjacent","BA","2","1","O.jpg","R.jpg","0","0","1","",""
"","feedback","","html-keyboard-response","573","557391","0.0-1.0-798.0-0.0","0","0","49031","","null","","","null","88","","","","","","","","","","","","","","","",""
"","ITI","","html-keyboard-response","574","558396","0.0-1.0-801.0","0","0","49031","","null","","","null","88","","","","","","","","","","","","","","","NaN",""
"","S1","","html-keyboard-response","575","558651","0.0-1.0-803.0","0","0","49031","","null","","","null","89","","","","","","","","","","","","","","","",""
"","ISI","","html-keyboard-response","576","559655","0.0-1.0-804.0","0","0","49031","","null","","","null","89","NaN","","","","","","","","","","","","","","",""
"","S2","","html-keyboard-response","577","559910","0.0-1.0-805.0","0","0","49031","","null","","","null","89","","NaN","","","","","","","","","","","","","",""
"","response","","html-keyboard-response","578","560177","0.0-1.0-806.0-0.0","0","0","49031","","263","","","75","89","","","2","89","training","adjacent","FG","6","7","Q.jpg","N.jpg","1","1","1","",""
"","feedback","","html-keyboard-response","579","561182","0.0-1.0-807.0-0.0","0","0","49031","","null","","","null","89","","","","","","","","","","","","","","","",""
"","ITI","","html-keyboard-response","580","562187","0.0-1.0-810.0","0","0","49031","","null","","","null","89","","","","","","","","","","","","","","","NaN",""
"","S1","","html-keyboard-response","581","562442","0.0-1.0-812.0","0","0","49031","","null","","","null","90","","","","","","","","","","","","","","","",""
"","ISI","","html-keyboard-response","582","563445","0.0-1.0-813.0","0","0","49031","","null","","","null","90","NaN","","","","","","","","","","","","","","",""
