"success","ttype","start_time","trial_type","trial_index","time_elapsed","internal_node_id","warning","missed_checkup","PID","view_history","rt","responses","repeat_instructions","key_press","index","keypress_isi","keypress_S2","block","trial_num","phase","group_type","pair_type","S1_stim","S2_stim","S1_img","S2_img","S1_chosen","S1_higher","accuracy","keypress_iti","total_bonus_tally"
"true","full_screen","d04152023hr1450","fullscreen","0","12794","0.0-0.0","0","0","57427","","","","","","","","","","","","","","","","","","","","","",""
"","instructions","","instructions","1","45897","0.0-1.0-0.0-0.0","0","0","57427","[{""page_index"":0,""viewing_time"":3535},{""page_index"":1,""viewing_time"":20294},{""page_index"":2,""viewing_time"":7693},{""page_index"":3,""viewing_time"":1578}]","33101","","","","","","","","","","","","","","","","","","","",""
"","comprehension_check","","survey-multi-choice","2","72776","0.0-1.0-0.0-1.0","0","0","57427","","26873","{""Q0"":""True"",""Q1"":""K"",""Q2"":""Once the second image appears and while the screen 'MAKE A CHOICE' is shown"",""Q3"":""Green mark"",""Q4"":""either D or K""}","0","","","","","","","","","","","","","","","","","",""
"","start_exp","","html-keyboard-response","3","75629","0.0-1.0-1.0","0","0","57427","","2849","","","32","","","","","","","","","","","","","","","","",""
"","S1","","html-keyboard-response","4","75883","0.0-1.0-2.0","0","0","57427","","null","","","null","0","","","","","","","","","","","","","","","",""
"","ISI","","html-keyboard-response","5","76886","0.0-1.0-3.0","0","0","57427","","null","","","null","0","NaN","","","","","","","","","","","","","","",""
"","S2","","html-keyboard-response","6","77139","0.0-1.0-4.0","0","0","57427","","null","","","null","0","","NaN","","","","","","","","","","","","","",""
"","response","","html-keyboard-response","7","78835","0.0-1.0-5.0-0.0","0","0","57427","","1694","","","75","0","","","1","0","training","adjacent","CD","3","4","L.jpg","M.jpg","1","1","1","",""
"","feedback","","html-keyboard-response","8","79839","0.0-1.0-6.0-0.0","0","0","57427","","null","","","null","0","","","","","","","","","","","","","","","",""
"","ITI","","html-keyboard-response","9","80842","0.0-1.0-9.0","0","0","57427","","null","","","null","0","","","","","","","","","","","","","","","NaN",""
"","S1","","html-keyboard-response","10","81096","0.0-1.0-11.0","0","0","57427","","null","","","null","1","","","","","","","","","","","","","","","",""
"","ISI","","html-keyboard-response","11","82100","0.0-1.0-12.0","0","0","57427","","null","","","null","1","NaN","","","","","","","","","","","","","","",""
"","S2","","html-keyboard-response","12","82352","0.0-1.0-13.0","0","0","57427","","null","","","null","1","","NaN","","","","","","","","","","","","","",""
"","response","","html-keyboard-response","13","83062","0.0-1.0-14.0-0.0","0","0","57427","","708","","","68","1","","","1","1","training","adjacent","FG","6","7","P.jpg","R.jpg","0","1","0","",""
"","feedback","","html-keyboard-response","14","84065","0.0-1.0-15.0-0.0","0","0","57427","","null","","","null","1","","","","","","","","","","","","","","","",""
"","time_out","","html-keyboard-response","15","86068","0.0-1.0-17.0-0.0","0","0","57427","","null","","","null","1","","","","","","","","","","","","","","","",""
"","ITI","","html-keyboard-response","16","87071","0.0-1.0-18.0","0","0","57427","","null","","","null","1","","","","","","","","","","","","","","","NaN",""
"","S1","","html-keyboard-response","17","87324","0.0-1.0-20.0","0","0","57427","","null","","","null","2","","","","","","","","","","","","","","","",""
"","ISI","","html-keyboard-response","18","88326","0.0-1.0-21.0","0","0","57427","","null","","","null","2","NaN","","","","","","","","","","","","","","",""
"","S2","","html-keyboard-response","19","88578","0.0-1.0-22.0","0","0","57427","","null","","","null","2","","NaN","","","","","","","","","","","","","",""
"","response","","html-keyboard-response","20","89164","0.0-1.0-23.0-0.0","0","0","57427","","584","","","75","2","","","1","2","training","adjacent","FE","6","5","P.jpg","Q.jpg","1","0","0","",""
"","feedback","","html-keyboard-response","21","90168","0.0-1.0-24.0-0.0","0","0","57427","","null","","","null","2","","","","","","","","","","","","","","","",""
"","time_out","","html-keyboard-response","22","92170","0.0-1.0-26.0-0.0","0","0","57427","","null","","","null","2","","","","","","","","","","","","","","","",""
"","ITI","","html-keyboard-response","23","93173","0.0-1.0-27.0","0","0","57427","","null","","","null","2","","","","","","","","","","","","","","","NaN",""
"","S1","","html-keyboard-response","24","93427","0.0-1.0-29.0","0","0","57427","","null","","","null","3","","","","","","","","","","","","","","","",""
"","ISI","","html-keyboard-response","25","94430","0.0-1.0-30.0","0","0","57427","","null","","","null","3","NaN","","","","","","","","","","","","","","",""
"","S2","","html-keyboard-response","26","94682","0.0-1.0-31.0","0","0","57427","","null","","","null","3","","NaN","","","","","","","","","","","","","",""
"","response","","html-keyboard-response","27","94924","0.0-1.0-32.0-0.0","0","0","57427","","241","","","75","3","","","1","3","training","adjacent","AB","1","2","N.jpg","O.jpg","1","1","1","",""
"","feedback","","html-keyboard-response","28","95926","0.0-1.0-33.0-0.0","0","0","57427","","null","","","null","3","","","","","","","","","","","","","","","",""
"","ITI","","html-keyboard-response","29","96930","0.0-1.0-36.0","0","0","57427","","null","","","null","3","","","","","","","","","","","","","","","NaN",""
"","S1","","html-keyboard-response","30","97184","0.0-1.0-38.0","0","0","57427","","null","","","null","4","","","","","","","","","","","","","","","",""
"","ISI","","html-keyboard-response","31","98186","0.0-1.0-39.0","0","0","57427","","null","","","null","4","NaN","","","","","","","","","","","","","","",""
"","S2","","html-keyboard-response","32","98439","0.0-1.0-40.0","0","0","57427","","null","","","null","4","","NaN","","","","","","","","","","","","","",""
"","response","","html-keyboard-response","33","98894","0.0-1.0-41.0-0.0","0","0","57427","","453","","","75","4","","","1","4","training","adjacent","CB","3","2","L.jpg","O.jpg","1","0","0","",""
"","feedback","","html-keyboard-response","34","99897","0.0-1.0-42.0-0.0","0","0","57427","","null","","","null","4","","","","","","","","","","","","","","","",""
"","time_out","","html-keyboard-response","35","101900","0.0-1.0-44.0-0.0","0","0","57427","","null","","","null","4","","","","","","","","","","","","","","","",""
"","ITI","","html-keyboard-response","36","102912","0.0-1.0-45.0","0","0","57427","","null","","","null","4","","","","","","","","","","","","","","","NaN",""
"","S1","","html-keyboard-response","37","103165","0.0-1.0-47.0","0","0","57427","","null","","","null","5","","","","","","","","","","","","","","","",""
"","ISI","","html-keyboard-response","38","104168","0.0-1.0-48.0","0","0","57427","","null","","","null","5","NaN","","","","","","","","","","","","","","",""
"","S2","","html-keyboard-response","39","104421","0.0-1.0-49.0","0","0","57427","","null","","","null","5","","NaN","","","","","","","","","","","","","",""
"","response","","html-keyboard-response","40","104785","0.0-1.0-50.0-0.0","0","0","57427","","362","","","68","5","","","1","5","training","adjacent","CD","3","4","L.jpg","M.jpg","0","1","0","",""
"","feedback","","html-keyboard-response","41","105789","0.0-1.0-51.0-0.0","0","0","57427","","null","","","null","5","","","","","","","","","","","","","","","",""
"","time_out","","html-keyboard-response","42","107792","0.0-1.0-53.0-0.0","0","0","57427","","null","","","null","5","","","","","","","","","","","","","","","",""
"","ITI","","html-keyboard-response","43","108795","0.0-1.0-54.0","0","0","57427","","null","","","null","5","","","","","","","","","","","","","","","NaN",""
"","S1","","html-keyboard-response","44","109048","0.0-1.0-56.0","0","0","57427","","null","","","null","6","","","","","","","","","","","","","","","",""
"","ISI","","html-keyboard-response","45","110051","0.0-1.0-57.0","0","0","57427","","null","","","null","6","NaN","","","","","","","","","","","","","","",""
"","S2","","html-keyboard-response","46","110304","0.0-1.0-58.0","0","0","57427","","null","","","null","6","","NaN","","","","","","","","","","","","","",""
"","response","","html-keyboard-response","47","110761","0.0-1.0-59.0-0.0","0","0","57427","","455","","","75","6","","","1","6","training","adjacent","FG","6","7","P.jpg","R.jpg","1","1","1","",""
"","feedback","","html-keyboard-response","48","111764","0.0-1.0-60.0-0.0","0","0","57427","","null","","","null","6","","","","","","","","","","","","","","","",""
"","ITI","","html-keyboard-response","49","112766","0.0-1.0-63.0","0","0","57427","","null","","","null","6","","","","","","","","","","","","","","","NaN",""
"","S1","","html-keyboard-response","50","113018","0.0-1.0-65.0","0","0","57427","","null","","","null","7","","","","","","","","","","","","","","","",""
"","ISI","","html-keyboard-response","51","114022","0.0-1.0-66.0","0","0","57427","","null","","","null","7","NaN","","","","","","","","","","","","","","",""
"","S2","","html-keyboard-response","52","114276","0.0-1.0-67.0","0","0","57427","","null","","","null","7","","NaN","","","","","","","","","","","","","",""
"","response","","html-keyboard-response","53","114279","0.0-1.0-68.0-0.0","0","0","57427","","2","","","75","7","","","1","7","training","adjacent","DC","4","3","M.jpg","L.jpg","1","0","0","",""
"","feedback","","html-keyboard-response","54","115283","0.0-1.0-69.0-0.0","0","0","57427","","null","","","null","7","","","","","","","","","","","","","","","",""
"","time_out","","html-keyboard-response","55","117285","0.0-1.0-71.0-0.0","0","0","57427","","null","","","null","7","","","","","","","","","","","","","","","",""
"","ITI","","html-keyboard-response","56","118288","0.0-1.0-72.0","0","0","57427","","null","","","null","7","","","","","","","","","","","","","","","NaN",""
"","S1","","html-keyboard-response","57","118541","0.0-1.0-74.0","0","0","57427","","null","","","null","8","","","","","","","","","","","","","","","",""
"","ISI","","html-keyboard-response","58","119544","0.0-1.0-75.0","0","0","57427","","null","","","null","8","NaN","","","","","","","","","","","","","","",""
"","S2","","html-keyboard-response","59","119797","0.0-1.0-76.0","0","0","57427","","null","","","null","8","","NaN","","","","","","","","","","","","","",""
"","response","","html-keyboard-response","60","120086","0.0-1.0-77.0-0.0","0","0","57427","","287","","","75","8","","","1","8","training","adjacent","BC","2","3","O.jpg","L.jpg","1","1","1","",""
"","feedback","","html-keyboard-response","61","121089","0.0-1.0-78.0-0.0","0","0","57427","","null","","","null","8","","","","","","","","","","","","","","","",""
"","ITI","","html-keyboard-response","62","122092","0.0-1.0-81.0","0","0","57427","","null","","","null","8","","","","","","","","","","","","","","","NaN",""
"","S1","","html-keyboard-response","63","122346","0.0-1.0-83.0","0","0","57427","","null","","","null","9","","","","","","","","","","","","","","","",""
"","ISI","","html-keyboard-response","64","123349","0.0-1.0-84.0","0","0","57427","","null","","","null","9","NaN","","","","","","","","","","","","","","",""
"","S2","","html-keyboard-response","65","123609","0.0-1.0-85.0","0","0","57427","","null","","","null","9","","NaN","","","","","","","","","","","","","",""
"","response","","html-keyboard-response","66","123701","0.0-1.0-86.0-0.0","0","0","57427","","90","","","75","9","","","1","9","training","adjacent","ED","5","4","Q.jpg","M.jpg","1","0","0","",""
"","feedback","","html-keyboard-response","67","124703","0.0-1.0-87.0-0.0","0","0","57427","","null","","","null","9","","","","","","","","","","","","","","","",""
"","time_out","","html-keyboard-response","68","126706","0.0-1.0-89.0-0.0","0","0","57427","","null","","","null","9","","","","","","","","","","","","","","","",""
"","ITI","","html-keyboard-response","69","127709","0.0-1.0-90.0","0","0","57427","","null","","","null","9","","","","","","","","","","","","","","","NaN",""
"","S1","","html-keyboard-response","70","127962","0.0-1.0-92.0","0","0","57427","","null","","","null","10","","","","","","","","","","","","","","","",""
"","ISI","","html-keyboard-response","71","128966","0.0-1.0-93.0","0","0","57427","","null","","","null","10","NaN","","","","","","","","","","","","","","",""
"","S2","","html-keyboard-response","72","129219","0.0-1.0-94.0","0","0","57427","","null","","","null","10","","NaN","","","","","","","","","","","","","",""
"","response","","html-keyboard-response","73","129232","0.0-1.0-95.0-0.0","0","0","57427","","11","","","75","10","","","1","10","training","adjacent","AB","1","2","N.jpg","O.jpg","1","1","1","",""
"","feedback","","html-keyboard-response","74","130235","0.0-1.0-96.0-0.0","0","0","57427","","null","","","null","10","","","","","","","","","","","","","","","",""
"","ITI","","html-keyboard-response","75","131238","0.0-1.0-99.0","0","0","57427","","null","","","null","10","","","","","","","","","","","","","","","NaN",""
"","S1","","html-keyboard-response","76","131491","0.0-1.0-101.0","0","0","57427","","null","","","null","11","","","","","","","","","","","","","","","",""
"","ISI","","html-keyboard-response","77","132494","0.0-1.0-102.0","0","0","57427","","null","","","null","11","NaN","","","","","","","","","","","","","","",""
"","S2","","html-keyboard-response","78","132747","0.0-1.0-103.0","0","0","57427","","null","","","null","11","","NaN","","","","","","","","","","","","","",""
"","response","","html-keyboard-response","79","133023","0.0-1.0-104.0-0.0","0","0","57427","","274","","","68","11","","","1","11","training","adjacent","ED","5","4","Q.jpg","M.jpg","0","0","1","",""
"","feedback","","html-keyboard-response","80","134026","0.0-1.0-105.0-0.0","0","0","57427","","null","","","null","11","","","","","","","","","","","","","","","",""
"","ITI","","html-keyboard-response","81","135029","0.0-1.0-108.0","0","0","57427","","null","","","null","11","","","","","","","","","","","","","","","NaN",""
"","S1","","html-keyboard-response","82","135282","0.0-1.0-110.0","0","0","57427","","null","","","null","12","","","","","","","","","","","","","","","",""
"","ISI","","html-keyboard-response","83","136285","0.0-1.0-111.0","0","0","57427","","null","","","null","12","NaN","","","","","","","","","","","","","","",""
"","S2","","html-keyboard-response","84","136539","0.0-1.0-112.0","0","0","57427","","null","","","null","12","","NaN","","","","","","","","","","","","","",""
"","response","","html-keyboard-response","85","136811","0.0-1.0-113.0-0.0","0","0","57427","","269","","","75","12","","","1","12","training","adjacent","CD","3","4","L.jpg","M.jpg","1","1","1","",""
"","feedback","","html-keyboard-response","86","137813","0.0-1.0-114.0-0.0","0","0","57427","","null","","","null","12","","","","","","","","","","","","","","","",""
"","ITI","","html-keyboard-response","87","138817","0.0-1.0-117.0","0","0","57427","","null","","","null","12","","","","","","","","","","","","","","","NaN",""
"","S1","","html-keyboard-response","88","139070","0.0-1.0-119.0","0","0","57427","","null","","","null","13","","","","","","","","","","","","","","","",""
"","ISI","","html-keyboard-response","89","140073","0.0-1.0-120.0","0","0","57427","","null","","","null","13","NaN","","","","","","","","","","","","","","",""
"","S2","","html-keyboard-response","90","140326","0.0-1.0-121.0","0","0","57427","","null","","","null","13","","NaN","","","","","","","","","","","","","",""
"","response","","html-keyboard-response","91","140528","0.0-1.0-122.0-0.0","0","0","57427","","200","","","68","13","","","1","13","training","adjacent","CB","3","2","L.jpg","O.jpg","0","0","1","",""
"","feedback","","html-keyboard-response","92","141531","0.0-1.0-123.0-0.0","0","0","57427","","null","","","null","13","","","","","","","","","","","","","","","",""
"","ITI","","html-keyboard-response","93","142534","0.0-1.0-126.0","0","0","57427","","null","","","null","13","","","","","","","","","","","","","","","NaN",""
"","S1","","html-keyboard-response","94","142787","0.0-1.0-128.0","0","0","57427","","null","","","null","14","","","","","","","","","","","","","","","",""
"","ISI","","html-keyboard-response","95","143790","0.0-1.0-129.0","0","0","57427","","null","","","null","14","NaN","","","","","","","","","","","","","","",""
"","S2","","html-keyboard-response","96","144044","0.0-1.0-130.0","0","0","57427","","null","","","null","14","","NaN","","","","","","","","","","","","","",""
"","response","","html-keyboard-response","97","144338","0.0-1.0-131.0-0.0","0","0","57427","","293","","","75","14","","","1","14","training","adjacent","GF","7","6","R.jpg","P.jpg","1","0","0","",""
"","feedback","","html-keyboard-response","98","145341","0.0-1.0-132.0-0.0","0","0","57427","","null","","","null","14","","","","","","","","","","","","","","","",""
"","time_out","","html-keyboard-response","99","147343","0.0-1.0-134.0-0.0","0","0","57427","","null","","","null","14","","","","","","","","","","","","","","","",""
"","ITI","","html-keyboard-response","100","148347","0.0-1.0-135.0","0","0","57427","","null","","","null","14","","","","","","","","","","","","","","","NaN",""
"","S1","","html-keyboard-response","101","148601","0.0-1.0-137.0","0","0","57427","","null","","","null","15","","","","","","","","","","","","","","","",""
"","ISI","","html-keyboard-response","102","149604","0.0-1.0-138.0","0","0","57427","","null","","","null","15","NaN","","","","","","","","","","","","","","",""
"","S2","","html-keyboard-response","103","149857","0.0-1.0-139.0","0","0","57427","","null","","","null","15","","NaN","","","","","","","","","","","","","",""
"","response","","html-keyboard-response","104","150121","0.0-1.0-140.0-0.0","0","0","57427","","262","","","75","15","","","1","15","training","adjacent","DE","4","5","M.jpg","Q.jpg","1","1","1","",""
"","feedback","","html-keyboard-response","105","151124","0.0-1.0-141.0-0.0","0","0","57427","","null","","","null","15","","","","","","","","","","","","","","","",""
"","ITI","","html-keyboard-response","106","152127","0.0-1.0-144.0","0","0","57427","","null","","","null","15","","","","","","","","","","","","","","","NaN",""
"","S1","","html-keyboard-response","107","152380","0.0-1.0-146.0","0","0","57427","","null","","","null","16","","","","","","","","","","","","","","","",""
"","ISI","","html-keyboard-response","108","153383","0.0-1.0-147.0","0","0","57427","","null","","","null","16","NaN","","","","","","","","","","","","","","",""
"","S2","","html-keyboard-response","109","153637","0.0-1.0-148.0","0","0","57427","","null","","","null","16","","NaN","","","","","","","","","","","","","",""
"","response","","html-keyboard-response","110","153677","0.0-1.0-149.0-0.0","0","0","57427","","37","","","75","16","","","1","16","training","adjacent","CD","3","4","L.jpg","M.jpg","1","1","1","",""
"","feedback","","html-keyboard-response","111","154680","0.0-1.0-150.0-0.0","0","0","57427","","null","","","null","16","","","","","","","","","","","","","","","",""
"","ITI","","html-keyboard-response","112","155683","0.0-1.0-153.0","0","0","57427","","null","","","null","16","","","","","","","","","","","","","","","NaN",""
"","S1","","html-keyboard-response","113","155936","0.0-1.0-155.0","0","0","57427","","null","","","null","17","","","","","","","","","","","","","","","",""
"","ISI","","html-keyboard-response","114","156940","0.0-1.0-156.0","0","0","57427","","null","","","null","17","NaN","","","","","","","","","","","","","","",""
"","S2","","html-keyboard-response","115","157194","0.0-1.0-157.0","0","0","57427","","null","","","null","17","","NaN","","","","","","","","","","","","","",""
"","response","","html-keyboard-response","116","157539","0.0-1.0-158.0-0.0","0","0","57427","","343","","","68","17","","","1","17","training","adjacent","AB","1","2","N.jpg","O.jpg","0","1","0","",""
"","feedback","","html-keyboard-response","117","158542","0.0-1.0-159.0-0.0","0","0","57427","","null","","","null","17","","","","","","","","","","","","","","","",""
"","time_out","","html-keyboard-response","118","160545","0.0-1.0-161.0-0.0","0","0","57427","","null","","","null","17","","","","","","","","","","","","","","","",""
"","ITI","","html-keyboard-response","119","161548","0.0-1.0-162.0","0","0","57427","","null","","","null","17","","","","","","","","","","","","","","","NaN",""
"","S1","","html-keyboard-response","120","161803","0.0-1.0-164.0","0","0","57427","","null","","","null","18","","","","","","","","","","","","","","","",""
"","ISI","","html-keyboard-response","121","162805","0.0-1.0-165.0","0","0","57427","","null","","","null","18","NaN","","","","","","","","","","","","","","",""
"","S2","","html-keyboard-response","122","163058","0.0-1.0-166.0","0","0","57427","","null","","","null","18","","NaN","","","","","","","","","","","","","",""
"","response","","html-keyboard-response","123","163431","0.0-1.0-167.0-0.0","0","0","57427","","370","","","75","18","","","1","18","training","adjacent","BC","2","3","O.jpg","L.jpg","1","1","1","",""
"","feedback","","html-keyboard-response","124","164435","0.0-1.0-168.0-0.0","0","0","57427","","null","","","null","18","","","","","","","","","","","","","","","",""
"","ITI","","html-keyboard-response","125","165438","0.0-1.0-171.0","0","0","57427","","null","","","null","18","","","","","","","","","","","","","","","NaN",""
"","S1","","html-keyboard-response","126","165692","0.0-1.0-173.0","0","0","57427","","null","","","null","19","","","","","","","","","","","","","","","",""
"","ISI","","html-keyboard-response","127","166694","0.0-1.0-174.0","0","0","57427","","null","","","null","19","NaN","","","","","","","","","","","","","","",""
"","S2","","html-keyboard-response","128","166948","0.0-1.0-175.0","0","0","57427","","null","","","null","19","","NaN","","","","","","","","","","","","","",""
"","response","","html-keyboard-response","129","167193","0.0-1.0-176.0-0.0","0","0","57427","","244","","","75","19","","","1","19","training","adjacent","BA","2","1","O.jpg","N.jpg","1","0","0","",""
"","feedback","","html-keyboard-response","130","168197","0.0-1.0-177.0-0.0","0","0","57427","","null","","","null","19","","","","","","","","","","","","","","","",""
"","time_out","","html-keyboard-response","131","170200","0.0-1.0-179.0-0.0","0","0","57427","","null","","","null","19","","","","","","","","","","","","","","","",""
"","ITI","","html-keyboard-response","132","171202","0.0-1.0-180.0","0","0","57427","","null","","","null","19","","","","","","","","","","","","","","","NaN",""
"","S1","","html-keyboard-response","133","171456","0.0-1.0-182.0","0","0","57427","","null","","","null","20","","","","","","","","","","","","","","","",""
"","ISI","","html-keyboard-response","134","172459","0.0-1.0-183.0","0","0","57427","","646","","","75","20","k","","","","","","","","","","","","","","",""
"","S2","","html-keyboard-response","135","172714","0.0-1.0-184.0","0","0","57427","","null","","","null","20","","NaN","","","","","","","","","","","","","",""
"","response","","html-keyboard-response","136","173052","0.0-1.0-185.0-0.0","0","0","57427","","336","","","75","20","","","1","20","training","adjacent","CB","3","2","L.jpg","O.jpg","1","0","0","",""
"","feedback","","html-keyboard-response","137","174055","0.0-1.0-186.0-0.0","0","0","57427","","null","","","null","20","","","","","","","","","","","","","","","",""
"","time_out","","html-keyboard-response","138","176058","0.0-1.0-188.0-0.0","0","0","57427","","null","","","null","20","","","","","","","","","","","","","","","",""
"","ITI","","html-keyboard-response","139","177065","0.0-1.0-189.0","0","0","57427","","null","","","null","20","","","","","","","","","","","","","","","NaN",""
"","S1","","html-keyboard-response","140","177317","0.0-1.0-191.0","0","0","57427","","null","","","null","21","","","","","","","","","","","","","","","",""
"","ISI","","html-keyboard-response","141","178320","0.0-1.0-192.0","0","0","57427","","null","","","null","21","NaN","","","","","","","","","","","","","","",""
"","S2","","html-keyboard-response","142","178574","0.0-1.0-193.0","0","0","57427","","null","","","null","21","","NaN","","","","","","","","","","","","","",""
"","response","","html-keyboard-response","143","178896","0.0-1.0-194.0-0.0","0","0","57427","","320","","","75","21","","","1","21","training","adjacent","BC","2","3","O.jpg","L.jpg","1","1","1","",""
"","feedback","","html-keyboard-response","144","179900","0.0-1.0-195.0-0.0","0","0","57427","","null","","","null","21","","","","","","","","","","","","","","","",""
"","ITI","","html-keyboard-response","145","180903","0.0-1.0-198.0","0","0","57427","","null","","","null","21","","","","","","","","","","","","","","","NaN",""
"","S1","","html-keyboard-response","146","181155","0.0-1.0-200.0","0","0","57427","","null","","","null","22","","","","","","","","","","","","","","","",""
"","ISI","","html-keyboard-response","147","182158","0.0-1.0-201.0","0","0","57427","","null","","","null","22","NaN","","","","","","","","","","","","","","",""
"","S2","","html-keyboard-response","148","182411","0.0-1.0-202.0","0","0","57427","","null","","","null","22","","NaN","","","","","","","","","","","","","",""
"","response","","html-keyboard-response","149","182786","0.0-1.0-203.0-0.0","0","0","57427","","372","","","68","22","","","1","22","training","adjacent","BA","2","1","O.jpg","N.jpg","0","0","1","",""
"","feedback","","html-keyboard-response","150","183789","0.0-1.0-204.0-0.0","0","0","57427","","null","","","null","22","","","","","","","","","","","","","","","",""
"","ITI","","html-keyboard-response","151","184792","0.0-1.0-207.0","0","0","57427","","null","","","null","22","","","","","","","","","","","","","","","NaN",""
"","S1","","html-keyboard-response","152","185045","0.0-1.0-209.0","0","0","57427","","null","","","null","23","","","","","","","","","","","","","","","",""
"","ISI","","html-keyboard-response","153","186048","0.0-1.0-210.0","0","0","57427","","null","","","null","23","NaN","","","","","","","","","","","","","","",""
"","S2","","html-keyboard-response","154","186301","0.0-1.0-211.0","0","0","57427","","null","","","null","23","","NaN","","","","","","","","","","","","","",""
"","response","","html-keyboard-response","155","186615","0.0-1.0-212.0-0.0","0","0","57427","","311","","","68","23","","","1","23","training","adjacent","EF","5","6","Q.jpg","P.jpg","0","1","0","",""
"","feedback","","html-keyboard-response","156","187618","0.0-1.0-213.0-0.0","0","0","57427","","null","","","null","23","","","","","","","","","","","","","","","",""
"","time_out","","html-keyboard-response","157","189621","0.0-1.0-215.0-0.0","0","0","57427","","null","","","null","23","","","","","","","","","","","","","","","",""
"","ITI","","html-keyboard-response","158","190624","0.0-1.0-216.0","0","0","57427","","null","","","null","23","","","","","","","","","","","","","","","NaN",""
"","S1","","html-keyboard-response","159","190878","0.0-1.0-218.0","0","0","57427","","null","","","null","24","","","","","","","","","","","","","","","",""
"","ISI","","html-keyboard-response","160","191882","0.0-1.0-219.0","0","0","57427","","null","","","null","24","NaN","","","","","","","","","","","","","","",""
"","S2","","html-keyboard-response","161","192135","0.0-1.0-220.0","0","0","57427","","null","","","null","24","","NaN","","","","","","","","","","","","","",""
"","response","","html-keyboard-response","162","193034","0.0-1.0-221.0-0.0","0","0","57427","","898","","","75","24","","","1","24","training","adjacent","DC","4","3","M.jpg","L.jpg","1","0","0","",""
"","feedback","","html-keyboard-response","163","194038","0.0-1.0-222.0-0.0","0","0","57427","","null","","","null","24","","","","","","","","","","","","","","","",""
"","time_out","","html-keyboard-response","164","196041","0.0-1.0-224.0-0.0","0","0","57427","","null","","","null","24","","","","","","","","","","","","","","","",""
"","ITI","","html-keyboard-response","165","197043","0.0-1.0-225.0","0","0","57427","","null","","","null","24","","","","","","","","","","","","","","","NaN",""
"","S1","","html-keyboard-response","166","197297","0.0-1.0-227.0","0","0","57427","","null","","","null","25","","","","","","","","","","","","","","","",""
"","ISI","","html-keyboard-response","167","198300","0.0-1.0-228.0","0","0","57427","","null","","","null","25","NaN","","","","","","","","","","","","","","",""
"","S2","","html-keyboard-response","168","198554","0.0-1.0-229.0","0","0","57427","","null","","","null","25","","NaN","","","","","","","","","","","","","",""
"","response","","html-keyboard-response","169","198597","0.0-1.0-230.0-0.0","0","0","57427","","41","","","68","25","","","1","25","training","adjacent","FE","6","5","P.jpg","Q.jpg","0","0","1","",""
"","feedback","","html-keyboard-response","170","199601","0.0-1.0-231.0-0.0","0","0","57427","","null","","","null","25","","","","","","","","","","","","","","","",""
"","ITI","","html-keyboard-response","171","200605","0.0-1.0-234.0","0","0","57427","","null","","","null","25","","","","","","","","","","","","","","","NaN",""
"","S1","","html-keyboard-response","172","200859","0.0-1.0-236.0","0","0","57427","","null","","","null","26","","","","","","","","","","","","","","","",""
"","ISI","","html-keyboard-response","173","201862","0.0-1.0-237.0","0","0","57427","","null","","","null","26","NaN","","","","","","","","","","","","","","",""
"","S2","","html-keyboard-response","174","202115","0.0-1.0-238.0","0","0","57427","","null","","","null","26","","NaN","","","","","","","","","","","","","",""
"","response","","html-keyboard-response","175","202442","0.0-1.0-239.0-0.0","0","0","57427","","325","","","68","26","","","1","26","training","adjacent","GF","7","6","R.jpg","P.jpg","0","0","1","",""
"","feedback","","html-keyboard-response","176","203444","0.0-1.0-240.0-0.0","0","0","57427","","null","","","null","26","","","","","","","","","","","","","","","",""
"","ITI","","html-keyboard-response","177","204447","0.0-1.0-243.0","0","0","57427","","null","","","null","26","","","","","","","","","","","","","","","NaN",""
"","S1","","html-keyboard-response","178","204701","0.0-1.0-245.0","0","0","57427","","null","","","null","27","","","","","","","","","","","","","","","",""
"","ISI","","html-keyboard-response","179","205704","0.0-1.0-246.0","0","0","57427","","null","","","null","27","NaN","","","","","","","","","","","","","","",""
"","S2","","html-keyboard-response","180","205957","0.0-1.0-247.0","0","0","57427","","null","","","null","27","","NaN","","","","","","","","","","","","","",""
"","response","","html-keyboard-response","181","206240","0.0-1.0-248.0-0.0","0","0","57427","","281","","","75","27","","","1","27","training","adjacent","BA","2","1","O.jpg","N.jpg","1","0","0","",""
"","feedback","","html-keyboard-response","182","207243","0.0-1.0-249.0-0.0","0","0","57427","","null","","","null","27","","","","","","","","","","","","","","","",""
"","time_out","","html-keyboard-response","183","209247","0.0-1.0-251.0-0.0","0","0","57427","","null","","","null","27","","","","","","","","","","","","","","","",""
"","ITI","","html-keyboard-response","184","210250","0.0-1.0-252.0","0","0","57427","","null","","","null","27","","","","","","","","","","","","","","","NaN",""
"","S1","","html-keyboard-response","185","210503","0.0-1.0-254.0","0","0","57427","","null","","","null","28","","","","","","","","","","","","","","","",""
"","ISI","","html-keyboard-response","186","211508","0.0-1.0-255.0","0","0","57427","","null","","","null","28","NaN","","","","","","","","","","","","","","",""
"","S2","","html-keyboard-response","187","211761","0.0-1.0-256.0","0","0","57427","","null","","","null","28","","NaN","","","","","","","","","","","","","",""
"","response","","html-keyboard-response","188","212071","0.0-1.0-257.0-0.0","0","0","57427","","308","","","75","28","","","1","28","training","adjacent","EF","5","6","Q.jpg","P.jpg","1","1","1","",""
"","feedback","","html-keyboard-response","189","213075","0.0-1.0-258.0-0.0","0","0","57427","","null","","","null","28","","","","","","","","","","","","","","","",""
"","ITI","","html-keyboard-response","190","214077","0.0-1.0-261.0","0","0","57427","","null","","","null","28","","","","","","","","","","","","","","","NaN",""
"","S1","","html-keyboard-response","191","214330","0.0-1.0-263.0","0","0","57427","","null","","","null","29","","","","","","","","","","","","","","","",""
"","ISI","","html-keyboard-response","192","215333","0.0-1.0-264.0","0","0","57427","","null","","","null","29","NaN","","","","","","","","","","","","","","",""
"","S2","","html-keyboard-response","193","215587","0.0-1.0-265.0","0","0","57427","","null","","","null","29","","NaN","","","","","","","","","","","","","",""
"","response","","html-keyboard-response","194","215801","0.0-1.0-266.0-0.0","0","0","57427","","212","","","68","29","","","1","29","training","adjacent","DC","4","3","M.jpg","L.jpg","0","0","1","",""
"","feedback","","html-keyboard-response","195","216804","0.0-1.0-267.0-0.0","0","0","57427","","null","","","null","29","","","","","","","","","","","","","","","",""
"","ITI","","html-keyboard-response","196","217808","0.0-1.0-270.0","0","0","57427","","null","","","null","29","","","","","","","","","","","","","","","NaN",""
"","S1","","html-keyboard-response","197","218061","0.0-1.0-272.0","0","0","57427","","null","","","null","30","","","","","","","","","","","","","","","",""
"","ISI","","html-keyboard-response","198","219064","0.0-1.0-273.0","0","0","57427","","null","","","null","30","NaN","","","","","","","","","","","","","","",""
"","S2","","html-keyboard-response","199","219317","0.0-1.0-274.0","0","0","57427","","null","","","null","30","","NaN","","","","","","","","","","","","","",""
"","response","","html-keyboard-response","200","219612","0.0-1.0-275.0-0.0","0","0","57427","","294","","","75","30","","","1","30","training","adjacent","EF","5","6","Q.jpg","P.jpg","1","1","1","",""
"","feedback","","html-keyboard-response","201","220628","0.0-1.0-276.0-0.0","0","0","57427","","null","","","null","30","","","","","","","","","","","","","","","",""
"","ITI","","html-keyboard-response","202","221631","0.0-1.0-279.0","0","0","57427","","null","","","null","30","","","","","","","","","","","","","","","NaN",""
"","S1","","html-keyboard-response","203","221884","0.0-1.0-281.0","0","0","57427","","null","","","null","31","","","","","","","","","","","","","","","",""
"","ISI","","html-keyboard-response","204","222887","0.0-1.0-282.0","0","0","57427","","null","","","null","31","NaN","","","","","","","","","","","","","","",""
"","S2","","html-keyboard-response","205","223140","0.0-1.0-283.0","0","0","57427","","null","","","null","31","","NaN","","","","","","","","","","","","","",""
"","response","","html-keyboard-response","206","223410","0.0-1.0-284.0-0.0","0","0","57427","","268","","","68","31","","","1","31","training","adjacent","DE","4","5","M.jpg","Q.jpg","0","1","0","",""
"","feedback","","html-keyboard-response","207","224415","0.0-1.0-285.0-0.0","0","0","57427","","null","","","null","31","","","","","","","","","","","","","","","",""
"","time_out","","html-keyboard-response","208","226418","0.0-1.0-287.0-0.0","0","0","57427","","null","","","null","31","","","","","","","","","","","","","","","",""
"","ITI","","html-keyboard-response","209","227421","0.0-1.0-288.0","0","0","57427","","null","","","null","31","","","","","","","","","","","","","","","NaN",""
"","S1","","html-keyboard-response","210","227675","0.0-1.0-290.0","0","0","57427","","null","","","null","32","","","","","","","","","","","","","","","",""
"","ISI","","html-keyboard-response","211","228677","0.0-1.0-291.0","0","0","57427","","null","","","null","32","NaN","","","","","","","","","","","","","","",""
"","S2","","html-keyboard-response","212","228931","0.0-1.0-292.0","0","0","57427","","null","","","null","32","","NaN","","","","","","","","","","","","","",""
"","response","","html-keyboard-response","213","229284","0.0-1.0-293.0-0.0","0","0","57427","","350","","","75","32","","","1","32","training","adjacent","ED","5","4","Q.jpg","M.jpg","1","0","0","",""
"","feedback","","html-keyboard-response","214","230287","0.0-1.0-294.0-0.0","0","0","57427","","null","","","null","32","","","","","","","","","","","","","","","",""
"","time_out","","html-keyboard-response","215","232292","0.0-1.0-296.0-0.0","0","0","57427","","null","","","null","32","","","","","","","","","","","","","","","",""
"","ITI","","html-keyboard-response","216","233295","0.0-1.0-297.0","0","0","57427","","null","","","null","32","","","","","","","","","","","","","","","NaN",""
"","S1","","html-keyboard-response","217","233549","0.0-1.0-299.0","0","0","57427","","null","","","null","33","","","","","","","","","","","","","","","",""
"","ISI","","html-keyboard-response","218","234554","0.0-1.0-300.0","0","0","57427","","null","","","null","33","NaN","","","","","","","","","","","","","","",""
"","S2","","html-keyboard-response","219","234807","0.0-1.0-301.0","0","0","57427","","null","","","null","33","","NaN","","","","","","","","","","","","","",""
"","response","","html-keyboard-response","220","235339","0.0-1.0-302.0-0.0","0","0","57427","","530","","","75","33","","","1","33","training","adjacent","FE","6","5","P.jpg","Q.jpg","1","0","0","",""
"","feedback","","html-keyboard-response","221","236341","0.0-1.0-303.0-0.0","0","0","57427","","null","","","null","33","","","","","","","","","","","","","","","",""
"","time_out","","html-keyboard-response","222","238344","0.0-1.0-305.0-0.0","0","0","57427","","null","","","null","33","","","","","","","","","","","","","","","",""
"","ITI","","html-keyboard-response","223","239348","0.0-1.0-306.0","0","0","57427","","null","","","null","33","","","","","","","","","","","","","","","NaN",""
"","S1","","html-keyboard-response","224","239601","0.0-1.0-308.0","0","0","57427","","null","","","null","34","","","","","","","","","","","","","","","",""
"","ISI","","html-keyboard-response","225","240604","0.0-1.0-309.0","0","0","57427","","null","","","null","34","NaN","","","","","","","","","","","","","","",""
"","S2","","html-keyboard-response","226","240857","0.0-1.0-310.0","0","0","57427","","null","","","null","34","","NaN","","","","","","","","","","","","","",""
"","response","","html-keyboard-response","227","240873","0.0-1.0-311.0-0.0","0","0","57427","","14","","","75","34","","","1","34","training","adjacent","BC","2","3","O.jpg","L.jpg","1","1","1","",""
"","feedback","","html-keyboard-response","228","241876","0.0-1.0-312.0-0.0","0","0","57427","","null","","","null","34","","","","","","","","","","","","","","","",""
"","ITI","","html-keyboard-response","229","242881","0.0-1.0-315.0","0","0","57427","","null","","","null","34","","","","","","","","","","","","","","","NaN",""
"","S1","","html-keyboard-response","230","243134","0.0-1.0-317.0","0","0","57427","","null","","","null","35","","","","","","","","","","","","","","","",""
"","ISI","","html-keyboard-response","231","244137","0.0-1.0-318.0","0","0","57427","","null","","","null","35","NaN","","","","","","","","","","","","","","",""
"","S2","","html-keyboard-response","232","244391","0.0-1.0-319.0","0","0","57427","","null","","","null","35","","NaN","","","","","","","","","","","","","",""
"","response","","html-keyboard-response","233","244773","0.0-1.0-320.0-0.0","0","0","57427","","380","","","75","35","","","1","35","training","adjacent","GF","7","6","R.jpg","P.jpg","1","0","0","",""
"","feedback","","html-keyboard-response","234","245776","0.0-1.0-321.0-0.0","0","0","57427","","null","","","null","35","","","","","","","","","","","","","","","",""
"","time_out","","html-keyboard-response","235","247779","0.0-1.0-323.0-0.0","0","0","57427","","null","","","null","35","","","","","","","","","","","","","","","",""
"","ITI","","html-keyboard-response","236","248782","0.0-1.0-324.0","0","0","57427","","null","","","null","35","","","","","","","","","","","","","","","NaN",""
"","S1","","html-keyboard-response","237","249035","0.0-1.0-326.0","0","0","57427","","null","","","null","36","","","","","","","","","","","","","","","",""
"","ISI","","html-keyboard-response","238","250039","0.0-1.0-327.0","0","0","57427","","null","","","null","36","NaN","","","","","","","","","","","","","","",""
"","S2","","html-keyboard-response","239","250293","0.0-1.0-328.0","0","0","57427","","null","","","null","36","","NaN","","","","","","","","","","","","","",""
"","response","","html-keyboard-response","240","250711","0.0-1.0-329.0-0.0","0","0","57427","","415","","","75","36","","","1","36","training","adjacent","FG","6","7","P.jpg","R.jpg","1","1","1","",""
"","feedback","","html-keyboard-response","241","251715","0.0-1.0-330.0-0.0","0","0","57427","","null","","","null","36","","","","","","","","","","","","","","","",""
"","ITI","","html-keyboard-response","242","252718","0.0-1.0-333.0","0","0","57427","","null","","","null","36","","","","","","","","","","","","","","","NaN",""
"","S1","","html-keyboard-response","243","252971","0.0-1.0-335.0","0","0","57427","","null","","","null","37","","","","","","","","","","","","","","","",""
"","ISI","","html-keyboard-response","244","253974","0.0-1.0-336.0","0","0","57427","","null","","","null","37","NaN","","","","","","","","","","","","","","",""
"","S2","","html-keyboard-response","245","254227","0.0-1.0-337.0","0","0","57427","","null","","","null","37","","NaN","","","","","","","","","","","","","",""
"","response","","html-keyboard-response","246","254500","0.0-1.0-338.0-0.0","0","0","57427","","272","","","75","37","","","1","37","training","adjacent","FE","6","5","P.jpg","Q.jpg","1","0","0","",""
"","feedback","","html-keyboard-response","247","255503","0.0-1.0-339.0-0.0","0","0","57427","","null","","","null","37","","","","","","","","","","","","","","","",""
"","time_out","","html-keyboard-response","248","257507","0.0-1.0-341.0-0.0","0","0","57427","","null","","","null","37","","","","","","","","","","","","","","","",""
"","ITI","","html-keyboard-response","249","258510","0.0-1.0-342.0","0","0","57427","","null","","","null","37","","","","","","","","","","","","","","","NaN",""
"","S1","","html-keyboard-response","250","258763","0.0-1.0-344.0","0","0","57427","","null","","","null","38","","","","","","","","","","","","","","","",""
"","ISI","","html-keyboard-response","251","259766","0.0-1.0-345.0","0","0","57427","","null","","","null","38","NaN","","","","","","","","","","","","","","",""
"","S2","","html-keyboard-response","252","260020","0.0-1.0-346.0","0","0","57427","","null","","","null","38","","NaN","","","","","","","","","","","","","",""
"","response","","html-keyboard-response","253","260536","0.0-1.0-347.0-0.0","0","0","57427","","513","","","68","38","","","1","38","training","adjacent","DE","4","5","M.jpg","Q.jpg","0","1","0","",""
"","feedback","","html-keyboard-response","254","261540","0.0-1.0-348.0-0.0","0","0","57427","","null","","","null","38","","","","","","","","","","","","","","","",""
"","time_out","","html-keyboard-response","255","263543","0.0-1.0-350.0-0.0","0","0","57427","","null","","","null","38","","","","","","","","","","","","","","","",""
"","ITI","","html-keyboard-response","256","264546","0.0-1.0-351.0","0","0","57427","","null","","","null","38","","","","","","","","","","","","","","","NaN",""
"","S1","","html-keyboard-response","257","264800","0.0-1.0-353.0","0","0","57427","","null","","","null","39","","","","","","","","","","","","","","","",""
"","ISI","","html-keyboard-response","258","265802","0.0-1.0-354.0","0","0","57427","","null","","","null","39","NaN","","","","","","","","","","","","","","",""
"","S2","","html-keyboard-response","259","266054","0.0-1.0-355.0","0","0","57427","","null","","","null","39","","NaN","","","","","","","","","","","","","",""
"","response","","html-keyboard-response","260","266749","0.0-1.0-356.0-0.0","0","0","57427","","692","","","68","39","","","1","39","training","adjacent","EF","5","6","Q.jpg","P.jpg","0","1","0","",""
"","feedback","","html-keyboard-response","261","267752","0.0-1.0-357.0-0.0","0","0","57427","","null","","","null","39","","","","","","","","","","","","","","","",""
"","time_out","","html-keyboard-response","262","269755","0.0-1.0-359.0-0.0","0","0","57427","","null","","","null","39","","","","","","","","","","","","","","","",""
"","ITI","","html-keyboard-response","263","270758","0.0-1.0-360.0","0","0","57427","","null","","","null","39","","","","","","","","","","","","","","","NaN",""
"","S1","","html-keyboard-response","264","271011","0.0-1.0-362.0","0","0","57427","","null","","","null","40","","","","","","","","","","","","","","","",""
"","ISI","","html-keyboard-response","265","272013","0.0-1.0-363.0","0","0","57427","","null","","","null","40","NaN","","","","","","","","","","","","","","",""
"","S2","","html-keyboard-response","266","272267","0.0-1.0-364.0","0","0","57427","","null","","","null","40","","NaN","","","","","","","","","","","","","",""
"","response","","html-keyboard-response","267","272548","0.0-1.0-365.0-0.0","0","0","57427","","279","","","75","40","","","1","40","training","adjacent","AB","1","2","N.jpg","O.jpg","1","1","1","",""
"","feedback","","html-keyboard-response","268","273552","0.0-1.0-366.0-0.0","0","0","57427","","null","","","null","40","","","","","","","","","","","","","","","",""
"","ITI","","html-keyboard-response","269","274555","0.0-1.0-369.0","0","0","57427","","null","","","null","40","","","","","","","","","","","","","","","NaN",""
"","S1","","html-keyboard-response","270","274808","0.0-1.0-371.0","0","0","57427","","null","","","null","41","","","","","","","","","","","","","","","",""
"","ISI","","html-keyboard-response","271","275811","0.0-1.0-372.0","0","0","57427","","null","","","null","41","NaN","","","","","","","","","","","","","","",""
"","S2","","html-keyboard-response","272","276065","0.0-1.0-373.0","0","0","57427","","null","","","null","41","","NaN","","","","","","","","","","","","","",""
"","response","","html-keyboard-response","273","276421","0.0-1.0-374.0-0.0","0","0","57427","","355","","","68","41","","","1","41","training","adjacent","ED","5","4","Q.jpg","M.jpg","0","0","1","",""
"","feedback","","html-keyboard-response","274","277425","0.0-1.0-375.0-0.0","0","0","57427","","null","","","null","41","","","","","","","","","","","","","","","",""
"","ITI","","html-keyboard-response","275","278428","0.0-1.0-378.0","0","0","57427","","null","","","null","41","","","","","","","","","","","","","","","NaN",""
"","S1","","html-keyboard-response","276","278681","0.0-1.0-380.0","0","0","57427","","null","","","null","42","","","","","","","","","","","","","","","",""
"","ISI","","html-keyboard-response","277","279685","0.0-1.0-381.0","0","0","57427","","null","","","null","42","NaN","","","","","","","","","","","","","","",""
"","S2","","html-keyboard-response","278","279939","0.0-1.0-382.0","0","0","57427","","null","","","null","42","","NaN","","","","","","","","","","","","","",""
"","response","","html-keyboard-response","279","280881","0.0-1.0-383.0-0.0","0","0","57427","","940","","","75","42","","","1","42","training","adjacent","GF","7","6","R.jpg","P.jpg","1","0","0","",""
"","feedback","","html-keyboard-response","280","281884","0.0-1.0-384.0-0.0","0","0","57427","","null","","","null","42","","","","","","","","","","","","","","","",""
"","time_out","","html-keyboard-response","281","283887","0.0-1.0-386.0-0.0","0","0","57427","","null","","","null","42","","","","","","","","","","","","","","","",""
"","ITI","","html-keyboard-response","282","284890","0.0-1.0-387.0","0","0","57427","","null","","","null","42","","","","","","","","","","","","","","","NaN",""
"","S1","","html-keyboard-response","283","285142","0.0-1.0-389.0","0","0","57427","","null","","","null","43","","","","","","","","","","","","","","","",""
"","ISI","","html-keyboard-response","284","286145","0.0-1.0-390.0","0","0","57427","","null","","","null","43","NaN","","","","","","","","","","","","","","",""
"","S2","","html-keyboard-response","285","286400","0.0-1.0-391.0","0","0","57427","","null","","","null","43","","NaN","","","","","","","","","","","","","",""
"","response","","html-keyboard-response","286","286740","0.0-1.0-392.0-0.0","0","0","57427","","339","","","75","43","","","1","43","training","adjacent","FG","6","7","P.jpg","R.jpg","1","1","1","",""
"","feedback","","html-keyboard-response","287","287743","0.0-1.0-393.0-0.0","0","0","57427","","null","","","null","43","","","","","","","","","","","","","","","",""
"","ITI","","html-keyboard-response","288","288747","0.0-1.0-396.0","0","0","57427","","null","","","null","43","","","","","","","","","","","","","","","NaN",""
"","S1","","html-keyboard-response","289","289001","0.0-1.0-398.0","0","0","57427","","null","","","null","44","","","","","","","","","","","","","","","",""
"","ISI","","html-keyboard-response","290","290004","0.0-1.0-399.0","0","0","57427","","null","","","null","44","NaN","","","","","","","","","","","","","","",""
"","S2","","html-keyboard-response","291","290257","0.0-1.0-400.0","0","0","57427","","null","","","null","44","","NaN","","","","","","","","","","","","","",""
"","response","","html-keyboard-response","292","290451","0.0-1.0-401.0-0.0","0","0","57427","","193","","","68","44","","","1","44","training","adjacent","BA","2","1","O.jpg","N.jpg","0","0","1","",""
"","feedback","","html-keyboard-response","293","291453","0.0-1.0-402.0-0.0","0","0","57427","","null","","","null","44","","","","","","","","","","","","","","","",""
"","ITI","","html-keyboard-response","294","292456","0.0-1.0-405.0","0","0","57427","","null","","","null","44","","","","","","","","","","","","","","","NaN",""
"","S1","","html-keyboard-response","295","292709","0.0-1.0-407.0","0","0","57427","","null","","","null","45","","","","","","","","","","","","","","","",""
"","ISI","","html-keyboard-response","296","293712","0.0-1.0-408.0","0","0","57427","","null","","","null","45","NaN","","","","","","","","","","","","","","",""
"","S2","","html-keyboard-response","297","293966","0.0-1.0-409.0","0","0","57427","","null","","","null","45","","NaN","","","","","","","","","","","","","",""
"","response","","html-keyboard-response","298","294437","0.0-1.0-410.0-0.0","0","0","57427","","469","","","68","45","","","1","45","training","adjacent","CB","3","2","L.jpg","O.jpg","0","0","1","",""
"","feedback","","html-keyboard-response","299","295439","0.0-1.0-411.0-0.0","0","0","57427","","null","","","null","45","","","","","","","","","","","","","","","",""
"","ITI","","html-keyboard-response","300","296443","0.0-1.0-414.0","0","0","57427","","null","","","null","45","","","","","","","","","","","","","","","NaN",""
"","S1","","html-keyboard-response","301","296696","0.0-1.0-416.0","0","0","57427","","null","","","null","46","","","","","","","","","","","","","","","",""
"","ISI","","html-keyboard-response","302","297698","0.0-1.0-417.0","0","0","57427","","null","","","null","46","NaN","","","","","","","","","","","","","","",""
"","S2","","html-keyboard-response","303","297952","0.0-1.0-418.0","0","0","57427","","null","","","null","46","","NaN","","","","","","","","","","","","","",""
"","response","","html-keyboard-response","304","298280","0.0-1.0-419.0-0.0","0","0","57427","","327","","","68","46","","","1","46","training","adjacent","DE","4","5","M.jpg","Q.jpg","0","1","0","",""
"","feedback","","html-keyboard-response","305","299284","0.0-1.0-420.0-0.0","0","0","57427","","null","","","null","46","","","","","","","","","","","","","","","",""
"","time_out","","html-keyboard-response","306","301286","0.0-1.0-422.0-0.0","0","0","57427","","null","","","null","46","","","","","","","","","","","","","","","",""
"","ITI","","html-keyboard-response","307","302289","0.0-1.0-423.0","0","0","57427","","null","","","null","46","","","","","","","","","","","","","","","NaN",""
"","S1","","html-keyboard-response","308","302542","0.0-1.0-425.0","0","0","57427","","null","","","null","47","","","","","","","","","","","","","","","",""
"","ISI","","html-keyboard-response","309","303544","0.0-1.0-426.0","0","0","57427","","null","","","null","47","NaN","","","","","","","","","","","","","","",""
"","S2","","html-keyboard-response","310","303797","0.0-1.0-427.0","0","0","57427","","null","","","null","47","","NaN","","","","","","","","","","","","","",""
"","response","","html-keyboard-response","311","303984","0.0-1.0-428.0-0.0","0","0","57427","","185","","","75","47","","","1","47","training","adjacent","DC","4","3","M.jpg","L.jpg","1","0","0","",""
"","feedback","","html-keyboard-response","312","304988","0.0-1.0-429.0-0.0","0","0","57427","","null","","","null","47","","","","","","","","","","","","","","","",""
"","time_out","","html-keyboard-response","313","306992","0.0-1.0-431.0-0.0","0","0","57427","","null","","","null","47","","","","","","","","","","","","","","","",""
"","ITI","","html-keyboard-response","314","307995","0.0-1.0-432.0","0","0","57427","","null","","","null","47","","","","","","","","","","","","","","","NaN",""
"","block_over","","html-keyboard-response","315","326460","0.0-1.0-433.0-0.0","0","0","57427","","18462","","","32","47","","","","","","","","","","","","","","","",""
"","S1","","html-keyboard-response","316","326714","0.0-1.0-434.0","0","0","57427","","null","","","null","48","","","","","","","","","","","","","","","",""
"","ISI","","html-keyboard-response","317","327718","0.0-1.0-435.0","0","0","57427","","null","","","null","48","NaN","","","","","","","","","","","","","","",""
"","S2","","html-keyboard-response","318","327971","0.0-1.0-436.0","0","0","57427","","null","","","null","48","","NaN","","","","","","","","","","","","","",""
"","response","","html-keyboard-response","319","328497","0.0-1.0-437.0-0.0","0","0","57427","","523","","","75","48","","","2","48","training","adjacent","ED","5","4","Q.jpg","M.jpg","1","0","0","",""
"","feedback","","html-keyboard-response","320","329501","0.0-1.0-438.0-0.0","0","0","57427","","null","","","null","48","","","","","","","","","","","","","","","",""
"","time_out","","html-keyboard-response","321","331503","0.0-1.0-440.0-0.0","0","0","57427","","null","","","null","48","","","","","","","","","","","","","","","",""
"","ITI","","html-keyboard-response","322","332506","0.0-1.0-441.0","0","0","57427","","null","","","null","48","","","","","","","","","","","","","","","NaN",""
"","S1","","html-keyboard-response","323","332761","0.0-1.0-443.0","0","0","57427","","null","","","null","49","","","","","","","","","","","","","","","",""
"","ISI","","html-keyboard-response","324","333764","0.0-1.0-444.0","0","0","57427","","null","","","null","49","NaN","","","","","","","","","","","","","","",""
"","S2","","html-keyboard-response","325","334017","0.0-1.0-445.0","0","0","57427","","null","","","null","49","","NaN","","","","","","","","","","","","","",""
"","response","","html-keyboard-response","326","334288","0.0-1.0-446.0-0.0","0","0","57427","","269","","","68","49","","","2","49","training","adjacent","DC","4","3","M.jpg","L.jpg","0","0","1","",""
"","feedback","","html-keyboard-response","327","335296","0.0-1.0-447.0-0.0","0","0","57427","","null","","","null","49","","","","","","","","","","","","","","","",""
"","ITI","","html-keyboard-response","328","336300","0.0-1.0-450.0","0","0","57427","","null","","","null","49","","","","","","","","","","","","","","","NaN",""
"","S1","","html-keyboard-response","329","336554","0.0-1.0-452.0","0","0","57427","","null","","","null","50","","","","","","","","","","","","","","","",""
"","ISI","","html-keyboard-response","330","337558","0.0-1.0-453.0","0","0","57427","","null","","","null","50","NaN","","","","","","","","","","","","","","",""
"","S2","","html-keyboard-response","331","337812","0.0-1.0-454.0","0","0","57427","","null","","","null","50","","NaN","","","","","","","","","","","","","",""
"","response","","html-keyboard-response","332","338156","0.0-1.0-455.0-0.0","0","0","57427","","343","","","75","50","","","2","50","training","adjacent","GF","7","6","R.jpg","P.jpg","1","0","0","",""
"","feedback","","html-keyboard-response","333","339159","0.0-1.0-456.0-0.0","0","0","57427","","null","","","null","50","","","","","","","","","","","","","","","",""
"","time_out","","html-keyboard-response","334","341162","0.0-1.0-458.0-0.0","0","0","57427","","null","","","null","50","","","","","","","","","","","","","","","",""
"","ITI","","html-keyboard-response","335","342166","0.0-1.0-459.0","0","0","57427","","null","","","null","50","","","","","","","","","","","","","","","NaN",""
"","S1","","html-keyboard-response","336","342419","0.0-1.0-461.0","0","0","57427","","null","","","null","51","","","","","","","","","","","","","","","",""
"","ISI","","html-keyboard-response","337","343423","0.0-1.0-462.0","0","0","57427","","null","","","null","51","NaN","","","","","","","","","","","","","","",""
"","S2","","html-keyboard-response","338","343676","0.0-1.0-463.0","0","0","57427","","null","","","null","51","","NaN","","","","","","","","","","","","","",""
"","response","","html-keyboard-response","339","343915","0.0-1.0-464.0-0.0","0","0","57427","","237","","","75","51","","","2","51","training","adjacent","FE","6","5","P.jpg","Q.jpg","1","0","0","",""
"","feedback","","html-keyboard-response","340","344917","0.0-1.0-465.0-0.0","0","0","57427","","null","","","null","51","","","","","","","","","","","","","","","",""
"","time_out","","html-keyboard-response","341","346921","0.0-1.0-467.0-0.0","0","0","57427","","null","","","null","51","","","","","","","","","","","","","","","",""
"","ITI","","html-keyboard-response","342","347923","0.0-1.0-468.0","0","0","57427","","null","","","null","51","","","","","","","","","","","","","","","NaN",""
"","S1","","html-keyboard-response","343","348176","0.0-1.0-470.0","0","0","57427","","null","","","null","52","","","","","","","","","","","","","","","",""
"","ISI","","html-keyboard-response","344","349178","0.0-1.0-471.0","0","0","57427","","null","","","null","52","NaN","","","","","","","","","","","","","","",""
"","S2","","html-keyboard-response","345","349432","0.0-1.0-472.0","0","0","57427","","null","","","null","52","","NaN","","","","","","","","","","","","","",""
"","response","","html-keyboard-response","346","349707","0.0-1.0-473.0-0.0","0","0","57427","","273","","","68","52","","","2","52","training","adjacent","DE","4","5","M.jpg","Q.jpg","0","1","0","",""
"","feedback","","html-keyboard-response","347","350710","0.0-1.0-474.0-0.0","0","0","57427","","null","","","null","52","","","","","","","","","","","","","","","",""
"","time_out","","html-keyboard-response","348","352714","0.0-1.0-476.0-0.0","0","0","57427","","null","","","null","52","","","","","","","","","","","","","","","",""
"","ITI","","html-keyboard-response","349","353717","0.0-1.0-477.0","0","0","57427","","null","","","null","52","","","","","","","","","","","","","","","NaN",""
"","S1","","html-keyboard-response","350","353970","0.0-1.0-479.0","0","0","57427","","null","","","null","53","","","","","","","","","","","","","","","",""
"","ISI","","html-keyboard-response","351","354973","0.0-1.0-480.0","0","0","57427","","null","","","null","53","NaN","","","","","","","","","","","","","","",""
"","S2","","html-keyboard-response","352","355227","0.0-1.0-481.0","0","0","57427","","null","","","null","53","","NaN","","","","","","","","","","","","","",""
"","response","","html-keyboard-response","353","355247","0.0-1.0-482.0-0.0","0","0","57427","","18","","","75","53","","","2","53","training","adjacent","EF","5","6","Q.jpg","P.jpg","1","1","1","",""
"","feedback","","html-keyboard-response","354","356250","0.0-1.0-483.0-0.0","0","0","57427","","null","","","null","53","","","","","","","","","","","","","","","",""
"","ITI","","html-keyboard-response","355","357254","0.0-1.0-486.0","0","0","57427","","null","","","null","53","","","","","","","","","","","","","","","NaN",""
"","S1","","html-keyboard-response","356","357507","0.0-1.0-488.0","0","0","57427","","null","","","null","54","","","","","","","","","","","","","","","",""
"","ISI","","html-keyboard-response","357","358510","0.0-1.0-489.0","0","0","57427","","null","","","null","54","NaN","","","","","","","","","","","","","","",""
"","S2","","html-keyboard-response","358","358763","0.0-1.0-490.0","0","0","57427","","null","","","null","54","","NaN","","","","","","","","","","","","","",""
"","response","","html-keyboard-response","359","359940","0.0-1.0-491.0-0.0","0","0","57427","","1175","","","68","54","","","2","54","training","adjacent","GF","7","6","R.jpg","P.jpg","0","0","1","",""
"","feedback","","html-keyboard-response","360","360943","0.0-1.0-492.0-0.0","0","0","57427","","null","","","null","54","","","","","","","","","","","","","","","",""
"","ITI","","html-keyboard-response","361","361946","0.0-1.0-495.0","0","0","57427","","null","","","null","54","","","","","","","","","","","","","","","NaN",""
"","S1","","html-keyboard-response","362","362200","0.0-1.0-497.0","0","0","57427","","null","","","null","55","","","","","","","","","","","","","","","",""
"","ISI","","html-keyboard-response","363","363202","0.0-1.0-498.0","0","0","57427","","null","","","null","55","NaN","","","","","","","","","","","","","","",""
"","S2","","html-keyboard-response","364","363455","0.0-1.0-499.0","0","0","57427","","null","","","null","55","","NaN","","","","","","","","","","","","","",""
"","response","","html-keyboard-response","365","364323","0.0-1.0-500.0-0.0","0","0","57427","","866","","","68","55","","","2","55","training","adjacent","ED","5","4","Q.jpg","M.jpg","0","0","1","",""
"","feedback","","html-keyboard-response","366","365326","0.0-1.0-501.0-0.0","0","0","57427","","null","","","null","55","","","","","","","","","","","","","","","",""
"","ITI","","html-keyboard-response","367","366330","0.0-1.0-504.0","0","0","57427","","null","","","null","55","","","","","","","","","","","","","","","NaN",""
"","S1","","html-keyboard-response","368","366583","0.0-1.0-506.0","0","0","57427","","null","","","null","56","","","","","","","","","","","","","","","",""
"","ISI","","html-keyboard-response","369","367586","0.0-1.0-507.0","0","0","57427","","null","","","null","56","NaN","","","","","","","","","","","","","","",""
"","S2","","html-keyboard-response","370","367839","0.0-1.0-508.0","0","0","57427","","null","","","null","56","","NaN","","","","","","","","","","","","","",""
"","response","","html-keyboard-response","371","368702","0.0-1.0-509.0-0.0","0","0","57427","","861","","","75","56","","","2","56","training","adjacent","BA","2","1","O.jpg","N.jpg","1","0","0","",""
"","feedback","","html-keyboard-response","372","369705","0.0-1.0-510.0-0.0","0","0","57427","","null","","","null","56","","","","","","","","","","","","","","","",""
"","time_out","","html-keyboard-response","373","371708","0.0-1.0-512.0-0.0","0","0","57427","","null","","","null","56","","","","","","","","","","","","","","","",""
"","ITI","","html-keyboard-response","374","372711","0.0-1.0-513.0","0","0","57427","","null","","","null","56","","","","","","","","","","","","","","","NaN",""
"","S1","","html-keyboard-response","375","372969","0.0-1.0-515.0","0","0","57427","","null","","","null","57","","","","","","","","","","","","","","","",""
"","ISI","","html-keyboard-response","376","373971","0.0-1.0-516.0","0","0","57427","","null","","","null","57","NaN","","","","","","","","","","","","","","",""
"","S2","","html-keyboard-response","377","374224","0.0-1.0-517.0","0","0","57427","","null","","","null","57","","NaN","","","","","","","","","","","","","",""
"","response","","html-keyboard-response","378","374551","0.0-1.0-518.0-0.0","0","0","57427","","325","","","68","57","","","2","57","training","adjacent","CB","3","2","L.jpg","O.jpg","0","0","1","",""
"","feedback","","html-keyboard-response","379","375555","0.0-1.0-519.0-0.0","0","0","57427","","null","","","null","57","","","","","","","","","","","","","","","",""
"","ITI","","html-keyboard-response","380","376558","0.0-1.0-522.0","0","0","57427","","null","","","null","57","","","","","","","","","","","","","","","NaN",""
"","S1","","html-keyboard-response","381","376811","0.0-1.0-524.0","0","0","57427","","null","","","null","58","","","","","","","","","","","","","","","",""
"","ISI","","html-keyboard-response","382","377813","0.0-1.0-525.0","0","0","57427","","null","","","null","58","NaN","","","","","","","","","","","","","","",""
"","S2","","html-keyboard-response","383","378065","0.0-1.0-526.0","0","0","57427","","null","","","null","58","","NaN","","","","","","","","","","","","","",""
"","response","","html-keyboard-response","384","379304","0.0-1.0-527.0-0.0","0","0","57427","","1236","","","75","58","","","2","58","training","adjacent","FG","6","7","P.jpg","R.jpg","1","1","1","",""
"","feedback","","html-keyboard-response","385","380306","0.0-1.0-528.0-0.0","0","0","57427","","null","","","null","58","","","","","","","","","","","","","","","",""
"","ITI","","html-keyboard-response","386","381311","0.0-1.0-531.0","0","0","57427","","null","","","null","58","","","","","","","","","","","","","","","NaN",""
"","S1","","html-keyboard-response","387","381564","0.0-1.0-533.0","0","0","57427","","null","","","null","59","","","","","","","","","","","","","","","",""
"","ISI","","html-keyboard-response","388","382567","0.0-1.0-534.0","0","0","57427","","null","","","null","59","NaN","","","","","","","","","","","","","","",""
"","S2","","html-keyboard-response","389","382819","0.0-1.0-535.0","0","0","57427","","null","","","null","59","","NaN","","","","","","","","","","","","","",""
"","response","","html-keyboard-response","390","383694","0.0-1.0-536.0-0.0","0","0","57427","","872","","","68","59","","","2","59","training","adjacent","BA","2","1","O.jpg","N.jpg","0","0","1","",""
"","feedback","","html-keyboard-response","391","384697","0.0-1.0-537.0-0.0","0","0","57427","","null","","","null","59","","","","","","","","","","","","","","","",""
"","ITI","","html-keyboard-response","392","385707","0.0-1.0-540.0","0","0","57427","","null","","","null","59","","","","","","","","","","","","","","","NaN",""
"","S1","","html-keyboard-response","393","385960","0.0-1.0-542.0","0","0","57427","","null","","","null","60","","","","","","","","","","","","","","","",""
"","ISI","","html-keyboard-response","394","386963","0.0-1.0-543.0","0","0","57427","","null","","","null","60","NaN","","","","","","","","","","","","","","",""
"","S2","","html-keyboard-response","395","387216","0.0-1.0-544.0","0","0","57427","","null","","","null","60","","NaN","","","","","","","","","","","","","",""
"","response","","html-keyboard-response","396","387493","0.0-1.0-545.0-0.0","0","0","57427","","275","","","68","60","","","2","60","training","adjacent","CD","3","4","L.jpg","M.jpg","0","1","0","",""
"","feedback","","html-keyboard-response","397","388496","0.0-1.0-546.0-0.0","0","0","57427","","null","","","null","60","","","","","","","","","","","","","","","",""
"","time_out","","html-keyboard-response","398","390499","0.0-1.0-548.0-0.0","0","0","57427","","null","","","null","60","","","","","","","","","","","","","","","",""
"","ITI","","html-keyboard-response","399","391503","0.0-1.0-549.0","0","0","57427","","null","","","null","60","","","","","","","","","","","","","","","NaN",""
"","S1","","html-keyboard-response","400","391756","0.0-1.0-551.0","0","0","57427","","null","","","null","61","","","","","","","","","","","","","","","",""
"","ISI","","html-keyboard-response","401","392759","0.0-1.0-552.0","0","0","57427","","null","","","null","61","NaN","","","","","","","","","","","","","","",""
"","S2","","html-keyboard-response","402","393012","0.0-1.0-553.0","0","0","57427","","null","","","null","61","","NaN","","","","","","","","","","","","","",""
"","response","","html-keyboard-response","403","394085","0.0-1.0-554.0-0.0","0","0","57427","","1070","","","68","61","","","2","61","training","adjacent","BA","2","1","O.jpg","N.jpg","0","0","1","",""
"","feedback","","html-keyboard-response","404","395088","0.0-1.0-555.0-0.0","0","0","57427","","null","","","null","61","","","","","","","","","","","","","","","",""
"","ITI","","html-keyboard-response","405","396090","0.0-1.0-558.0","0","0","57427","","null","","","null","61","","","","","","","","","","","","","","","NaN",""
"","S1","","html-keyboard-response","406","396344","0.0-1.0-560.0","0","0","57427","","null","","","null","62","","","","","","","","","","","","","","","",""
"","ISI","","html-keyboard-response","407","397347","0.0-1.0-561.0","0","0","57427","","null","","","null","62","NaN","","","","","","","","","","","","","","",""
"","S2","","html-keyboard-response","408","397600","0.0-1.0-562.0","0","0","57427","","null","","","null","62","","NaN","","","","","","","","","","","","","",""
"","response","","html-keyboard-response","409","397955","0.0-1.0-563.0-0.0","0","0","57427","","353","","","68","62","","","2","62","training","adjacent","ED","5","4","Q.jpg","M.jpg","0","0","1","",""
"","feedback","","html-keyboard-response","410","398958","0.0-1.0-564.0-0.0","0","0","57427","","null","","","null","62","","","","","","","","","","","","","","","",""
"","ITI","","html-keyboard-response","411","399962","0.0-1.0-567.0","0","0","57427","","null","","","null","62","","","","","","","","","","","","","","","NaN",""
"","S1","","html-keyboard-response","412","400216","0.0-1.0-569.0","0","0","57427","","null","","","null","63","","","","","","","","","","","","","","","",""
"","ISI","","html-keyboard-response","413","401219","0.0-1.0-570.0","0","0","57427","","null","","","null","63","NaN","","","","","","","","","","","","","","",""
"","S2","","html-keyboard-response","414","401472","0.0-1.0-571.0","0","0","57427","","null","","","null","63","","NaN","","","","","","","","","","","","","",""
"","response","","html-keyboard-response","415","401863","0.0-1.0-572.0-0.0","0","0","57427","","388","","","75","63","","","2","63","training","adjacent","AB","1","2","N.jpg","O.jpg","1","1","1","",""
"","feedback","","html-keyboard-response","416","402866","0.0-1.0-573.0-0.0","0","0","57427","","null","","","null","63","","","","","","","","","","","","","","","",""
"","ITI","","html-keyboard-response","417","403869","0.0-1.0-576.0","0","0","57427","","null","","","null","63","","","","","","","","","","","","","","","NaN",""
"","S1","","html-keyboard-response","418","404121","0.0-1.0-578.0","0","0","57427","","null","","","null","64","","","","","","","","","","","","","","","",""
"","ISI","","html-keyboard-response","419","405124","0.0-1.0-579.0","0","0","57427","","null","","","null","64","NaN","","","","","","","","","","","","","","",""
"","S2","","html-keyboard-response","420","405377","0.0-1.0-580.0","0","0","57427","","null","","","null","64","","NaN","","","","","","","","","","","","","",""
"","response","","html-keyboard-response","421","405794","0.0-1.0-581.0-0.0","0","0","57427","","416","","","68","64","","","2","64","training","adjacent","FE","6","5","P.jpg","Q.jpg","0","0","1","",""
"","feedback","","html-keyboard-response","422","406798","0.0-1.0-582.0-0.0","0","0","57427","","null","","","null","64","","","","","","","","","","","","","","","",""
"","ITI","","html-keyboard-response","423","407801","0.0-1.0-585.0","0","0","57427","","null","","","null","64","","","","","","","","","","","","","","","NaN",""
"","S1","","html-keyboard-response","424","408054","0.0-1.0-587.0","0","0","57427","","null","","","null","65","","","","","","","","","","","","","","","",""
"","ISI","","html-keyboard-response","425","409057","0.0-1.0-588.0","0","0","57427","","null","","","null","65","NaN","","","","","","","","","","","","","","",""
"","S2","","html-keyboard-response","426","409310","0.0-1.0-589.0","0","0","57427","","null","","","null","65","","NaN","","","","","","","","","","","","","",""
"","response","","html-keyboard-response","427","410194","0.0-1.0-590.0-0.0","0","0","57427","","882","","","68","65","","","2","65","training","adjacent","CB","3","2","L.jpg","O.jpg","0","0","1","",""
"","feedback","","html-keyboard-response","428","411197","0.0-1.0-591.0-0.0","0","0","57427","","null","","","null","65","","","","","","","","","","","","","","","",""
"","ITI","","html-keyboard-response","429","412200","0.0-1.0-594.0","0","0","57427","","null","","","null","65","","","","","","","","","","","","","","","NaN",""
"","S1","","html-keyboard-response","430","412454","0.0-1.0-596.0","0","0","57427","","null","","","null","66","","","","","","","","","","","","","","","",""
"","ISI","","html-keyboard-response","431","413456","0.0-1.0-597.0","0","0","57427","","null","","","null","66","NaN","","","","","","","","","","","","","","",""
"","S2","","html-keyboard-response","432","413707","0.0-1.0-598.0","0","0","57427","","null","","","null","66","","NaN","","","","","","","","","","","","","",""
"","response","","html-keyboard-response","433","414120","0.0-1.0-599.0-0.0","0","0","57427","","411","","","68","66","","","2","66","training","adjacent","DE","4","5","M.jpg","Q.jpg","0","1","0","",""
"","feedback","","html-keyboard-response","434","415122","0.0-1.0-600.0-0.0","0","0","57427","","null","","","null","66","","","","","","","","","","","","","","","",""
"","time_out","","html-keyboard-response","435","417125","0.0-1.0-602.0-0.0","0","0","57427","","null","","","null","66","","","","","","","","","","","","","","","",""
"","ITI","","html-keyboard-response","436","418127","0.0-1.0-603.0","0","0","57427","","null","","","null","66","","","","","","","","","","","","","","","NaN",""
"","S1","","html-keyboard-response","437","418380","0.0-1.0-605.0","0","0","57427","","null","","","null","67","","","","","","","","","","","","","","","",""
"","ISI","","html-keyboard-response","438","419383","0.0-1.0-606.0","0","0","57427","","null","","","null","67","NaN","","","","","","","","","","","","","","",""
"","S2","","html-keyboard-response","439","419636","0.0-1.0-607.0","0","0","57427","","null","","","null","67","","NaN","","","","","","","","","","","","","",""
"","response","","html-keyboard-response","440","419929","0.0-1.0-608.0-0.0","0","0","57427","","292","","","68","67","","","2","67","training","adjacent","BC","2","3","O.jpg","L.jpg","0","1","0","",""
"","feedback","","html-keyboard-response","441","420931","0.0-1.0-609.0-0.0","0","0","57427","","null","","","null","67","","","","","","","","","","","","","","","",""
"","time_out","","html-keyboard-response","442","422934","0.0-1.0-611.0-0.0","0","0","57427","","null","","","null","67","","","","","","","","","","","","","","","",""
"","ITI","","html-keyboard-response","443","423936","0.0-1.0-612.0","0","0","57427","","null","","","null","67","","","","","","","","","","","","","","","NaN",""
"","S1","","html-keyboard-response","444","424190","0.0-1.0-614.0","0","0","57427","","null","","","null","68","","","","","","","","","","","","","","","",""
"","ISI","","html-keyboard-response","445","425194","0.0-1.0-615.0","0","0","57427","","null","","","null","68","NaN","","","","","","","","","","","","","","",""
"","S2","","html-keyboard-response","446","425448","0.0-1.0-616.0","0","0","57427","","null","","","null","68","","NaN","","","","","","","","","","","","","",""
"","response","","html-keyboard-response","447","425931","0.0-1.0-617.0-0.0","0","0","57427","","481","","","68","68","","","2","68","training","adjacent","GF","7","6","R.jpg","P.jpg","0","0","1","",""
"","feedback","","html-keyboard-response","448","426934","0.0-1.0-618.0-0.0","0","0","57427","","null","","","null","68","","","","","","","","","","","","","","","",""
"","ITI","","html-keyboard-response","449","427937","0.0-1.0-621.0","0","0","57427","","null","","","null","68","","","","","","","","","","","","","","","NaN",""
"","S1","","html-keyboard-response","450","428191","0.0-1.0-623.0","0","0","57427","","null","","","null","69","","","","","","","","","","","","","","","",""
"","ISI","","html-keyboard-response","451","429195","0.0-1.0-624.0","0","0","57427","","null","","","null","69","NaN","","","","","","","","","","","","","","",""
"","S2","","html-keyboard-response","452","429448","0.0-1.0-625.0","0","0","57427","","null","","","null","69","","NaN","","","","","","","","","","","","","",""
"","response","","html-keyboard-response","453","430549","0.0-1.0-626.0-0.0","0","0","57427","","1099","","","68","69","","","2","69","training","adjacent","ED","5","4","Q.jpg","M.jpg","0","0","1","",""
"","feedback","","html-keyboard-response","454","431551","0.0-1.0-627.0-0.0","0","0","57427","","null","","","null","69","","","","","","","","","","","","","","","",""
"","ITI","","html-keyboard-response","455","432554","0.0-1.0-630.0","0","0","57427","","null","","","null","69","","","","","","","","","","","","","","","NaN",""
"","S1","","html-keyboard-response","456","432806","0.0-1.0-632.0","0","0","57427","","null","","","null","70","","","","","","","","","","","","","","","",""
"","ISI","","html-keyboard-response","457","433809","0.0-1.0-633.0","0","0","57427","","null","","","null","70","NaN","","","","","","","","","","","","","","",""
"","S2","","html-keyboard-response","458","434061","0.0-1.0-634.0","0","0","57427","","null","","","null","70","","NaN","","","","","","","","","","","","","",""
"","response","","html-keyboard-response","459","434650","0.0-1.0-635.0-0.0","0","0","57427","","587","","","68","70","","","2","70","training","adjacent","FE","6","5","P.jpg","Q.jpg","0","0","1","",""
"","feedback","","html-keyboard-response","460","435652","0.0-1.0-636.0-0.0","0","0","57427","","null","","","null","70","","","","","","","","","","","","","","","",""
"","ITI","","html-keyboard-response","461","436655","0.0-1.0-639.0","0","0","57427","","null","","","null","70","","","","","","","","","","","","","","","NaN",""
"","S1","","html-keyboard-response","462","436907","0.0-1.0-641.0","0","0","57427","","null","","","null","71","","","","","","","","","","","","","","","",""
"","ISI","","html-keyboard-response","463","437910","0.0-1.0-642.0","0","0","57427","","null","","","null","71","NaN","","","","","","","","","","","","","","",""
"","S2","","html-keyboard-response","464","438162","0.0-1.0-643.0","0","0","57427","","null","","","null","71","","NaN","","","","","","","","","","","","","",""
"","response","","html-keyboard-response","465","438831","0.0-1.0-644.0-0.0","0","0","57427","","668","","","75","71","","","2","71","training","adjacent","AB","1","2","N.jpg","O.jpg","1","1","1","",""
"","feedback","","html-keyboard-response","466","439834","0.0-1.0-645.0-0.0","0","0","57427","","null","","","null","71","","","","","","","","","","","","","","","",""
"","ITI","","html-keyboard-response","467","440838","0.0-1.0-648.0","0","0","57427","","null","","","null","71","","","","","","","","","","","","","","","NaN",""
"","S1","","html-keyboard-response","468","441092","0.0-1.0-650.0","0","0","57427","","null","","","null","72","","","","","","","","","","","","","","","",""
"","ISI","","html-keyboard-response","469","442095","0.0-1.0-651.0","0","0","57427","","null","","","null","72","NaN","","","","","","","","","","","","","","",""
"","S2","","html-keyboard-response","470","442348","0.0-1.0-652.0","0","0","57427","","null","","","null","72","","NaN","","","","","","","","","","","","","",""
"","response","","html-keyboard-response","471","442721","0.0-1.0-653.0-0.0","0","0","57427","","371","","","75","72","","","2","72","training","adjacent","BC","2","3","O.jpg","L.jpg","1","1","1","",""
"","feedback","","html-keyboard-response","472","443725","0.0-1.0-654.0-0.0","0","0","57427","","null","","","null","72","","","","","","","","","","","","","","","",""
"","ITI","","html-keyboard-response","473","444728","0.0-1.0-657.0","0","0","57427","","null","","","null","72","","","","","","","","","","","","","","","NaN",""
"","S1","","html-keyboard-response","474","444982","0.0-1.0-659.0","0","0","57427","","null","","","null","73","","","","","","","","","","","","","","","",""
"","ISI","","html-keyboard-response","475","445986","0.0-1.0-660.0","0","0","57427","","null","","","null","73","NaN","","","","","","","","","","","","","","",""
"","S2","","html-keyboard-response","476","446239","0.0-1.0-661.0","0","0","57427","","null","","","null","73","","NaN","","","","","","","","","","","","","",""
"","response","","html-keyboard-response","477","446558","0.0-1.0-662.0-0.0","0","0","57427","","318","","","75","73","","","2","73","training","adjacent","CD","3","4","L.jpg","M.jpg","1","1","1","",""
"","feedback","","html-keyboard-response","478","447562","0.0-1.0-663.0-0.0","0","0","57427","","null","","","null","73","","","","","","","","","","","","","","","",""
"","ITI","","html-keyboard-response","479","448565","0.0-1.0-666.0","0","0","57427","","null","","","null","73","","","","","","","","","","","","","","","NaN",""
"","S1","","html-keyboard-response","480","448818","0.0-1.0-668.0","0","0","57427","","null","","","null","74","","","","","","","","","","","","","","","",""
"","ISI","","html-keyboard-response","481","449821","0.0-1.0-669.0","0","0","57427","","null","","","null","74","NaN","","","","","","","","","","","","","","",""
"","S2","","html-keyboard-response","482","450074","0.0-1.0-670.0","0","0","57427","","null","","","null","74","","NaN","","","","","","","","","","","","","",""
"","response","","html-keyboard-response","483","450981","0.0-1.0-671.0-0.0","0","0","57427","","904","","","75","74","","","2","74","training","adjacent","FG","6","7","P.jpg","R.jpg","1","1","1","",""
"","feedback","","html-keyboard-response","484","451985","0.0-1.0-672.0-0.0","0","0","57427","","null","","","null","74","","","","","","","","","","","","","","","",""
"","ITI","","html-keyboard-response","485","452988","0.0-1.0-675.0","0","0","57427","","null","","","null","74","","","","","","","","","","","","","","","NaN",""
"","S1","","html-keyboard-response","486","453241","0.0-1.0-677.0","0","0","57427","","null","","","null","75","","","","","","","","","","","","","","","",""
"","ISI","","html-keyboard-response","487","454245","0.0-1.0-678.0","0","0","57427","","null","","","null","75","NaN","","","","","","","","","","","","","","",""
"","S2","","html-keyboard-response","488","454499","0.0-1.0-679.0","0","0","57427","","null","","","null","75","","NaN","","","","","","","","","","","","","",""
"","response","","html-keyboard-response","489","455398","0.0-1.0-680.0-0.0","0","0","57427","","897","","","75","75","","","2","75","training","adjacent","DE","4","5","M.jpg","Q.jpg","1","1","1","",""
"","feedback","","html-keyboard-response","490","456402","0.0-1.0-681.0-0.0","0","0","57427","","null","","","null","75","","","","","","","","","","","","","","","",""
"","ITI","","html-keyboard-response","491","457405","0.0-1.0-684.0","0","0","57427","","null","","","null","75","","","","","","","","","","","","","","","NaN",""
"","S1","","html-keyboard-response","492","457659","0.0-1.0-686.0","0","0","57427","","null","","","null","76","","","","","","","","","","","","","","","",""
"","ISI","","html-keyboard-response","493","458663","0.0-1.0-687.0","0","0","57427","","null","","","null","76","NaN","","","","","","","","","","","","","","",""
"","S2","","html-keyboard-response","494","458916","0.0-1.0-688.0","0","0","57427","","null","","","null","76","","NaN","","","","","","","","","","","","","",""
"","response","","html-keyboard-response","495","459394","0.0-1.0-689.0-0.0","0","0","57427","","475","","","75","76","","","2","76","training","adjacent","EF","5","6","Q.jpg","P.jpg","1","1","1","",""
"","feedback","","html-keyboard-response","496","460398","0.0-1.0-690.0-0.0","0","0","57427","","null","","","null","76","","","","","","","","","","","","","","","",""
"","ITI","","html-keyboard-response","497","461401","0.0-1.0-693.0","0","0","57427","","null","","","null","76","","","","","","","","","","","","","","","NaN",""
"","S1","","html-keyboard-response","498","461654","0.0-1.0-695.0","0","0","57427","","null","","","null","77","","","","","","","","","","","","","","","",""
"","ISI","","html-keyboard-response","499","462658","0.0-1.0-696.0","0","0","57427","","null","","","null","77","NaN","","","","","","","","","","","","","","",""
"","S2","","html-keyboard-response","500","462911","0.0-1.0-697.0","0","0","57427","","null","","","null","77","","NaN","","","","","","","","","","","","","",""
"","response","","html-keyboard-response","501","463207","0.0-1.0-698.0-0.0","0","0","57427","","294","","","68","77","","","2","77","training","adjacent","EF","5","6","Q.jpg","P.jpg","0","1","0","",""
"","feedback","","html-keyboard-response","502","464210","0.0-1.0-699.0-0.0","0","0","57427","","null","","","null","77","","","","","","","","","","","","","","","",""
"","time_out","","html-keyboard-response","503","466212","0.0-1.0-701.0-0.0","0","0","57427","","null","","","null","77","","","","","","","","","","","","","","","",""
"","ITI","","html-keyboard-response","504","467214","0.0-1.0-702.0","0","0","57427","","null","","","null","77","","","","","","","","","","","","","","","NaN",""
"","S1","","html-keyboard-response","505","467467","0.0-1.0-704.0","0","0","57427","","null","","","null","78","","","","","","","","","","","","","","","",""
"","ISI","","html-keyboard-response","506","468471","0.0-1.0-705.0","0","0","57427","","null","","","null","78","NaN","","","","","","","","","","","","","","",""
"","S2","","html-keyboard-response","507","468724","0.0-1.0-706.0","0","0","57427","","null","","","null","78","","NaN","","","","","","","","","","","","","",""
"","response","","html-keyboard-response","508","469171","0.0-1.0-707.0-0.0","0","0","57427","","444","","","68","78","","","2","78","training","adjacent","CD","3","4","L.jpg","M.jpg","0","1","0","",""
"","feedback","","html-keyboard-response","509","470174","0.0-1.0-708.0-0.0","0","0","57427","","null","","","null","78","","","","","","","","","","","","","","","",""
"","time_out","","html-keyboard-response","510","472177","0.0-1.0-710.0-0.0","0","0","57427","","null","","","null","78","","","","","","","","","","","","","","","",""
"","ITI","","html-keyboard-response","511","473181","0.0-1.0-711.0","0","0","57427","","null","","","null","78","","","","","","","","","","","","","","","NaN",""
"","S1","","html-keyboard-response","512","473435","0.0-1.0-713.0","0","0","57427","","null","","","null","79","","","","","","","","","","","","","","","",""
"","ISI","","html-keyboard-response","513","474438","0.0-1.0-714.0","0","0","57427","","null","","","null","79","NaN","","","","","","","","","","","","","","",""
"","S2","","html-keyboard-response","514","474692","0.0-1.0-715.0","0","0","57427","","null","","","null","79","","NaN","","","","","","","","","","","","","",""
"","response","","html-keyboard-response","515","474834","0.0-1.0-716.0-0.0","0","0","57427","","141","","","75","79","","","2","79","training","adjacent","FG","6","7","P.jpg","R.jpg","1","1","1","",""
"","feedback","","html-keyboard-response","516","475849","0.0-1.0-717.0-0.0","0","0","57427","","null","","","null","79","","","","","","","","","","","","","","","",""
"","ITI","","html-keyboard-response","517","476855","0.0-1.0-720.0","0","0","57427","","null","","","null","79","","","","","","","","","","","","","","","NaN",""
"","S1","","html-keyboard-response","518","477108","0.0-1.0-722.0","0","0","57427","","null","","","null","80","","","","","","","","","","","","","","","",""
"","ISI","","html-keyboard-response","519","478109","0.0-1.0-723.0","0","0","57427","","null","","","null","80","NaN","","","","","","","","","","","","","","",""
"","S2","","html-keyboard-response","520","478361","0.0-1.0-724.0","0","0","57427","","null","","","null","80","","NaN","","","","","","","","","","","","","",""
"","response","","html-keyboard-response","521","478635","0.0-1.0-725.0-0.0","0","0","57427","","273","","","75","80","","","2","80","training","adjacent","BC","2","3","O.jpg","L.jpg","1","1","1","",""
"","feedback","","html-keyboard-response","522","479638","0.0-1.0-726.0-0.0","0","0","57427","","null","","","null","80","","","","","","","","","","","","","","","",""
"","ITI","","html-keyboard-response","523","480642","0.0-1.0-729.0","0","0","57427","","null","","","null","80","","","","","","","","","","","","","","","NaN",""
"","S1","","html-keyboard-response","524","480895","0.0-1.0-731.0","0","0","57427","","null","","","null","81","","","","","","","","","","","","","","","",""
"","ISI","","html-keyboard-response","525","481898","0.0-1.0-732.0","0","0","57427","","null","","","null","81","NaN","","","","","","","","","","","","","","",""
"","S2","","html-keyboard-response","526","482152","0.0-1.0-733.0","0","0","57427","","null","","","null","81","","NaN","","","","","","","","","","","","","",""
"","response","","html-keyboard-response","527","482299","0.0-1.0-734.0-0.0","0","0","57427","","144","","","75","81","","","2","81","training","adjacent","CD","3","4","L.jpg","M.jpg","1","1","1","",""
"","feedback","","html-keyboard-response","528","483303","0.0-1.0-735.0-0.0","0","0","57427","","null","","","null","81","","","","","","","","","","","","","","","",""
"","ITI","","html-keyboard-response","529","484305","0.0-1.0-738.0","0","0","57427","","null","","","null","81","","","","","","","","","","","","","","","NaN",""
"","S1","","html-keyboard-response","530","484558","0.0-1.0-740.0","0","0","57427","","null","","","null","82","","","","","","","","","","","","","","","",""
"","ISI","","html-keyboard-response","531","485562","0.0-1.0-741.0","0","0","57427","","null","","","null","82","NaN","","","","","","","","","","","","","","",""
"","S2","","html-keyboard-response","532","485814","0.0-1.0-742.0","0","0","57427","","null","","","null","82","","NaN","","","","","","","","","","","","","",""
"","response","","html-keyboard-response","533","486081","0.0-1.0-743.0-0.0","0","0","57427","","264","","","75","82","","","2","82","training","adjacent","GF","7","6","R.jpg","P.jpg","1","0","0","",""
"","feedback","","html-keyboard-response","534","487084","0.0-1.0-744.0-0.0","0","0","57427","","null","","","null","82","","","","","","","","","","","","","","","",""
"","time_out","","html-keyboard-response","535","489087","0.0-1.0-746.0-0.0","0","0","57427","","null","","","null","82","","","","","","","","","","","","","","","",""
"","ITI","","html-keyboard-response","536","490090","0.0-1.0-747.0","0","0","57427","","null","","","null","82","","","","","","","","","","","","","","","NaN",""
"","S1","","html-keyboard-response","537","490344","0.0-1.0-749.0","0","0","57427","","null","","","null","83","","","","","","","","","","","","","","","",""
"","ISI","","html-keyboard-response","538","491347","0.0-1.0-750.0","0","0","57427","","null","","","null","83","NaN","","","","","","","","","","","","","","",""
"","S2","","html-keyboard-response","539","491600","0.0-1.0-751.0","0","0","57427","","null","","","null","83","","NaN","","","","","","","","","","","","","",""
"","response","","html-keyboard-response","540","491922","0.0-1.0-752.0-0.0","0","0","57427","","320","","","68","83","","","2","83","training","adjacent","DC","4","3","M.jpg","L.jpg","0","0","1","",""
"","feedback","","html-keyboard-response","541","492926","0.0-1.0-753.0-0.0","0","0","57427","","null","","","null","83","","","","","","","","","","","","","","","",""
"","ITI","","html-keyboard-response","542","493929","0.0-1.0-756.0","0","0","57427","","null","","","null","83","","","","","","","","","","","","","","","NaN",""
"","S1","","html-keyboard-response","543","494182","0.0-1.0-758.0","0","0","57427","","null","","","null","84","","","","","","","","","","","","","","","",""
"","ISI","","html-keyboard-response","544","495186","0.0-1.0-759.0","0","0","57427","","null","","","null","84","NaN","","","","","","","","","","","","","","",""
"","S2","","html-keyboard-response","545","495439","0.0-1.0-760.0","0","0","57427","","null","","","null","84","","NaN","","","","","","","","","","","","","",""
"","response","","html-keyboard-response","546","495788","0.0-1.0-761.0-0.0","0","0","57427","","347","","","75","84","","","2","84","training","adjacent","AB","1","2","N.jpg","O.jpg","1","1","1","",""
"","feedback","","html-keyboard-response","547","496792","0.0-1.0-762.0-0.0","0","0","57427","","null","","","null","84","","","","","","","","","","","","","","","",""
"","ITI","","html-keyboard-response","548","497797","0.0-1.0-765.0","0","0","57427","","null","","","null","84","","","","","","","","","","","","","","","NaN",""
"","S1","","html-keyboard-response","549","498050","0.0-1.0-767.0","0","0","57427","","null","","","null","85","","","","","","","","","","","","","","","",""
"","ISI","","html-keyboard-response","550","499053","0.0-1.0-768.0","0","0","57427","","null","","","null","85","NaN","","","","","","","","","","","","","","",""
"","S2","","html-keyboard-response","551","499306","0.0-1.0-769.0","0","0","57427","","null","","","null","85","","NaN","","","","","","","","","","","","","",""
"","response","","html-keyboard-response","552","499349","0.0-1.0-770.0-0.0","0","0","57427","","42","","","68","85","","","2","85","training","adjacent","EF","5","6","Q.jpg","P.jpg","0","1","0","",""
"","feedback","","html-keyboard-response","553","500353","0.0-1.0-771.0-0.0","0","0","57427","","null","","","null","85","","","","","","","","","","","","","","","",""
"","time_out","","html-keyboard-response","554","502356","0.0-1.0-773.0-0.0","0","0","57427","","null","","","null","85","","","","","","","","","","","","","","","",""
"","ITI","","html-keyboard-response","555","503360","0.0-1.0-774.0","0","0","57427","","null","","","null","85","","","","","","","","","","","","","","","NaN",""
"","S1","","html-keyboard-response","556","503612","0.0-1.0-776.0","0","0","57427","","null","","","null","86","","","","","","","","","","","","","","","",""
"","ISI","","html-keyboard-response","557","504616","0.0-1.0-777.0","0","0","57427","","null","","","null","86","NaN","","","","","","","","","","","","","","",""
"","S2","","html-keyboard-response","558","504869","0.0-1.0-778.0","0","0","57427","","null","","","null","86","","NaN","","","","","","","","","","","","","",""
"","response","","html-keyboard-response","559","505213","0.0-1.0-779.0-0.0","0","0","57427","","342","","","75","86","","","2","86","training","adjacent","BC","2","3","O.jpg","L.jpg","1","1","1","",""
"","feedback","","html-keyboard-response","560","506217","0.0-1.0-780.0-0.0","0","0","57427","","null","","","null","86","","","","","","","","","","","","","","","",""
"","ITI","","html-keyboard-response","561","507221","0.0-1.0-783.0","0","0","57427","","null","","","null","86","","","","","","","","","","","","","","","NaN",""
"","S1","","html-keyboard-response","562","507474","0.0-1.0-785.0","0","0","57427","","null","","","null","87","","","","","","","","","","","","","","","",""
"","ISI","","html-keyboard-response","563","508477","0.0-1.0-786.0","0","0","57427","","null","","","null","87","NaN","","","","","","","","","","","","","","",""
"","S2","","html-keyboard-response","564","508731","0.0-1.0-787.0","0","0","57427","","null","","","null","87","","NaN","","","","","","","","","","","","","",""
"","response","","html-keyboard-response","565","508800","0.0-1.0-788.0-0.0","0","0","57427","","66","","","75","87","","","2","87","training","adjacent","DE","4","5","M.jpg","Q.jpg","1","1","1","",""
"","feedback","","html-keyboard-response","566","509803","0.0-1.0-789.0-0.0","0","0","57427","","null","","","null","87","","","","","","","","","","","","","","","",""
"","ITI","","html-keyboard-response","567","510807","0.0-1.0-792.0","0","0","57427","","null","","","null","87","","","","","","","","","","","","","","","NaN",""
"","S1","","html-keyboard-response","568","511060","0.0-1.0-794.0","0","0","57427","","null","","","null","88","","","","","","","","","","","","","","","",""
"","ISI","","html-keyboard-response","569","512063","0.0-1.0-795.0","0","0","57427","","null","","","null","88","NaN","","","","","","","","","","","","","","",""
"","S2","","html-keyboard-response","570","512315","0.0-1.0-796.0","0","0","57427","","null","","","null","88","","NaN","","","","","","","","","","","","","",""
"","response","","html-keyboard-response","571","512443","0.0-1.0-797.0-0.0","0","0","57427","","126","","","75","88","","","2","88","training","adjacent","DC","4","3","M.jpg","L.jpg","1","0","0","",""
"","feedback","","html-keyboard-response","572","513447","0.0-1.0-798.0-0.0","0","0","57427","","null","","","null","88","","","","","","","","","","","","","","","",""
"","time_out","","html-keyboard-response","573","515450","0.0-1.0-800.0-0.0","0","0","57427","","null","","","null","88","","","","","","","","","","","","","","","",""
"","ITI","","html-keyboard-response","574","516453","0.0-1.0-801.0","0","0","57427","","null","","","null","88","","","","","","","","","","","","","","","NaN",""
"","S1","","html-keyboard-response","575","516708","0.0-1.0-803.0","0","0","57427","","null","","","null","89","","","","","","","","","","","","","","","",""
"","ISI","","html-keyboard-response","576","517711","0.0-1.0-804.0","0","0","57427","","null","","","null","89","NaN","","","","","","","","","","","","","","",""
"","S2","","html-keyboard-response","577","517964","0.0-1.0-805.0","0","0","57427","","null","","","null","89","","NaN","","","","","","","","","","","","","",""
"","response","","html-keyboard-response","578","518323","0.0-1.0-806.0-0.0","0","0","57427","","357","","","68","89","","","2","89","training","adjacent","DC","4","3","M.jpg","L.jpg","0","0","1","",""
"","feedback","","html-keyboard-response","579","519326","0.0-1.0-807.0-0.0","0","0","57427","","null","","","null","89","","","","","","","","","","","","","","","",""
"","ITI","","html-keyboard-response","580","520330","0.0-1.0-810.0","0","0","57427","","null","","","null","89","","","","","","","","","","","","","","","NaN",""
"","S1","","html-keyboard-response","581","520583","0.0-1.0-812.0","0","0","57427","","null","","","null","90","","","","","","","","","","","","","","","",""
"","ISI","","html-keyboard-response","582","521585","0.0-1.0-813.0","0","0","57427","","null","","","null","90","NaN","","","","","","","","","","","","","","",""
"","S2","","html-keyboard-response","583","521839","0.0-1.0-814.0","0","0","57427","","null","","","null","90","","NaN","","","","","","","","","","","","","",""
