"success","ttype","start_time","trial_type","trial_index","time_elapsed","internal_node_id","warning","missed_checkup","PID","view_history","rt","responses","repeat_instructions","key_press","index","keypress_isi","keypress_S2","block","trial_num","phase","group_type","pair_type","S1_stim","S2_stim","S1_img","S2_img","S1_chosen","S1_higher","accuracy","keypress_iti","total_bonus_tally"
"true","full_screen","d03082023hr1656","fullscreen","0","9784","0.0-0.0","0","0","76478","","","","","","","","","","","","","","","","","","","","","",""
"","instructions","","instructions","1","34556","0.0-1.0-0.0-0.0","0","0","76478","[{""page_index"":0,""viewing_time"":2665},{""page_index"":1,""viewing_time"":11163},{""page_index"":2,""viewing_time"":9493},{""page_index"":3,""viewing_time"":1447}]","24769","","","","","","","","","","","","","","","","","","","",""
"","comprehension_check","","survey-multi-choice","2","51941","0.0-1.0-0.0-1.0","0","0","76478","","17378","{""Q0"":""True"",""Q1"":""D"",""Q2"":""Once the second image appears and while the screen 'MAKE A CHOICE' is shown"",""Q3"":""Green mark"",""Q4"":""either D or K""}","0","","","","","","","","","","","","","","","","","",""
"","start_exp","","html-keyboard-response","3","53816","0.0-1.0-1.0","0","0","76478","","1871","","","32","","","","","","","","","","","","","","","","",""
"","S1","","html-keyboard-response","4","54076","0.0-1.0-2.0","0","0","76478","","null","","","null","0","","","","","","","","","","","","","","","",""
"","ISI","","html-keyboard-response","5","54236","0.0-1.0-3.0","0","0","76478","","null","","","null","0","NaN","","","","","","","","","","","","","","",""
"","S2","","html-keyboard-response","6","54492","0.0-1.0-4.0","0","0","76478","","null","","","null","0","","NaN","","","","","","","","","","","","","",""
"","response","","html-keyboard-response","7","55238","0.0-1.0-5.0-0.0","0","0","76478","","743","","","68","0","","","1","0","training","adjacent","DE","4","5","P.jpg","L.jpg","1","1","1","",""
"","feedback","","html-keyboard-response","8","56247","0.0-1.0-6.0-0.0","0","0","76478","","null","","","null","0","","","","","","","","","","","","","","","",""
"","ITI","","html-keyboard-response","9","57258","0.0-1.0-9.0","0","0","76478","","null","","","null","0","","","","","","","","","","","","","","","NaN",""
"","S1","","html-keyboard-response","10","57513","0.0-1.0-11.0","0","0","76478","","null","","","null","1","","","","","","","","","","","","","","","",""
"","ISI","","html-keyboard-response","11","57669","0.0-1.0-12.0","0","0","76478","","null","","","null","1","NaN","","","","","","","","","","","","","","",""
"","S2","","html-keyboard-response","12","57926","0.0-1.0-13.0","0","0","76478","","null","","","null","1","","NaN","","","","","","","","","","","","","",""
"","response","","html-keyboard-response","13","58699","0.0-1.0-14.0-0.0","0","0","76478","","770","","","68","1","","","1","1","training","adjacent","BA","2","1","M.jpg","O.jpg","1","0","0","",""
"","feedback","","html-keyboard-response","14","59703","0.0-1.0-15.0-0.0","0","0","76478","","null","","","null","1","","","","","","","","","","","","","","","",""
"","time_out","","html-keyboard-response","15","61708","0.0-1.0-17.0-0.0","0","0","76478","","null","","","null","1","","","","","","","","","","","","","","","",""
"","ITI","","html-keyboard-response","16","62720","0.0-1.0-18.0","0","0","76478","","null","","","null","1","","","","","","","","","","","","","","","NaN",""
"","S1","","html-keyboard-response","17","62983","0.0-1.0-20.0","0","0","76478","","null","","","null","2","","","","","","","","","","","","","","","",""
"","ISI","","html-keyboard-response","18","63135","0.0-1.0-21.0","0","0","76478","","null","","","null","2","NaN","","","","","","","","","","","","","","",""
"","S2","","html-keyboard-response","19","63394","0.0-1.0-22.0","0","0","76478","","null","","","null","2","","NaN","","","","","","","","","","","","","",""
"","response","","html-keyboard-response","20","63692","0.0-1.0-23.0-0.0","0","0","76478","","295","","","75","2","","","1","2","training","adjacent","FE","6","5","R.jpg","L.jpg","0","0","1","",""
"","feedback","","html-keyboard-response","21","64697","0.0-1.0-24.0-0.0","0","0","76478","","null","","","null","2","","","","","","","","","","","","","","","",""
"","ITI","","html-keyboard-response","22","65703","0.0-1.0-27.0","0","0","76478","","null","","","null","2","","","","","","","","","","","","","","","NaN",""
"","S1","","html-keyboard-response","23","65965","0.0-1.0-29.0","0","0","76478","","null","","","null","3","","","","","","","","","","","","","","","",""
"","ISI","","html-keyboard-response","24","66117","0.0-1.0-30.0","0","0","76478","","null","","","null","3","NaN","","","","","","","","","","","","","","",""
"","S2","","html-keyboard-response","25","66375","0.0-1.0-31.0","0","0","76478","","null","","","null","3","","NaN","","","","","","","","","","","","","",""
"","response","","html-keyboard-response","26","66779","0.0-1.0-32.0-0.0","0","0","76478","","402","","","75","3","","","1","3","training","adjacent","GF","7","6","Q.jpg","R.jpg","0","0","1","",""
"","feedback","","html-keyboard-response","27","67787","0.0-1.0-33.0-0.0","0","0","76478","","null","","","null","3","","","","","","","","","","","","","","","",""
"","ITI","","html-keyboard-response","28","68798","0.0-1.0-36.0","0","0","76478","","null","","","null","3","","","","","","","","","","","","","","","NaN",""
"","S1","","html-keyboard-response","29","69061","0.0-1.0-38.0","0","0","76478","","null","","","null","4","","","","","","","","","","","","","","","",""
"","ISI","","html-keyboard-response","30","69222","0.0-1.0-39.0","0","0","76478","","null","","","null","4","NaN","","","","","","","","","","","","","","",""
"","S2","","html-keyboard-response","31","69485","0.0-1.0-40.0","0","0","76478","","null","","","null","4","","NaN","","","","","","","","","","","","","",""
"","response","","html-keyboard-response","32","69719","0.0-1.0-41.0-0.0","0","0","76478","","231","","","68","4","","","1","4","training","adjacent","EF","5","6","L.jpg","R.jpg","1","1","1","",""
"","feedback","","html-keyboard-response","33","70726","0.0-1.0-42.0-0.0","0","0","76478","","null","","","null","4","","","","","","","","","","","","","","","",""
"","ITI","","html-keyboard-response","34","71736","0.0-1.0-45.0","0","0","76478","","null","","","null","4","","","","","","","","","","","","","","","NaN",""
"","S1","","html-keyboard-response","35","71995","0.0-1.0-47.0","0","0","76478","","null","","","null","5","","","","","","","","","","","","","","","",""
"","ISI","","html-keyboard-response","36","72149","0.0-1.0-48.0","0","0","76478","","null","","","null","5","NaN","","","","","","","","","","","","","","",""
"","S2","","html-keyboard-response","37","72412","0.0-1.0-49.0","0","0","76478","","null","","","null","5","","NaN","","","","","","","","","","","","","",""
"","response","","html-keyboard-response","38","72749","0.0-1.0-50.0-0.0","0","0","76478","","335","","","68","5","","","1","5","training","adjacent","BA","2","1","M.jpg","O.jpg","1","0","0","",""
"","feedback","","html-keyboard-response","39","73760","0.0-1.0-51.0-0.0","0","0","76478","","null","","","null","5","","","","","","","","","","","","","","","",""
"","time_out","","html-keyboard-response","40","75767","0.0-1.0-53.0-0.0","0","0","76478","","null","","","null","5","","","","","","","","","","","","","","","",""
"","ITI","","html-keyboard-response","41","76787","0.0-1.0-54.0","0","0","76478","","null","","","null","5","","","","","","","","","","","","","","","NaN",""
"","S1","","html-keyboard-response","42","77049","0.0-1.0-56.0","0","0","76478","","null","","","null","6","","","","","","","","","","","","","","","",""
"","ISI","","html-keyboard-response","43","77211","0.0-1.0-57.0","0","0","76478","","null","","","null","6","NaN","","","","","","","","","","","","","","",""
"","S2","","html-keyboard-response","44","77467","0.0-1.0-58.0","0","0","76478","","null","","","null","6","","NaN","","","","","","","","","","","","","",""
"","response","","html-keyboard-response","45","77908","0.0-1.0-59.0-0.0","0","0","76478","","439","","","68","6","","","1","6","training","adjacent","FG","6","7","R.jpg","Q.jpg","1","1","1","",""
"","feedback","","html-keyboard-response","46","78917","0.0-1.0-60.0-0.0","0","0","76478","","null","","","null","6","","","","","","","","","","","","","","","",""
"","ITI","","html-keyboard-response","47","79923","0.0-1.0-63.0","0","0","76478","","null","","","null","6","","","","","","","","","","","","","","","NaN",""
"","S1","","html-keyboard-response","48","80183","0.0-1.0-65.0","0","0","76478","","null","","","null","7","","","","","","","","","","","","","","","",""
"","ISI","","html-keyboard-response","49","80344","0.0-1.0-66.0","0","0","76478","","null","","","null","7","NaN","","","","","","","","","","","","","","",""
"","S2","","html-keyboard-response","50","80600","0.0-1.0-67.0","0","0","76478","","null","","","null","7","","NaN","","","","","","","","","","","","","",""
"","response","","html-keyboard-response","51","80904","0.0-1.0-68.0-0.0","0","0","76478","","301","","","68","7","","","1","7","training","adjacent","DC","4","3","P.jpg","N.jpg","1","0","0","",""
"","feedback","","html-keyboard-response","52","81908","0.0-1.0-69.0-0.0","0","0","76478","","null","","","null","7","","","","","","","","","","","","","","","",""
"","time_out","","html-keyboard-response","53","83919","0.0-1.0-71.0-0.0","0","0","76478","","null","","","null","7","","","","","","","","","","","","","","","",""
"","ITI","","html-keyboard-response","54","84935","0.0-1.0-72.0","0","0","76478","","null","","","null","7","","","","","","","","","","","","","","","NaN",""
"","S1","","html-keyboard-response","55","85194","0.0-1.0-74.0","0","0","76478","","null","","","null","8","","","","","","","","","","","","","","","",""
"","ISI","","html-keyboard-response","56","85347","0.0-1.0-75.0","0","0","76478","","null","","","null","8","NaN","","","","","","","","","","","","","","",""
"","S2","","html-keyboard-response","57","85604","0.0-1.0-76.0","0","0","76478","","null","","","null","8","","NaN","","","","","","","","","","","","","",""
"","response","","html-keyboard-response","58","85972","0.0-1.0-77.0-0.0","0","0","76478","","365","","","68","8","","","1","8","training","adjacent","BC","2","3","M.jpg","N.jpg","1","1","1","",""
"","feedback","","html-keyboard-response","59","86984","0.0-1.0-78.0-0.0","0","0","76478","","null","","","null","8","","","","","","","","","","","","","","","",""
"","ITI","","html-keyboard-response","60","87993","0.0-1.0-81.0","0","0","76478","","null","","","null","8","","","","","","","","","","","","","","","NaN",""
"","S1","","html-keyboard-response","61","88248","0.0-1.0-83.0","0","0","76478","","null","","","null","9","","","","","","","","","","","","","","","",""
"","ISI","","html-keyboard-response","62","88409","0.0-1.0-84.0","0","0","76478","","null","","","null","9","NaN","","","","","","","","","","","","","","",""
"","S2","","html-keyboard-response","63","88663","0.0-1.0-85.0","0","0","76478","","null","","","null","9","","NaN","","","","","","","","","","","","","",""
"","response","","html-keyboard-response","64","88853","0.0-1.0-86.0-0.0","0","0","76478","","187","","","68","9","","","1","9","training","adjacent","ED","5","4","L.jpg","P.jpg","1","0","0","",""
"","feedback","","html-keyboard-response","65","89871","0.0-1.0-87.0-0.0","0","0","76478","","null","","","null","9","","","","","","","","","","","","","","","",""
"","time_out","","html-keyboard-response","66","91881","0.0-1.0-89.0-0.0","0","0","76478","","null","","","null","9","","","","","","","","","","","","","","","",""
"","ITI","","html-keyboard-response","67","92894","0.0-1.0-90.0","0","0","76478","","null","","","null","9","","","","","","","","","","","","","","","NaN",""
"","S1","","html-keyboard-response","68","93153","0.0-1.0-92.0","0","0","76478","","null","","","null","10","","","","","","","","","","","","","","","",""
"","ISI","","html-keyboard-response","69","93309","0.0-1.0-93.0","0","0","76478","","null","","","null","10","NaN","","","","","","","","","","","","","","",""
"","S2","","html-keyboard-response","70","93579","0.0-1.0-94.0","0","0","76478","","null","","","null","10","","NaN","","","","","","","","","","","","","",""
"","response","","html-keyboard-response","71","93822","0.0-1.0-95.0-0.0","0","0","76478","","241","","","75","10","","","1","10","training","adjacent","CD","3","4","N.jpg","P.jpg","0","1","0","",""
"","feedback","","html-keyboard-response","72","94833","0.0-1.0-96.0-0.0","0","0","76478","","null","","","null","10","","","","","","","","","","","","","","","",""
"","time_out","","html-keyboard-response","73","96851","0.0-1.0-98.0-0.0","0","0","76478","","null","","","null","10","","","","","","","","","","","","","","","",""
"","ITI","","html-keyboard-response","74","97855","0.0-1.0-99.0","0","0","76478","","null","","","null","10","","","","","","","","","","","","","","","NaN",""
"","S1","","html-keyboard-response","75","98109","0.0-1.0-101.0","0","0","76478","","null","","","null","11","","","","","","","","","","","","","","","",""
"","ISI","","html-keyboard-response","76","98263","0.0-1.0-102.0","0","0","76478","","null","","","null","11","NaN","","","","","","","","","","","","","","",""
"","S2","","html-keyboard-response","77","98517","0.0-1.0-103.0","0","0","76478","","null","","","null","11","","NaN","","","","","","","","","","","","","",""
"","response","","html-keyboard-response","78","98885","0.0-1.0-104.0-0.0","0","0","76478","","366","","","75","11","","","1","11","training","adjacent","FG","6","7","R.jpg","Q.jpg","0","1","0","",""
"","feedback","","html-keyboard-response","79","99897","0.0-1.0-105.0-0.0","0","0","76478","","null","","","null","11","","","","","","","","","","","","","","","",""
"","time_out","","html-keyboard-response","80","101902","0.0-1.0-107.0-0.0","0","0","76478","","null","","","null","11","","","","","","","","","","","","","","","",""
"","ITI","","html-keyboard-response","81","102913","0.0-1.0-108.0","0","0","76478","","null","","","null","11","","","","","","","","","","","","","","","NaN",""
"","S1","","html-keyboard-response","82","103171","0.0-1.0-110.0","0","0","76478","","null","","","null","12","","","","","","","","","","","","","","","",""
"","ISI","","html-keyboard-response","83","103325","0.0-1.0-111.0","0","0","76478","","null","","","null","12","NaN","","","","","","","","","","","","","","",""
"","S2","","html-keyboard-response","84","103583","0.0-1.0-112.0","0","0","76478","","null","","","null","12","","NaN","","","","","","","","","","","","","",""
"","response","","html-keyboard-response","85","103593","0.0-1.0-113.0-0.0","0","0","76478","","7","","","68","12","","","1","12","training","adjacent","AB","1","2","O.jpg","M.jpg","1","1","1","",""
"","feedback","","html-keyboard-response","86","104598","0.0-1.0-114.0-0.0","0","0","76478","","null","","","null","12","","","","","","","","","","","","","","","",""
"","ITI","","html-keyboard-response","87","105607","0.0-1.0-117.0","0","0","76478","","null","","","null","12","","","","","","","","","","","","","","","NaN",""
"","S1","","html-keyboard-response","88","105861","0.0-1.0-119.0","0","0","76478","","null","","","null","13","","","","","","","","","","","","","","","",""
"","ISI","","html-keyboard-response","89","106026","0.0-1.0-120.0","0","0","76478","","null","","","null","13","NaN","","","","","","","","","","","","","","",""
"","S2","","html-keyboard-response","90","106288","0.0-1.0-121.0","0","0","76478","","null","","","null","13","","NaN","","","","","","","","","","","","","",""
"","response","","html-keyboard-response","91","106306","0.0-1.0-122.0-0.0","0","0","76478","","16","","","68","13","","","1","13","training","adjacent","BA","2","1","M.jpg","O.jpg","1","0","0","",""
"","feedback","","html-keyboard-response","92","107314","0.0-1.0-123.0-0.0","0","0","76478","","null","","","null","13","","","","","","","","","","","","","","","",""
"","time_out","","html-keyboard-response","93","109318","0.0-1.0-125.0-0.0","0","0","76478","","null","","","null","13","","","","","","","","","","","","","","","",""
"","ITI","","html-keyboard-response","94","110324","0.0-1.0-126.0","0","0","76478","","null","","","null","13","","","","","","","","","","","","","","","NaN",""
"","S1","","html-keyboard-response","95","110578","0.0-1.0-128.0","0","0","76478","","null","","","null","14","","","","","","","","","","","","","","","",""
"","ISI","","html-keyboard-response","96","110733","0.0-1.0-129.0","0","0","76478","","null","","","null","14","NaN","","","","","","","","","","","","","","",""
"","S2","","html-keyboard-response","97","110994","0.0-1.0-130.0","0","0","76478","","null","","","null","14","","NaN","","","","","","","","","","","","","",""
"","response","","html-keyboard-response","98","111242","0.0-1.0-131.0-0.0","0","0","76478","","246","","","68","14","","","1","14","training","adjacent","CB","3","2","N.jpg","M.jpg","1","0","0","",""
"","feedback","","html-keyboard-response","99","112247","0.0-1.0-132.0-0.0","0","0","76478","","null","","","null","14","","","","","","","","","","","","","","","",""
"","time_out","","html-keyboard-response","100","114256","0.0-1.0-134.0-0.0","0","0","76478","","null","","","null","14","","","","","","","","","","","","","","","",""
"","ITI","","html-keyboard-response","101","115261","0.0-1.0-135.0","0","0","76478","","null","","","null","14","","","","","","","","","","","","","","","NaN",""
"","S1","","html-keyboard-response","102","115529","0.0-1.0-137.0","0","0","76478","","null","","","null","15","","","","","","","","","","","","","","","",""
"","ISI","","html-keyboard-response","103","115684","0.0-1.0-138.0","0","0","76478","","null","","","null","15","NaN","","","","","","","","","","","","","","",""
"","S2","","html-keyboard-response","104","115949","0.0-1.0-139.0","0","0","76478","","null","","","null","15","","NaN","","","","","","","","","","","","","",""
"","response","","html-keyboard-response","105","116156","0.0-1.0-140.0-0.0","0","0","76478","","205","","","75","15","","","1","15","training","adjacent","DE","4","5","P.jpg","L.jpg","0","1","0","",""
"","feedback","","html-keyboard-response","106","117162","0.0-1.0-141.0-0.0","0","0","76478","","null","","","null","15","","","","","","","","","","","","","","","",""
"","time_out","","html-keyboard-response","107","119171","0.0-1.0-143.0-0.0","0","0","76478","","null","","","null","15","","","","","","","","","","","","","","","",""
"","ITI","","html-keyboard-response","108","120181","0.0-1.0-144.0","0","0","76478","","null","","","null","15","","","","","","","","","","","","","","","NaN",""
"","S1","","html-keyboard-response","109","120442","0.0-1.0-146.0","0","0","76478","","null","","","null","16","","","","","","","","","","","","","","","",""
"","ISI","","html-keyboard-response","110","120595","0.0-1.0-147.0","0","0","76478","","null","","","null","16","NaN","","","","","","","","","","","","","","",""
"","S2","","html-keyboard-response","111","120860","0.0-1.0-148.0","0","0","76478","","null","","","null","16","","NaN","","","","","","","","","","","","","",""
"","response","","html-keyboard-response","112","121184","0.0-1.0-149.0-0.0","0","0","76478","","321","","","75","16","","","1","16","training","adjacent","CD","3","4","N.jpg","P.jpg","0","1","0","",""
"","feedback","","html-keyboard-response","113","122204","0.0-1.0-150.0-0.0","0","0","76478","","null","","","null","16","","","","","","","","","","","","","","","",""
"","time_out","","html-keyboard-response","114","124210","0.0-1.0-152.0-0.0","0","0","76478","","null","","","null","16","","","","","","","","","","","","","","","",""
"","ITI","","html-keyboard-response","115","125218","0.0-1.0-153.0","0","0","76478","","null","","","null","16","","","","","","","","","","","","","","","NaN",""
"","S1","","html-keyboard-response","116","125472","0.0-1.0-155.0","0","0","76478","","null","","","null","17","","","","","","","","","","","","","","","",""
"","ISI","","html-keyboard-response","117","125626","0.0-1.0-156.0","0","0","76478","","null","","","null","17","NaN","","","","","","","","","","","","","","",""
"","S2","","html-keyboard-response","118","125886","0.0-1.0-157.0","0","0","76478","","null","","","null","17","","NaN","","","","","","","","","","","","","",""
"","response","","html-keyboard-response","119","126107","0.0-1.0-158.0-0.0","0","0","76478","","218","","","68","17","","","1","17","training","adjacent","BC","2","3","M.jpg","N.jpg","1","1","1","",""
"","feedback","","html-keyboard-response","120","127112","0.0-1.0-159.0-0.0","0","0","76478","","null","","","null","17","","","","","","","","","","","","","","","",""
"","ITI","","html-keyboard-response","121","128130","0.0-1.0-162.0","0","0","76478","","null","","","null","17","","","","","","","","","","","","","","","NaN",""
"","S1","","html-keyboard-response","122","128386","0.0-1.0-164.0","0","0","76478","","null","","","null","18","","","","","","","","","","","","","","","",""
"","ISI","","html-keyboard-response","123","128548","0.0-1.0-165.0","0","0","76478","","null","","","null","18","NaN","","","","","","","","","","","","","","",""
"","S2","","html-keyboard-response","124","128802","0.0-1.0-166.0","0","0","76478","","null","","","null","18","","NaN","","","","","","","","","","","","","",""
"","response","","html-keyboard-response","125","129249","0.0-1.0-167.0-0.0","0","0","76478","","445","","","75","18","","","1","18","training","adjacent","DE","4","5","P.jpg","L.jpg","0","1","0","",""
"","feedback","","html-keyboard-response","126","130263","0.0-1.0-168.0-0.0","0","0","76478","","null","","","null","18","","","","","","","","","","","","","","","",""
"","time_out","","html-keyboard-response","127","132266","0.0-1.0-170.0-0.0","0","0","76478","","null","","","null","18","","","","","","","","","","","","","","","",""
"","ITI","","html-keyboard-response","128","133269","0.0-1.0-171.0","0","0","76478","","null","","","null","18","","","","","","","","","","","","","","","NaN",""
"","S1","","html-keyboard-response","129","133533","0.0-1.0-173.0","0","0","76478","","null","","","null","19","","","","","","","","","","","","","","","",""
"","ISI","","html-keyboard-response","130","133686","0.0-1.0-174.0","0","0","76478","","null","","","null","19","NaN","","","","","","","","","","","","","","",""
"","S2","","html-keyboard-response","131","133940","0.0-1.0-175.0","0","0","76478","","null","","","null","19","","NaN","","","","","","","","","","","","","",""
"","response","","html-keyboard-response","132","134331","0.0-1.0-176.0-0.0","0","0","76478","","388","","","68","19","","","1","19","training","adjacent","CB","3","2","N.jpg","M.jpg","1","0","0","",""
"","feedback","","html-keyboard-response","133","135343","0.0-1.0-177.0-0.0","0","0","76478","","null","","","null","19","","","","","","","","","","","","","","","",""
"","time_out","","html-keyboard-response","134","137352","0.0-1.0-179.0-0.0","0","0","76478","","null","","","null","19","","","","","","","","","","","","","","","",""
"","ITI","","html-keyboard-response","135","138357","0.0-1.0-180.0","0","0","76478","","null","","","null","19","","","","","","","","","","","","","","","NaN",""
"","S1","","html-keyboard-response","136","138613","0.0-1.0-182.0","0","0","76478","","null","","","null","20","","","","","","","","","","","","","","","",""
"","ISI","","html-keyboard-response","137","138768","0.0-1.0-183.0","0","0","76478","","null","","","null","20","NaN","","","","","","","","","","","","","","",""
"","S2","","html-keyboard-response","138","139027","0.0-1.0-184.0","0","0","76478","","null","","","null","20","","NaN","","","","","","","","","","","","","",""
"","response","","html-keyboard-response","139","139256","0.0-1.0-185.0-0.0","0","0","76478","","225","","","75","20","","","1","20","training","adjacent","AB","1","2","O.jpg","M.jpg","0","1","0","",""
"","feedback","","html-keyboard-response","140","140261","0.0-1.0-186.0-0.0","0","0","76478","","null","","","null","20","","","","","","","","","","","","","","","",""
"","time_out","","html-keyboard-response","141","142269","0.0-1.0-188.0-0.0","0","0","76478","","null","","","null","20","","","","","","","","","","","","","","","",""
"","ITI","","html-keyboard-response","142","143277","0.0-1.0-189.0","0","0","76478","","null","","","null","20","","","","","","","","","","","","","","","NaN",""
"","S1","","html-keyboard-response","143","143530","0.0-1.0-191.0","0","0","76478","","null","","","null","21","","","","","","","","","","","","","","","",""
"","ISI","","html-keyboard-response","144","143685","0.0-1.0-192.0","0","0","76478","","null","","","null","21","NaN","","","","","","","","","","","","","","",""
"","S2","","html-keyboard-response","145","143942","0.0-1.0-193.0","0","0","76478","","null","","","null","21","","NaN","","","","","","","","","","","","","",""
"","response","","html-keyboard-response","146","144297","0.0-1.0-194.0-0.0","0","0","76478","","353","","","75","21","","","1","21","training","adjacent","FE","6","5","R.jpg","L.jpg","0","0","1","",""
"","feedback","","html-keyboard-response","147","145303","0.0-1.0-195.0-0.0","0","0","76478","","null","","","null","21","","","","","","","","","","","","","","","",""
"","ITI","","html-keyboard-response","148","146312","0.0-1.0-198.0","0","0","76478","","null","","","null","21","","","","","","","","","","","","","","","NaN",""
"","S1","","html-keyboard-response","149","146573","0.0-1.0-200.0","0","0","76478","","null","","","null","22","","","","","","","","","","","","","","","",""
"","ISI","","html-keyboard-response","150","146728","0.0-1.0-201.0","0","0","76478","","null","","","null","22","NaN","","","","","","","","","","","","","","",""
"","S2","","html-keyboard-response","151","146986","0.0-1.0-202.0","0","0","76478","","null","","","null","22","","NaN","","","","","","","","","","","","","",""
"","response","","html-keyboard-response","152","147438","0.0-1.0-203.0-0.0","0","0","76478","","449","","","75","22","","","1","22","training","adjacent","GF","7","6","Q.jpg","R.jpg","0","0","1","",""
"","feedback","","html-keyboard-response","153","148445","0.0-1.0-204.0-0.0","0","0","76478","","null","","","null","22","","","","","","","","","","","","","","","",""
"","ITI","","html-keyboard-response","154","149454","0.0-1.0-207.0","0","0","76478","","null","","","null","22","","","","","","","","","","","","","","","NaN",""
"","S1","","html-keyboard-response","155","149714","0.0-1.0-209.0","0","0","76478","","null","","","null","23","","","","","","","","","","","","","","","",""
"","ISI","","html-keyboard-response","156","149876","0.0-1.0-210.0","0","0","76478","","null","","","null","23","NaN","","","","","","","","","","","","","","",""
"","S2","","html-keyboard-response","157","150137","0.0-1.0-211.0","0","0","76478","","null","","","null","23","","NaN","","","","","","","","","","","","","",""
"","response","","html-keyboard-response","158","150158","0.0-1.0-212.0-0.0","0","0","76478","","18","","","68","23","","","1","23","training","adjacent","EF","5","6","L.jpg","R.jpg","1","1","1","",""
"","feedback","","html-keyboard-response","159","151162","0.0-1.0-213.0-0.0","0","0","76478","","null","","","null","23","","","","","","","","","","","","","","","",""
"","ITI","","html-keyboard-response","160","152170","0.0-1.0-216.0","0","0","76478","","null","","","null","23","","","","","","","","","","","","","","","NaN",""
"","S1","","html-keyboard-response","161","152428","0.0-1.0-218.0","0","0","76478","","null","","","null","24","","","","","","","","","","","","","","","",""
"","ISI","","html-keyboard-response","162","152582","0.0-1.0-219.0","0","0","76478","","null","","","null","24","NaN","","","","","","","","","","","","","","",""
"","S2","","html-keyboard-response","163","152836","0.0-1.0-220.0","0","0","76478","","null","","","null","24","","NaN","","","","","","","","","","","","","",""
"","response","","html-keyboard-response","164","153222","0.0-1.0-221.0-0.0","0","0","76478","","384","","","75","24","","","1","24","training","adjacent","CB","3","2","N.jpg","M.jpg","0","0","1","",""
"","feedback","","html-keyboard-response","165","154237","0.0-1.0-222.0-0.0","0","0","76478","","null","","","null","24","","","","","","","","","","","","","","","",""
"","ITI","","html-keyboard-response","166","155245","0.0-1.0-225.0","0","0","76478","","null","","","null","24","","","","","","","","","","","","","","","NaN",""
"","S1","","html-keyboard-response","167","155506","0.0-1.0-227.0","0","0","76478","","null","","","null","25","","","","","","","","","","","","","","","",""
"","ISI","","html-keyboard-response","168","155659","0.0-1.0-228.0","0","0","76478","","null","","","null","25","NaN","","","","","","","","","","","","","","",""
"","S2","","html-keyboard-response","169","155916","0.0-1.0-229.0","0","0","76478","","null","","","null","25","","NaN","","","","","","","","","","","","","",""
"","response","","html-keyboard-response","170","155930","0.0-1.0-230.0-0.0","0","0","76478","","13","","","68","25","","","1","25","training","adjacent","ED","5","4","L.jpg","P.jpg","1","0","0","",""
"","feedback","","html-keyboard-response","171","156936","0.0-1.0-231.0-0.0","0","0","76478","","null","","","null","25","","","","","","","","","","","","","","","",""
"","time_out","","html-keyboard-response","172","158953","0.0-1.0-233.0-0.0","0","0","76478","","null","","","null","25","","","","","","","","","","","","","","","",""
"","ITI","","html-keyboard-response","173","159963","0.0-1.0-234.0","0","0","76478","","null","","","null","25","","","","","","","","","","","","","","","NaN",""
"","S1","","html-keyboard-response","174","160218","0.0-1.0-236.0","0","0","76478","","null","","","null","26","","","","","","","","","","","","","","","",""
"","ISI","","html-keyboard-response","175","160379","0.0-1.0-237.0","0","0","76478","","null","","","null","26","NaN","","","","","","","","","","","","","","",""
"","S2","","html-keyboard-response","176","160638","0.0-1.0-238.0","0","0","76478","","null","","","null","26","","NaN","","","","","","","","","","","","","",""
"","response","","html-keyboard-response","177","160724","0.0-1.0-239.0-0.0","0","0","76478","","84","","","75","26","","","1","26","training","adjacent","GF","7","6","Q.jpg","R.jpg","0","0","1","",""
"","feedback","","html-keyboard-response","178","161729","0.0-1.0-240.0-0.0","0","0","76478","","null","","","null","26","","","","","","","","","","","","","","","",""
"","ITI","","html-keyboard-response","179","162747","0.0-1.0-243.0","0","0","76478","","null","","","null","26","","","","","","","","","","","","","","","NaN",""
"","S1","","html-keyboard-response","180","163009","0.0-1.0-245.0","0","0","76478","","null","","","null","27","","","","","","","","","","","","","","","",""
"","ISI","","html-keyboard-response","181","163162","0.0-1.0-246.0","0","0","76478","","null","","","null","27","NaN","","","","","","","","","","","","","","",""
"","S2","","html-keyboard-response","182","163411","0.0-1.0-247.0","0","0","76478","","246","","","68","27","","d","1","27","training","adjacent","DE","4","5","P.jpg","L.jpg","1","1","1","",""
"","feedback","","html-keyboard-response","183","164416","0.0-1.0-249.0-0.0","0","0","76478","","null","","","null","27","","","","","","","","","","","","","","","",""
"","ITI","","html-keyboard-response","184","165424","0.0-1.0-252.0","0","0","76478","","null","","","null","27","","","","","","","","","","","","","","","NaN",""
"","S1","","html-keyboard-response","185","165684","0.0-1.0-254.0","0","0","76478","","null","","","null","28","","","","","","","","","","","","","","","",""
"","ISI","","html-keyboard-response","186","165838","0.0-1.0-255.0","0","0","76478","","null","","","null","28","NaN","","","","","","","","","","","","","","",""
"","S2","","html-keyboard-response","187","166108","0.0-1.0-256.0","0","0","76478","","null","","","null","28","","NaN","","","","","","","","","","","","","",""
"","response","","html-keyboard-response","188","166532","0.0-1.0-257.0-0.0","0","0","76478","","421","","","68","28","","","1","28","training","adjacent","EF","5","6","L.jpg","R.jpg","1","1","1","",""
"","feedback","","html-keyboard-response","189","167537","0.0-1.0-258.0-0.0","0","0","76478","","null","","","null","28","","","","","","","","","","","","","","","",""
"","ITI","","html-keyboard-response","190","168557","0.0-1.0-261.0","0","0","76478","","null","","","null","28","","","","","","","","","","","","","","","NaN",""
"","S1","","html-keyboard-response","191","168817","0.0-1.0-263.0","0","0","76478","","null","","","null","29","","","","","","","","","","","","","","","",""
"","ISI","","html-keyboard-response","192","168974","0.0-1.0-264.0","0","0","76478","","null","","","null","29","NaN","","","","","","","","","","","","","","",""
"","S2","","html-keyboard-response","193","169228","0.0-1.0-265.0","0","0","76478","","null","","","null","29","","NaN","","","","","","","","","","","","","",""
"","response","","html-keyboard-response","194","169477","0.0-1.0-266.0-0.0","0","0","76478","","246","","","68","29","","","1","29","training","adjacent","DC","4","3","P.jpg","N.jpg","1","0","0","",""
"","feedback","","html-keyboard-response","195","170483","0.0-1.0-267.0-0.0","0","0","76478","","null","","","null","29","","","","","","","","","","","","","","","",""
"","time_out","","html-keyboard-response","196","172490","0.0-1.0-269.0-0.0","0","0","76478","","null","","","null","29","","","","","","","","","","","","","","","",""
"","ITI","","html-keyboard-response","197","173495","0.0-1.0-270.0","0","0","76478","","null","","","null","29","","","","","","","","","","","","","","","NaN",""
"","S1","","html-keyboard-response","198","173754","0.0-1.0-272.0","0","0","76478","","null","","","null","30","","","","","","","","","","","","","","","",""
"","ISI","","html-keyboard-response","199","173914","0.0-1.0-273.0","0","0","76478","","null","","","null","30","NaN","","","","","","","","","","","","","","",""
"","S2","","html-keyboard-response","200","174172","0.0-1.0-274.0","0","0","76478","","null","","","null","30","","NaN","","","","","","","","","","","","","",""
"","response","","html-keyboard-response","201","174450","0.0-1.0-275.0-0.0","0","0","76478","","275","","","75","30","","","1","30","training","adjacent","FE","6","5","R.jpg","L.jpg","0","0","1","",""
"","feedback","","html-keyboard-response","202","175455","0.0-1.0-276.0-0.0","0","0","76478","","null","","","null","30","","","","","","","","","","","","","","","",""
"","ITI","","html-keyboard-response","203","176461","0.0-1.0-279.0","0","0","76478","","null","","","null","30","","","","","","","","","","","","","","","NaN",""
"","S1","","html-keyboard-response","204","176719","0.0-1.0-281.0","0","0","76478","","null","","","null","31","","","","","","","","","","","","","","","",""
"","ISI","","html-keyboard-response","205","176873","0.0-1.0-282.0","0","0","76478","","null","","","null","31","NaN","","","","","","","","","","","","","","",""
"","S2","","html-keyboard-response","206","177130","0.0-1.0-283.0","0","0","76478","","null","","","null","31","","NaN","","","","","","","","","","","","","",""
"","response","","html-keyboard-response","207","177386","0.0-1.0-284.0-0.0","0","0","76478","","253","","","68","31","","","1","31","training","adjacent","BA","2","1","M.jpg","O.jpg","1","0","0","",""
"","feedback","","html-keyboard-response","208","178394","0.0-1.0-285.0-0.0","0","0","76478","","null","","","null","31","","","","","","","","","","","","","","","",""
"","time_out","","html-keyboard-response","209","180398","0.0-1.0-287.0-0.0","0","0","76478","","null","","","null","31","","","","","","","","","","","","","","","",""
"","ITI","","html-keyboard-response","210","181404","0.0-1.0-288.0","0","0","76478","","null","","","null","31","","","","","","","","","","","","","","","NaN",""
"","S1","","html-keyboard-response","211","181669","0.0-1.0-290.0","0","0","76478","","null","","","null","32","","","","","","","","","","","","","","","",""
"","ISI","","html-keyboard-response","212","181835","0.0-1.0-291.0","0","0","76478","","null","","","null","32","NaN","","","","","","","","","","","","","","",""
"","S2","","html-keyboard-response","213","182096","0.0-1.0-292.0","0","0","76478","","null","","","null","32","","NaN","","","","","","","","","","","","","",""
"","response","","html-keyboard-response","214","182288","0.0-1.0-293.0-0.0","0","0","76478","","190","","","68","32","","","1","32","training","adjacent","DC","4","3","P.jpg","N.jpg","1","0","0","",""
"","feedback","","html-keyboard-response","215","183300","0.0-1.0-294.0-0.0","0","0","76478","","null","","","null","32","","","","","","","","","","","","","","","",""
"","time_out","","html-keyboard-response","216","185306","0.0-1.0-296.0-0.0","0","0","76478","","null","","","null","32","","","","","","","","","","","","","","","",""
"","ITI","","html-keyboard-response","217","186315","0.0-1.0-297.0","0","0","76478","","null","","","null","32","","","","","","","","","","","","","","","NaN",""
"","S1","","html-keyboard-response","218","186578","0.0-1.0-299.0","0","0","76478","","null","","","null","33","","","","","","","","","","","","","","","",""
"","ISI","","html-keyboard-response","219","186739","0.0-1.0-300.0","0","0","76478","","null","","","null","33","NaN","","","","","","","","","","","","","","",""
"","S2","","html-keyboard-response","220","186999","0.0-1.0-301.0","0","0","76478","","null","","","null","33","","NaN","","","","","","","","","","","","","",""
"","response","","html-keyboard-response","221","187214","0.0-1.0-302.0-0.0","0","0","76478","","212","","","75","33","","","1","33","training","adjacent","CB","3","2","N.jpg","M.jpg","0","0","1","",""
"","feedback","","html-keyboard-response","222","188219","0.0-1.0-303.0-0.0","0","0","76478","","null","","","null","33","","","","","","","","","","","","","","","",""
"","ITI","","html-keyboard-response","223","189231","0.0-1.0-306.0","0","0","76478","","null","","","null","33","","","","","","","","","","","","","","","NaN",""
"","S1","","html-keyboard-response","224","189494","0.0-1.0-308.0","0","0","76478","","null","","","null","34","","","","","","","","","","","","","","","",""
"","ISI","","html-keyboard-response","225","189647","0.0-1.0-309.0","0","0","76478","","null","","","null","34","NaN","","","","","","","","","","","","","","",""
"","S2","","html-keyboard-response","226","189878","0.0-1.0-310.0","0","0","76478","","229","","","75","34","","k","1","34","training","adjacent","BC","2","3","M.jpg","N.jpg","0","1","0","",""
"","feedback","","html-keyboard-response","227","190885","0.0-1.0-312.0-0.0","0","0","76478","","null","","","null","34","","","","","","","","","","","","","","","",""
"","time_out","","html-keyboard-response","228","192890","0.0-1.0-314.0-0.0","0","0","76478","","null","","","null","34","","","","","","","","","","","","","","","",""
"","ITI","","html-keyboard-response","229","193893","0.0-1.0-315.0","0","0","76478","","null","","","null","34","","","","","","","","","","","","","","","NaN",""
"","S1","","html-keyboard-response","230","194146","0.0-1.0-317.0","0","0","76478","","null","","","null","35","","","","","","","","","","","","","","","",""
"","ISI","","html-keyboard-response","231","194302","0.0-1.0-318.0","0","0","76478","","null","","","null","35","NaN","","","","","","","","","","","","","","",""
"","S2","","html-keyboard-response","232","194570","0.0-1.0-319.0","0","0","76478","","null","","","null","35","","NaN","","","","","","","","","","","","","",""
"","response","","html-keyboard-response","233","194926","0.0-1.0-320.0-0.0","0","0","76478","","353","","","68","35","","","1","35","training","adjacent","BC","2","3","M.jpg","N.jpg","1","1","1","",""
"","feedback","","html-keyboard-response","234","195933","0.0-1.0-321.0-0.0","0","0","76478","","null","","","null","35","","","","","","","","","","","","","","","",""
"","ITI","","html-keyboard-response","235","196942","0.0-1.0-324.0","0","0","76478","","null","","","null","35","","","","","","","","","","","","","","","NaN",""
"","S1","","html-keyboard-response","236","197199","0.0-1.0-326.0","0","0","76478","","null","","","null","36","","","","","","","","","","","","","","","",""
"","ISI","","html-keyboard-response","237","197353","0.0-1.0-327.0","0","0","76478","","null","","","null","36","NaN","","","","","","","","","","","","","","",""
"","S2","","html-keyboard-response","238","197608","0.0-1.0-328.0","0","0","76478","","null","","","null","36","","NaN","","","","","","","","","","","","","",""
"","response","","html-keyboard-response","239","197793","0.0-1.0-329.0-0.0","0","0","76478","","182","","","68","36","","","1","36","training","adjacent","ED","5","4","L.jpg","P.jpg","1","0","0","",""
"","feedback","","html-keyboard-response","240","198804","0.0-1.0-330.0-0.0","0","0","76478","","null","","","null","36","","","","","","","","","","","","","","","",""
"","time_out","","html-keyboard-response","241","200807","0.0-1.0-332.0-0.0","0","0","76478","","null","","","null","36","","","","","","","","","","","","","","","",""
"","ITI","","html-keyboard-response","242","201819","0.0-1.0-333.0","0","0","76478","","null","","","null","36","","","","","","","","","","","","","","","NaN",""
"","S1","","html-keyboard-response","243","202074","0.0-1.0-335.0","0","0","76478","","null","","","null","37","","","","","","","","","","","","","","","",""
"","ISI","","html-keyboard-response","244","202228","0.0-1.0-336.0","0","0","76478","","null","","","null","37","NaN","","","","","","","","","","","","","","",""
"","S2","","html-keyboard-response","245","202488","0.0-1.0-337.0","0","0","76478","","null","","","null","37","","NaN","","","","","","","","","","","","","",""
"","response","","html-keyboard-response","246","202750","0.0-1.0-338.0-0.0","0","0","76478","","260","","","75","37","","","1","37","training","adjacent","GF","7","6","Q.jpg","R.jpg","0","0","1","",""
"","feedback","","html-keyboard-response","247","203761","0.0-1.0-339.0-0.0","0","0","76478","","null","","","null","37","","","","","","","","","","","","","","","",""
"","ITI","","html-keyboard-response","248","204771","0.0-1.0-342.0","0","0","76478","","null","","","null","37","","","","","","","","","","","","","","","NaN",""
"","S1","","html-keyboard-response","249","205031","0.0-1.0-344.0","0","0","76478","","null","","","null","38","","","","","","","","","","","","","","","",""
"","ISI","","html-keyboard-response","250","205184","0.0-1.0-345.0","0","0","76478","","null","","","null","38","NaN","","","","","","","","","","","","","","",""
"","S2","","html-keyboard-response","251","205439","0.0-1.0-346.0","0","0","76478","","null","","","null","38","","NaN","","","","","","","","","","","","","",""
"","response","","html-keyboard-response","252","205652","0.0-1.0-347.0-0.0","0","0","76478","","210","","","68","38","","","1","38","training","adjacent","AB","1","2","O.jpg","M.jpg","1","1","1","",""
"","feedback","","html-keyboard-response","253","206662","0.0-1.0-348.0-0.0","0","0","76478","","null","","","null","38","","","","","","","","","","","","","","","",""
"","ITI","","html-keyboard-response","254","207672","0.0-1.0-351.0","0","0","76478","","null","","","null","38","","","","","","","","","","","","","","","NaN",""
"","S1","","html-keyboard-response","255","207926","0.0-1.0-353.0","0","0","76478","","null","","","null","39","","","","","","","","","","","","","","","",""
"","ISI","","html-keyboard-response","256","208082","0.0-1.0-354.0","0","0","76478","","null","","","null","39","NaN","","","","","","","","","","","","","","",""
"","S2","","html-keyboard-response","257","208343","0.0-1.0-355.0","0","0","76478","","null","","","null","39","","NaN","","","","","","","","","","","","","",""
"","response","","html-keyboard-response","258","208653","0.0-1.0-356.0-0.0","0","0","76478","","306","","","75","39","","","1","39","training","adjacent","ED","5","4","L.jpg","P.jpg","0","0","1","",""
"","feedback","","html-keyboard-response","259","209665","0.0-1.0-357.0-0.0","0","0","76478","","null","","","null","39","","","","","","","","","","","","","","","",""
"","ITI","","html-keyboard-response","260","210673","0.0-1.0-360.0","0","0","76478","","null","","","null","39","","","","","","","","","","","","","","","NaN",""
"","S1","","html-keyboard-response","261","210934","0.0-1.0-362.0","0","0","76478","","null","","","null","40","","","","","","","","","","","","","","","",""
"","ISI","","html-keyboard-response","262","211090","0.0-1.0-363.0","0","0","76478","","null","","","null","40","NaN","","","","","","","","","","","","","","",""
"","S2","","html-keyboard-response","263","211349","0.0-1.0-364.0","0","0","76478","","null","","","null","40","","NaN","","","","","","","","","","","","","",""
"","response","","html-keyboard-response","264","211588","0.0-1.0-365.0-0.0","0","0","76478","","236","","","68","40","","","1","40","training","adjacent","FG","6","7","R.jpg","Q.jpg","1","1","1","",""
"","feedback","","html-keyboard-response","265","212596","0.0-1.0-366.0-0.0","0","0","76478","","null","","","null","40","","","","","","","","","","","","","","","",""
"","ITI","","html-keyboard-response","266","213615","0.0-1.0-369.0","0","0","76478","","null","","","null","40","","","","","","","","","","","","","","","NaN",""
"","S1","","html-keyboard-response","267","213869","0.0-1.0-371.0","0","0","76478","","null","","","null","41","","","","","","","","","","","","","","","",""
"","ISI","","html-keyboard-response","268","214024","0.0-1.0-372.0","0","0","76478","","null","","","null","41","NaN","","","","","","","","","","","","","","",""
"","S2","","html-keyboard-response","269","214284","0.0-1.0-373.0","0","0","76478","","null","","","null","41","","NaN","","","","","","","","","","","","","",""
"","response","","html-keyboard-response","270","214525","0.0-1.0-374.0-0.0","0","0","76478","","238","","","68","41","","","1","41","training","adjacent","FG","6","7","R.jpg","Q.jpg","1","1","1","",""
"","feedback","","html-keyboard-response","271","215529","0.0-1.0-375.0-0.0","0","0","76478","","null","","","null","41","","","","","","","","","","","","","","","",""
"","ITI","","html-keyboard-response","272","216536","0.0-1.0-378.0","0","0","76478","","null","","","null","41","","","","","","","","","","","","","","","NaN",""
"","S1","","html-keyboard-response","273","216796","0.0-1.0-380.0","0","0","76478","","null","","","null","42","","","","","","","","","","","","","","","",""
"","ISI","","html-keyboard-response","274","216951","0.0-1.0-381.0","0","0","76478","","null","","","null","42","NaN","","","","","","","","","","","","","","",""
"","S2","","html-keyboard-response","275","217204","0.0-1.0-382.0","0","0","76478","","null","","","null","42","","NaN","","","","","","","","","","","","","",""
"","response","","html-keyboard-response","276","217426","0.0-1.0-383.0-0.0","0","0","76478","","219","","","68","42","","","1","42","training","adjacent","AB","1","2","O.jpg","M.jpg","1","1","1","",""
"","feedback","","html-keyboard-response","277","218434","0.0-1.0-384.0-0.0","0","0","76478","","null","","","null","42","","","","","","","","","","","","","","","",""
"","ITI","","html-keyboard-response","278","219446","0.0-1.0-387.0","0","0","76478","","null","","","null","42","","","","","","","","","","","","","","","NaN",""
"","S1","","html-keyboard-response","279","219705","0.0-1.0-389.0","0","0","76478","","null","","","null","43","","","","","","","","","","","","","","","",""
"","ISI","","html-keyboard-response","280","219859","0.0-1.0-390.0","0","0","76478","","null","","","null","43","NaN","","","","","","","","","","","","","","",""
"","S2","","html-keyboard-response","281","220116","0.0-1.0-391.0","0","0","76478","","null","","","null","43","","NaN","","","","","","","","","","","","","",""
"","response","","html-keyboard-response","282","220426","0.0-1.0-392.0-0.0","0","0","76478","","307","","","75","43","","","1","43","training","adjacent","FE","6","5","R.jpg","L.jpg","0","0","1","",""
"","feedback","","html-keyboard-response","283","221432","0.0-1.0-393.0-0.0","0","0","76478","","null","","","null","43","","","","","","","","","","","","","","","",""
"","ITI","","html-keyboard-response","284","222448","0.0-1.0-396.0","0","0","76478","","null","","","null","43","","","","","","","","","","","","","","","NaN",""
"","S1","","html-keyboard-response","285","222709","0.0-1.0-398.0","0","0","76478","","null","","","null","44","","","","","","","","","","","","","","","",""
"","ISI","","html-keyboard-response","286","222863","0.0-1.0-399.0","0","0","76478","","null","","","null","44","NaN","","","","","","","","","","","","","","",""
"","S2","","html-keyboard-response","287","223123","0.0-1.0-400.0","0","0","76478","","null","","","null","44","","NaN","","","","","","","","","","","","","",""
"","response","","html-keyboard-response","288","223611","0.0-1.0-401.0-0.0","0","0","76478","","485","","","75","44","","","1","44","training","adjacent","EF","5","6","L.jpg","R.jpg","0","1","0","",""
"","feedback","","html-keyboard-response","289","224616","0.0-1.0-402.0-0.0","0","0","76478","","null","","","null","44","","","","","","","","","","","","","","","",""
"","time_out","","html-keyboard-response","290","226626","0.0-1.0-404.0-0.0","0","0","76478","","null","","","null","44","","","","","","","","","","","","","","","",""
"","ITI","","html-keyboard-response","291","227632","0.0-1.0-405.0","0","0","76478","","null","","","null","44","","","","","","","","","","","","","","","NaN",""
"","S1","","html-keyboard-response","292","227893","0.0-1.0-407.0","0","0","76478","","null","","","null","45","","","","","","","","","","","","","","","",""
"","ISI","","html-keyboard-response","293","228047","0.0-1.0-408.0","0","0","76478","","null","","","null","45","NaN","","","","","","","","","","","","","","",""
"","S2","","html-keyboard-response","294","228308","0.0-1.0-409.0","0","0","76478","","null","","","null","45","","NaN","","","","","","","","","","","","","",""
"","response","","html-keyboard-response","295","228680","0.0-1.0-410.0-0.0","0","0","76478","","370","","","75","45","","","1","45","training","adjacent","CD","3","4","N.jpg","P.jpg","0","1","0","",""
"","feedback","","html-keyboard-response","296","229689","0.0-1.0-411.0-0.0","0","0","76478","","null","","","null","45","","","","","","","","","","","","","","","",""
"","time_out","","html-keyboard-response","297","231694","0.0-1.0-413.0-0.0","0","0","76478","","null","","","null","45","","","","","","","","","","","","","","","",""
"","ITI","","html-keyboard-response","298","232705","0.0-1.0-414.0","0","0","76478","","null","","","null","45","","","","","","","","","","","","","","","NaN",""
"","S1","","html-keyboard-response","299","232965","0.0-1.0-416.0","0","0","76478","","null","","","null","46","","","","","","","","","","","","","","","",""
"","ISI","","html-keyboard-response","300","233119","0.0-1.0-417.0","0","0","76478","","null","","","null","46","NaN","","","","","","","","","","","","","","",""
"","S2","","html-keyboard-response","301","233378","0.0-1.0-418.0","0","0","76478","","null","","","null","46","","NaN","","","","","","","","","","","","","",""
"","response","","html-keyboard-response","302","233801","0.0-1.0-419.0-0.0","0","0","76478","","421","","","75","46","","","1","46","training","adjacent","CD","3","4","N.jpg","P.jpg","0","1","0","",""
"","feedback","","html-keyboard-response","303","234808","0.0-1.0-420.0-0.0","0","0","76478","","null","","","null","46","","","","","","","","","","","","","","","",""
"","time_out","","html-keyboard-response","304","236811","0.0-1.0-422.0-0.0","0","0","76478","","null","","","null","46","","","","","","","","","","","","","","","",""
"","ITI","","html-keyboard-response","305","237816","0.0-1.0-423.0","0","0","76478","","null","","","null","46","","","","","","","","","","","","","","","NaN",""
"","S1","","html-keyboard-response","306","238074","0.0-1.0-425.0","0","0","76478","","null","","","null","47","","","","","","","","","","","","","","","",""
"","ISI","","html-keyboard-response","307","238228","0.0-1.0-426.0","0","0","76478","","null","","","null","47","NaN","","","","","","","","","","","","","","",""
"","S2","","html-keyboard-response","308","238487","0.0-1.0-427.0","0","0","76478","","null","","","null","47","","NaN","","","","","","","","","","","","","",""
"","response","","html-keyboard-response","309","238820","0.0-1.0-428.0-0.0","0","0","76478","","331","","","75","47","","","1","47","training","adjacent","DC","4","3","P.jpg","N.jpg","0","0","1","",""
"","feedback","","html-keyboard-response","310","239824","0.0-1.0-429.0-0.0","0","0","76478","","null","","","null","47","","","","","","","","","","","","","","","",""
"","ITI","","html-keyboard-response","311","240836","0.0-1.0-432.0","0","0","76478","","null","","","null","47","","","","","","","","","","","","","","","NaN",""
"","block_over","","html-keyboard-response","312","275932","0.0-1.0-433.0-0.0","0","0","76478","","35093","","","32","47","","","","","","","","","","","","","","","",""
"","S1","","html-keyboard-response","313","276193","0.0-1.0-434.0","0","0","76478","","null","","","null","48","","","","","","","","","","","","","","","",""
"","ISI","","html-keyboard-response","314","276348","0.0-1.0-435.0","0","0","76478","","null","","","null","48","NaN","","","","","","","","","","","","","","",""
"","S2","","html-keyboard-response","315","276607","0.0-1.0-436.0","0","0","76478","","null","","","null","48","","NaN","","","","","","","","","","","","","",""
"","response","","html-keyboard-response","316","278368","0.0-1.0-437.0-0.0","0","0","76478","","null","","","null","48","","","2","48","training","adjacent","FE","6","5","R.jpg","L.jpg","NaN","0","0","",""
"","too_slow_prompt","","html-keyboard-response","317","279374","0.0-1.0-439.0-0.0","1","0","76478","","null","","","null","","","","","","","","","","","","","","","","",""
"","time_out","","html-keyboard-response","318","281380","0.0-1.0-440.0-0.0","0","0","76478","","null","","","null","48","","","","","","","","","","","","","","","",""
"","ITI","","html-keyboard-response","319","282387","0.0-1.0-441.0","0","0","76478","","null","","","null","48","","","","","","","","","","","","","","","NaN",""
"","S1","","html-keyboard-response","320","282649","0.0-1.0-443.0","0","0","76478","","null","","","null","49","","","","","","","","","","","","","","","",""
"","ISI","","html-keyboard-response","321","282806","0.0-1.0-444.0","0","0","76478","","null","","","null","49","NaN","","","","","","","","","","","","","","",""
"","S2","","html-keyboard-response","322","283066","0.0-1.0-445.0","0","0","76478","","null","","","null","49","","NaN","","","","","","","","","","","","","",""
"","response","","html-keyboard-response","323","283442","0.0-1.0-446.0-0.0","0","0","76478","","373","","","75","49","","","2","49","training","adjacent","CB","3","2","N.jpg","M.jpg","0","0","1","",""
"","feedback","","html-keyboard-response","324","284453","0.0-1.0-447.0-0.0","0","0","76478","","null","","","null","49","","","","","","","","","","","","","","","",""
"","ITI","","html-keyboard-response","325","285458","0.0-1.0-450.0","0","0","76478","","null","","","null","49","","","","","","","","","","","","","","","NaN",""
"","S1","","html-keyboard-response","326","285715","0.0-1.0-452.0","0","0","76478","","null","","","null","50","","","","","","","","","","","","","","","",""
"","ISI","","html-keyboard-response","327","285870","0.0-1.0-453.0","0","0","76478","","null","","","null","50","NaN","","","","","","","","","","","","","","",""
"","S2","","html-keyboard-response","328","286129","0.0-1.0-454.0","0","0","76478","","null","","","null","50","","NaN","","","","","","","","","","","","","",""
"","response","","html-keyboard-response","329","286337","0.0-1.0-455.0-0.0","0","0","76478","","206","","","68","50","","","2","50","training","adjacent","BA","2","1","M.jpg","O.jpg","1","0","0","",""
"","feedback","","html-keyboard-response","330","287342","0.0-1.0-456.0-0.0","0","0","76478","","null","","","null","50","","","","","","","","","","","","","","","",""
"","time_out","","html-keyboard-response","331","289345","0.0-1.0-458.0-0.0","0","0","76478","","null","","","null","50","","","","","","","","","","","","","","","",""
"","ITI","","html-keyboard-response","332","290356","0.0-1.0-459.0","0","0","76478","","null","","","null","50","","","","","","","","","","","","","","","NaN",""
"","S1","","html-keyboard-response","333","290609","0.0-1.0-461.0","0","0","76478","","null","","","null","51","","","","","","","","","","","","","","","",""
"","ISI","","html-keyboard-response","334","290765","0.0-1.0-462.0","0","0","76478","","null","","","null","51","NaN","","","","","","","","","","","","","","",""
"","S2","","html-keyboard-response","335","291027","0.0-1.0-463.0","0","0","76478","","null","","","null","51","","NaN","","","","","","","","","","","","","",""
"","response","","html-keyboard-response","336","291061","0.0-1.0-464.0-0.0","0","0","76478","","32","","","75","51","","","2","51","training","adjacent","BC","2","3","M.jpg","N.jpg","0","1","0","",""
"","feedback","","html-keyboard-response","337","292068","0.0-1.0-465.0-0.0","0","0","76478","","null","","","null","51","","","","","","","","","","","","","","","",""
"","time_out","","html-keyboard-response","338","294075","0.0-1.0-467.0-0.0","0","0","76478","","null","","","null","51","","","","","","","","","","","","","","","",""
"","ITI","","html-keyboard-response","339","295081","0.0-1.0-468.0","0","0","76478","","null","","","null","51","","","","","","","","","","","","","","","NaN",""
"","S1","","html-keyboard-response","340","295342","0.0-1.0-470.0","0","0","76478","","null","","","null","52","","","","","","","","","","","","","","","",""
"","ISI","","html-keyboard-response","341","295497","0.0-1.0-471.0","0","0","76478","","null","","","null","52","NaN","","","","","","","","","","","","","","",""
"","S2","","html-keyboard-response","342","295754","0.0-1.0-472.0","0","0","76478","","null","","","null","52","","NaN","","","","","","","","","","","","","",""
"","response","","html-keyboard-response","343","295756","0.0-1.0-473.0-0.0","0","0","76478","","0","","","68","52","","","2","52","training","adjacent","FG","6","7","R.jpg","Q.jpg","1","1","1","",""
"","feedback","","html-keyboard-response","344","296764","0.0-1.0-474.0-0.0","0","0","76478","","null","","","null","52","","","","","","","","","","","","","","","",""
"","ITI","","html-keyboard-response","345","297772","0.0-1.0-477.0","0","0","76478","","null","","","null","52","","","","","","","","","","","","","","","NaN",""
"","S1","","html-keyboard-response","346","298030","0.0-1.0-479.0","0","0","76478","","null","","","null","53","","","","","","","","","","","","","","","",""
"","ISI","","html-keyboard-response","347","298184","0.0-1.0-480.0","0","0","76478","","null","","","null","53","NaN","","","","","","","","","","","","","","",""
"","S2","","html-keyboard-response","348","298439","0.0-1.0-481.0","0","0","76478","","null","","","null","53","","NaN","","","","","","","","","","","","","",""
"","response","","html-keyboard-response","349","298556","0.0-1.0-482.0-0.0","0","0","76478","","115","","","75","53","","","2","53","training","adjacent","FE","6","5","R.jpg","L.jpg","0","0","1","",""
"","feedback","","html-keyboard-response","350","299565","0.0-1.0-483.0-0.0","0","0","76478","","null","","","null","53","","","","","","","","","","","","","","","",""
"","ITI","","html-keyboard-response","351","300570","0.0-1.0-486.0","0","0","76478","","null","","","null","53","","","","","","","","","","","","","","","NaN",""
"","S1","","html-keyboard-response","352","300823","0.0-1.0-488.0","0","0","76478","","null","","","null","54","","","","","","","","","","","","","","","",""
"","ISI","","html-keyboard-response","353","300979","0.0-1.0-489.0","0","0","76478","","null","","","null","54","NaN","","","","","","","","","","","","","","",""
"","S2","","html-keyboard-response","354","301240","0.0-1.0-490.0","0","0","76478","","null","","","null","54","","NaN","","","","","","","","","","","","","",""
"","response","","html-keyboard-response","355","301467","0.0-1.0-491.0-0.0","0","0","76478","","224","","","75","54","","","2","54","training","adjacent","BC","2","3","M.jpg","N.jpg","0","1","0","",""
"","feedback","","html-keyboard-response","356","302477","0.0-1.0-492.0-0.0","0","0","76478","","null","","","null","54","","","","","","","","","","","","","","","",""
"","time_out","","html-keyboard-response","357","304483","0.0-1.0-494.0-0.0","0","0","76478","","null","","","null","54","","","","","","","","","","","","","","","",""
"","ITI","","html-keyboard-response","358","305486","0.0-1.0-495.0","0","0","76478","","null","","","null","54","","","","","","","","","","","","","","","NaN",""
"","S1","","html-keyboard-response","359","305748","0.0-1.0-497.0","0","0","76478","","null","","","null","55","","","","","","","","","","","","","","","",""
"","ISI","","html-keyboard-response","360","305902","0.0-1.0-498.0","0","0","76478","","null","","","null","55","NaN","","","","","","","","","","","","","","",""
"","S2","","html-keyboard-response","361","306156","0.0-1.0-499.0","0","0","76478","","null","","","null","55","","NaN","","","","","","","","","","","","","",""
"","response","","html-keyboard-response","362","306184","0.0-1.0-500.0-0.0","0","0","76478","","26","","","68","55","","","2","55","training","adjacent","DE","4","5","P.jpg","L.jpg","1","1","1","",""
"","feedback","","html-keyboard-response","363","307200","0.0-1.0-501.0-0.0","0","0","76478","","null","","","null","55","","","","","","","","","","","","","","","",""
"","ITI","","html-keyboard-response","364","308211","0.0-1.0-504.0","0","0","76478","","null","","","null","55","","","","","","","","","","","","","","","NaN",""
"","S1","","html-keyboard-response","365","308468","0.0-1.0-506.0","0","0","76478","","null","","","null","56","","","","","","","","","","","","","","","",""
"","ISI","","html-keyboard-response","366","308621","0.0-1.0-507.0","0","0","76478","","null","","","null","56","NaN","","","","","","","","","","","","","","",""
"","S2","","html-keyboard-response","367","308881","0.0-1.0-508.0","0","0","76478","","null","","","null","56","","NaN","","","","","","","","","","","","","",""
"","response","","html-keyboard-response","368","309051","0.0-1.0-509.0-0.0","0","0","76478","","167","","","68","56","","","2","56","training","adjacent","AB","1","2","O.jpg","M.jpg","1","1","1","",""
"","feedback","","html-keyboard-response","369","310069","0.0-1.0-510.0-0.0","0","0","76478","","null","","","null","56","","","","","","","","","","","","","","","",""
"","ITI","","html-keyboard-response","370","311075","0.0-1.0-513.0","0","0","76478","","null","","","null","56","","","","","","","","","","","","","","","NaN",""
"","S1","","html-keyboard-response","371","311334","0.0-1.0-515.0","0","0","76478","","null","","","null","57","","","","","","","","","","","","","","","",""
"","ISI","","html-keyboard-response","372","311489","0.0-1.0-516.0","0","0","76478","","null","","","null","57","NaN","","","","","","","","","","","","","","",""
"","S2","","html-keyboard-response","373","311750","0.0-1.0-517.0","0","0","76478","","null","","","null","57","","NaN","","","","","","","","","","","","","",""
"","response","","html-keyboard-response","374","311947","0.0-1.0-518.0-0.0","0","0","76478","","196","","","68","57","","","2","57","training","adjacent","BC","2","3","M.jpg","N.jpg","1","1","1","",""
"","feedback","","html-keyboard-response","375","312956","0.0-1.0-519.0-0.0","0","0","76478","","null","","","null","57","","","","","","","","","","","","","","","",""
"","ITI","","html-keyboard-response","376","313964","0.0-1.0-522.0","0","0","76478","","null","","","null","57","","","","","","","","","","","","","","","NaN",""
"","S1","","html-keyboard-response","377","314218","0.0-1.0-524.0","0","0","76478","","null","","","null","58","","","","","","","","","","","","","","","",""
"","ISI","","html-keyboard-response","378","314371","0.0-1.0-525.0","0","0","76478","","null","","","null","58","NaN","","","","","","","","","","","","","","",""
"","S2","","html-keyboard-response","379","314627","0.0-1.0-526.0","0","0","76478","","null","","","null","58","","NaN","","","","","","","","","","","","","",""
"","response","","html-keyboard-response","380","314833","0.0-1.0-527.0-0.0","0","0","76478","","203","","","75","58","","","2","58","training","adjacent","DC","4","3","P.jpg","N.jpg","0","0","1","",""
"","feedback","","html-keyboard-response","381","315841","0.0-1.0-528.0-0.0","0","0","76478","","null","","","null","58","","","","","","","","","","","","","","","",""
"","ITI","","html-keyboard-response","382","316847","0.0-1.0-531.0","0","0","76478","","null","","","null","58","","","","","","","","","","","","","","","NaN",""
"","S1","","html-keyboard-response","383","317100","0.0-1.0-533.0","0","0","76478","","null","","","null","59","","","","","","","","","","","","","","","",""
"","ISI","","html-keyboard-response","384","317261","0.0-1.0-534.0","0","0","76478","","null","","","null","59","NaN","","","","","","","","","","","","","","",""
"","S2","","html-keyboard-response","385","317518","0.0-1.0-535.0","0","0","76478","","null","","","null","59","","NaN","","","","","","","","","","","","","",""
"","response","","html-keyboard-response","386","317630","0.0-1.0-536.0-0.0","0","0","76478","","109","","","68","59","","","2","59","training","adjacent","BA","2","1","M.jpg","O.jpg","1","0","0","",""
"","feedback","","html-keyboard-response","387","318638","0.0-1.0-537.0-0.0","0","0","76478","","null","","","null","59","","","","","","","","","","","","","","","",""
"","time_out","","html-keyboard-response","388","320646","0.0-1.0-539.0-0.0","0","0","76478","","null","","","null","59","","","","","","","","","","","","","","","",""
"","ITI","","html-keyboard-response","389","321655","0.0-1.0-540.0","0","0","76478","","null","","","null","59","","","","","","","","","","","","","","","NaN",""
"","S1","","html-keyboard-response","390","321914","0.0-1.0-542.0","0","0","76478","","null","","","null","60","","","","","","","","","","","","","","","",""
"","ISI","","html-keyboard-response","391","322069","0.0-1.0-543.0","0","0","76478","","null","","","null","60","NaN","","","","","","","","","","","","","","",""
"","S2","","html-keyboard-response","392","322332","0.0-1.0-544.0","0","0","76478","","null","","","null","60","","NaN","","","","","","","","","","","","","",""
"","response","","html-keyboard-response","393","322357","0.0-1.0-545.0-0.0","0","0","76478","","24","","","75","60","","","2","60","training","adjacent","CD","3","4","N.jpg","P.jpg","0","1","0","",""
"","feedback","","html-keyboard-response","394","323365","0.0-1.0-546.0-0.0","0","0","76478","","null","","","null","60","","","","","","","","","","","","","","","",""
"","time_out","","html-keyboard-response","395","325372","0.0-1.0-548.0-0.0","0","0","76478","","null","","","null","60","","","","","","","","","","","","","","","",""
"","ITI","","html-keyboard-response","396","326382","0.0-1.0-549.0","0","0","76478","","null","","","null","60","","","","","","","","","","","","","","","NaN",""
"","S1","","html-keyboard-response","397","326638","0.0-1.0-551.0","0","0","76478","","null","","","null","61","","","","","","","","","","","","","","","",""
"","ISI","","html-keyboard-response","398","326794","0.0-1.0-552.0","0","0","76478","","null","","","null","61","NaN","","","","","","","","","","","","","","",""
"","S2","","html-keyboard-response","399","327056","0.0-1.0-553.0","0","0","76478","","null","","","null","61","","NaN","","","","","","","","","","","","","",""
"","response","","html-keyboard-response","400","327331","0.0-1.0-554.0-0.0","0","0","76478","","273","","","75","61","","","2","61","training","adjacent","EF","5","6","L.jpg","R.jpg","0","1","0","",""
"","feedback","","html-keyboard-response","401","328341","0.0-1.0-555.0-0.0","0","0","76478","","null","","","null","61","","","","","","","","","","","","","","","",""
"","time_out","","html-keyboard-response","402","330351","0.0-1.0-557.0-0.0","0","0","76478","","null","","","null","61","","","","","","","","","","","","","","","",""
"","ITI","","html-keyboard-response","403","331361","0.0-1.0-558.0","0","0","76478","","null","","","null","61","","","","","","","","","","","","","","","NaN",""
"","S1","","html-keyboard-response","404","331626","0.0-1.0-560.0","0","0","76478","","null","","","null","62","","","","","","","","","","","","","","","",""
"","ISI","","html-keyboard-response","405","331786","0.0-1.0-561.0","0","0","76478","","null","","","null","62","NaN","","","","","","","","","","","","","","",""
"","S2","","html-keyboard-response","406","332041","0.0-1.0-562.0","0","0","76478","","null","","","null","62","","NaN","","","","","","","","","","","","","",""
"","response","","html-keyboard-response","407","332064","0.0-1.0-563.0-0.0","0","0","76478","","20","","","68","62","","","2","62","training","adjacent","EF","5","6","L.jpg","R.jpg","1","1","1","",""
"","feedback","","html-keyboard-response","408","333077","0.0-1.0-564.0-0.0","0","0","76478","","null","","","null","62","","","","","","","","","","","","","","","",""
"","ITI","","html-keyboard-response","409","334086","0.0-1.0-567.0","0","0","76478","","null","","","null","62","","","","","","","","","","","","","","","NaN",""
"","S1","","html-keyboard-response","410","334340","0.0-1.0-569.0","0","0","76478","","null","","","null","63","","","","","","","","","","","","","","","",""
"","ISI","","html-keyboard-response","411","334501","0.0-1.0-570.0","0","0","76478","","null","","","null","63","NaN","","","","","","","","","","","","","","",""
"","S2","","html-keyboard-response","412","334762","0.0-1.0-571.0","0","0","76478","","null","","","null","63","","NaN","","","","","","","","","","","","","",""
"","response","","html-keyboard-response","413","335006","0.0-1.0-572.0-0.0","0","0","76478","","242","","","68","63","","","2","63","training","adjacent","GF","7","6","Q.jpg","R.jpg","1","0","0","",""
"","feedback","","html-keyboard-response","414","336019","0.0-1.0-573.0-0.0","0","0","76478","","null","","","null","63","","","","","","","","","","","","","","","",""
"","time_out","","html-keyboard-response","415","338023","0.0-1.0-575.0-0.0","0","0","76478","","null","","","null","63","","","","","","","","","","","","","","","",""
"","ITI","","html-keyboard-response","416","339031","0.0-1.0-576.0","0","0","76478","","null","","","null","63","","","","","","","","","","","","","","","NaN",""
"","S1","","html-keyboard-response","417","339291","0.0-1.0-578.0","0","0","76478","","null","","","null","64","","","","","","","","","","","","","","","",""
"","ISI","","html-keyboard-response","418","339446","0.0-1.0-579.0","0","0","76478","","null","","","null","64","NaN","","","","","","","","","","","","","","",""
"","S2","","html-keyboard-response","419","339702","0.0-1.0-580.0","0","0","76478","","null","","","null","64","","NaN","","","","","","","","","","","","","",""
"","response","","html-keyboard-response","420","339762","0.0-1.0-581.0-0.0","0","0","76478","","58","","","75","64","","","2","64","training","adjacent","BA","2","1","M.jpg","O.jpg","0","0","1","",""
"","feedback","","html-keyboard-response","421","340771","0.0-1.0-582.0-0.0","0","0","76478","","null","","","null","64","","","","","","","","","","","","","","","",""
"","ITI","","html-keyboard-response","422","341783","0.0-1.0-585.0","0","0","76478","","null","","","null","64","","","","","","","","","","","","","","","NaN",""
"","S1","","html-keyboard-response","423","342042","0.0-1.0-587.0","0","0","76478","","null","","","null","65","","","","","","","","","","","","","","","",""
"","ISI","","html-keyboard-response","424","342197","0.0-1.0-588.0","0","0","76478","","null","","","null","65","NaN","","","","","","","","","","","","","","",""
"","S2","","html-keyboard-response","425","342454","0.0-1.0-589.0","0","0","76478","","null","","","null","65","","NaN","","","","","","","","","","","","","",""
"","response","","html-keyboard-response","426","343537","0.0-1.0-590.0-0.0","0","0","76478","","1080","","","75","65","","","2","65","training","adjacent","ED","5","4","L.jpg","P.jpg","0","0","1","",""
"","feedback","","html-keyboard-response","427","344548","0.0-1.0-591.0-0.0","0","0","76478","","null","","","null","65","","","","","","","","","","","","","","","",""
"","ITI","","html-keyboard-response","428","345552","0.0-1.0-594.0","0","0","76478","","null","","","null","65","","","","","","","","","","","","","","","NaN",""
"","S1","","html-keyboard-response","429","345808","0.0-1.0-596.0","0","0","76478","","null","","","null","66","","","","","","","","","","","","","","","",""
"","ISI","","html-keyboard-response","430","345968","0.0-1.0-597.0","0","0","76478","","null","","","null","66","NaN","","","","","","","","","","","","","","",""
"","S2","","html-keyboard-response","431","346230","0.0-1.0-598.0","0","0","76478","","null","","","null","66","","NaN","","","","","","","","","","","","","",""
"","response","","html-keyboard-response","432","346799","0.0-1.0-599.0-0.0","0","0","76478","","567","","","75","66","","","2","66","training","adjacent","EF","5","6","L.jpg","R.jpg","0","1","0","",""
"","feedback","","html-keyboard-response","433","347807","0.0-1.0-600.0-0.0","0","0","76478","","null","","","null","66","","","","","","","","","","","","","","","",""
"","time_out","","html-keyboard-response","434","349812","0.0-1.0-602.0-0.0","0","0","76478","","null","","","null","66","","","","","","","","","","","","","","","",""
"","ITI","","html-keyboard-response","435","350821","0.0-1.0-603.0","0","0","76478","","null","","","null","66","","","","","","","","","","","","","","","NaN",""
"","S1","","html-keyboard-response","436","351080","0.0-1.0-605.0","0","0","76478","","null","","","null","67","","","","","","","","","","","","","","","",""
"","ISI","","html-keyboard-response","437","351233","0.0-1.0-606.0","0","0","76478","","null","","","null","67","NaN","","","","","","","","","","","","","","",""
"","S2","","html-keyboard-response","438","351489","0.0-1.0-607.0","0","0","76478","","null","","","null","67","","NaN","","","","","","","","","","","","","",""
"","response","","html-keyboard-response","439","352106","0.0-1.0-608.0-0.0","0","0","76478","","614","","","68","67","","","2","67","training","adjacent","FG","6","7","R.jpg","Q.jpg","1","1","1","",""
"","feedback","","html-keyboard-response","440","353118","0.0-1.0-609.0-0.0","0","0","76478","","null","","","null","67","","","","","","","","","","","","","","","",""
"","ITI","","html-keyboard-response","441","354125","0.0-1.0-612.0","0","0","76478","","null","","","null","67","","","","","","","","","","","","","","","NaN",""
"","S1","","html-keyboard-response","442","354379","0.0-1.0-614.0","0","0","76478","","null","","","null","68","","","","","","","","","","","","","","","",""
"","ISI","","html-keyboard-response","443","354534","0.0-1.0-615.0","0","0","76478","","null","","","null","68","NaN","","","","","","","","","","","","","","",""
"","S2","","html-keyboard-response","444","354794","0.0-1.0-616.0","0","0","76478","","null","","","null","68","","NaN","","","","","","","","","","","","","",""
"","response","","html-keyboard-response","445","355026","0.0-1.0-617.0-0.0","0","0","76478","","229","","","68","68","","","2","68","training","adjacent","DC","4","3","P.jpg","N.jpg","1","0","0","",""
"","feedback","","html-keyboard-response","446","356035","0.0-1.0-618.0-0.0","0","0","76478","","null","","","null","68","","","","","","","","","","","","","","","",""
"","time_out","","html-keyboard-response","447","358039","0.0-1.0-620.0-0.0","0","0","76478","","null","","","null","68","","","","","","","","","","","","","","","",""
"","ITI","","html-keyboard-response","448","359049","0.0-1.0-621.0","0","0","76478","","null","","","null","68","","","","","","","","","","","","","","","NaN",""
"","S1","","html-keyboard-response","449","359307","0.0-1.0-623.0","0","0","76478","","null","","","null","69","","","","","","","","","","","","","","","",""
"","ISI","","html-keyboard-response","450","359464","0.0-1.0-624.0","0","0","76478","","null","","","null","69","NaN","","","","","","","","","","","","","","",""
"","S2","","html-keyboard-response","451","359723","0.0-1.0-625.0","0","0","76478","","null","","","null","69","","NaN","","","","","","","","","","","","","",""
"","response","","html-keyboard-response","452","359731","0.0-1.0-626.0-0.0","0","0","76478","","4","","","75","69","","","2","69","training","adjacent","DE","4","5","P.jpg","L.jpg","0","1","0","",""
"","feedback","","html-keyboard-response","453","360741","0.0-1.0-627.0-0.0","0","0","76478","","null","","","null","69","","","","","","","","","","","","","","","",""
"","time_out","","html-keyboard-response","454","362745","0.0-1.0-629.0-0.0","0","0","76478","","null","","","null","69","","","","","","","","","","","","","","","",""
"","ITI","","html-keyboard-response","455","363755","0.0-1.0-630.0","0","0","76478","","null","","","null","69","","","","","","","","","","","","","","","NaN",""
"","S1","","html-keyboard-response","456","364017","0.0-1.0-632.0","0","0","76478","","null","","","null","70","","","","","","","","","","","","","","","",""
"","ISI","","html-keyboard-response","457","364170","0.0-1.0-633.0","0","0","76478","","90","","","68","70","d","","","","","","","","","","","","","","",""
"","S2","","html-keyboard-response","458","364424","0.0-1.0-634.0","0","0","76478","","null","","","null","70","","NaN","","","","","","","","","","","","","",""
"","response","","html-keyboard-response","459","364712","0.0-1.0-635.0-0.0","0","0","76478","","286","","","68","70","","","2","70","training","adjacent","AB","1","2","O.jpg","M.jpg","1","1","1","",""
"","feedback","","html-keyboard-response","460","365718","0.0-1.0-636.0-0.0","0","0","76478","","null","","","null","70","","","","","","","","","","","","","","","",""
"","ITI","","html-keyboard-response","461","366722","0.0-1.0-639.0","0","0","76478","","null","","","null","70","","","","","","","","","","","","","","","NaN",""
"","S1","","html-keyboard-response","462","366979","0.0-1.0-641.0","0","0","76478","","null","","","null","71","","","","","","","","","","","","","","","",""
"","ISI","","html-keyboard-response","463","367133","0.0-1.0-642.0","0","0","76478","","null","","","null","71","NaN","","","","","","","","","","","","","","",""
"","S2","","html-keyboard-response","464","367394","0.0-1.0-643.0","0","0","76478","","null","","","null","71","","NaN","","","","","","","","","","","","","",""
"","response","","html-keyboard-response","465","367945","0.0-1.0-644.0-0.0","0","0","76478","","548","","","68","71","","","2","71","training","adjacent","DC","4","3","P.jpg","N.jpg","1","0","0","",""
"","feedback","","html-keyboard-response","466","368953","0.0-1.0-645.0-0.0","0","0","76478","","null","","","null","71","","","","","","","","","","","","","","","",""
"","time_out","","html-keyboard-response","467","370959","0.0-1.0-647.0-0.0","0","0","76478","","null","","","null","71","","","","","","","","","","","","","","","",""
"","ITI","","html-keyboard-response","468","371969","0.0-1.0-648.0","0","0","76478","","null","","","null","71","","","","","","","","","","","","","","","NaN",""
"","S1","","html-keyboard-response","469","372222","0.0-1.0-650.0","0","0","76478","","null","","","null","72","","","","","","","","","","","","","","","",""
"","ISI","","html-keyboard-response","470","372378","0.0-1.0-651.0","0","0","76478","","null","","","null","72","NaN","","","","","","","","","","","","","","",""
"","S2","","html-keyboard-response","471","372641","0.0-1.0-652.0","0","0","76478","","null","","","null","72","","NaN","","","","","","","","","","","","","",""
"","response","","html-keyboard-response","472","372867","0.0-1.0-653.0-0.0","0","0","76478","","223","","","75","72","","","2","72","training","adjacent","FE","6","5","R.jpg","L.jpg","0","0","1","",""
"","feedback","","html-keyboard-response","473","373880","0.0-1.0-654.0-0.0","0","0","76478","","null","","","null","72","","","","","","","","","","","","","","","",""
"","ITI","","html-keyboard-response","474","374889","0.0-1.0-657.0","0","0","76478","","null","","","null","72","","","","","","","","","","","","","","","NaN",""
"","S1","","html-keyboard-response","475","375147","0.0-1.0-659.0","0","0","76478","","null","","","null","73","","","","","","","","","","","","","","","",""
"","ISI","","html-keyboard-response","476","375303","0.0-1.0-660.0","0","0","76478","","null","","","null","73","NaN","","","","","","","","","","","","","","",""
"","S2","","html-keyboard-response","477","375557","0.0-1.0-661.0","0","0","76478","","null","","","null","73","","NaN","","","","","","","","","","","","","",""
"","response","","html-keyboard-response","478","375793","0.0-1.0-662.0-0.0","0","0","76478","","233","","","68","73","","","2","73","training","adjacent","GF","7","6","Q.jpg","R.jpg","1","0","0","",""
"","feedback","","html-keyboard-response","479","376797","0.0-1.0-663.0-0.0","0","0","76478","","null","","","null","73","","","","","","","","","","","","","","","",""
"","time_out","","html-keyboard-response","480","378811","0.0-1.0-665.0-0.0","0","0","76478","","null","","","null","73","","","","","","","","","","","","","","","",""
"","ITI","","html-keyboard-response","481","379820","0.0-1.0-666.0","0","0","76478","","null","","","null","73","","","","","","","","","","","","","","","NaN",""
"","S1","","html-keyboard-response","482","380075","0.0-1.0-668.0","0","0","76478","","null","","","null","74","","","","","","","","","","","","","","","",""
"","ISI","","html-keyboard-response","483","380229","0.0-1.0-669.0","0","0","76478","","null","","","null","74","NaN","","","","","","","","","","","","","","",""
"","S2","","html-keyboard-response","484","380483","0.0-1.0-670.0","0","0","76478","","null","","","null","74","","NaN","","","","","","","","","","","","","",""
"","response","","html-keyboard-response","485","380762","0.0-1.0-671.0-0.0","0","0","76478","","275","","","75","74","","","2","74","training","adjacent","FE","6","5","R.jpg","L.jpg","0","0","1","",""
"","feedback","","html-keyboard-response","486","381769","0.0-1.0-672.0-0.0","0","0","76478","","null","","","null","74","","","","","","","","","","","","","","","",""
"","ITI","","html-keyboard-response","487","382773","0.0-1.0-675.0","0","0","76478","","null","","","null","74","","","","","","","","","","","","","","","NaN",""
"","S1","","html-keyboard-response","488","383034","0.0-1.0-677.0","0","0","76478","","null","","","null","75","","","","","","","","","","","","","","","",""
"","ISI","","html-keyboard-response","489","383200","0.0-1.0-678.0","0","0","76478","","null","","","null","75","NaN","","","","","","","","","","","","","","",""
"","S2","","html-keyboard-response","490","383455","0.0-1.0-679.0","0","0","76478","","null","","","null","75","","NaN","","","","","","","","","","","","","",""
"","response","","html-keyboard-response","491","383863","0.0-1.0-680.0-0.0","0","0","76478","","405","","","68","75","","","2","75","training","adjacent","CD","3","4","N.jpg","P.jpg","1","1","1","",""
"","feedback","","html-keyboard-response","492","384870","0.0-1.0-681.0-0.0","0","0","76478","","null","","","null","75","","","","","","","","","","","","","","","",""
"","ITI","","html-keyboard-response","493","385877","0.0-1.0-684.0","0","0","76478","","null","","","null","75","","","","","","","","","","","","","","","NaN",""
"","S1","","html-keyboard-response","494","386134","0.0-1.0-686.0","0","0","76478","","null","","","null","76","","","","","","","","","","","","","","","",""
"","ISI","","html-keyboard-response","495","386290","0.0-1.0-687.0","0","0","76478","","null","","","null","76","NaN","","","","","","","","","","","","","","",""
"","S2","","html-keyboard-response","496","386550","0.0-1.0-688.0","0","0","76478","","null","","","null","76","","NaN","","","","","","","","","","","","","",""
"","response","","html-keyboard-response","497","386874","0.0-1.0-689.0-0.0","0","0","76478","","321","","","75","76","","","2","76","training","adjacent","CD","3","4","N.jpg","P.jpg","0","1","0","",""
"","feedback","","html-keyboard-response","498","387881","0.0-1.0-690.0-0.0","0","0","76478","","null","","","null","76","","","","","","","","","","","","","","","",""
"","time_out","","html-keyboard-response","499","389886","0.0-1.0-692.0-0.0","0","0","76478","","null","","","null","76","","","","","","","","","","","","","","","",""
"","ITI","","html-keyboard-response","500","390889","0.0-1.0-693.0","0","0","76478","","null","","","null","76","","","","","","","","","","","","","","","NaN",""
"","S1","","html-keyboard-response","501","391146","0.0-1.0-695.0","0","0","76478","","null","","","null","77","","","","","","","","","","","","","","","",""
"","ISI","","html-keyboard-response","502","391301","0.0-1.0-696.0","0","0","76478","","null","","","null","77","NaN","","","","","","","","","","","","","","",""
"","S2","","html-keyboard-response","503","391557","0.0-1.0-697.0","0","0","76478","","null","","","null","77","","NaN","","","","","","","","","","","","","",""
"","response","","html-keyboard-response","504","391831","0.0-1.0-698.0-0.0","0","0","76478","","272","","","75","77","","","2","77","training","adjacent","CB","3","2","N.jpg","M.jpg","0","0","1","",""
"","feedback","","html-keyboard-response","505","392842","0.0-1.0-699.0-0.0","0","0","76478","","null","","","null","77","","","","","","","","","","","","","","","",""
"","ITI","","html-keyboard-response","506","393847","0.0-1.0-702.0","0","0","76478","","null","","","null","77","","","","","","","","","","","","","","","NaN",""
"","S1","","html-keyboard-response","507","394109","0.0-1.0-704.0","0","0","76478","","null","","","null","78","","","","","","","","","","","","","","","",""
"","ISI","","html-keyboard-response","508","394269","0.0-1.0-705.0","0","0","76478","","null","","","null","78","NaN","","","","","","","","","","","","","","",""
"","S2","","html-keyboard-response","509","394525","0.0-1.0-706.0","0","0","76478","","null","","","null","78","","NaN","","","","","","","","","","","","","",""
"","response","","html-keyboard-response","510","394933","0.0-1.0-707.0-0.0","0","0","76478","","405","","","75","78","","","2","78","training","adjacent","DE","4","5","P.jpg","L.jpg","0","1","0","",""
"","feedback","","html-keyboard-response","511","395942","0.0-1.0-708.0-0.0","0","0","76478","","null","","","null","78","","","","","","","","","","","","","","","",""
"","time_out","","html-keyboard-response","512","397948","0.0-1.0-710.0-0.0","0","0","76478","","null","","","null","78","","","","","","","","","","","","","","","",""
"","ITI","","html-keyboard-response","513","398963","0.0-1.0-711.0","0","0","76478","","null","","","null","78","","","","","","","","","","","","","","","NaN",""
"","S1","","html-keyboard-response","514","399223","0.0-1.0-713.0","0","0","76478","","null","","","null","79","","","","","","","","","","","","","","","",""
"","ISI","","html-keyboard-response","515","399378","0.0-1.0-714.0","0","0","76478","","null","","","null","79","NaN","","","","","","","","","","","","","","",""
"","S2","","html-keyboard-response","516","399633","0.0-1.0-715.0","0","0","76478","","null","","","null","79","","NaN","","","","","","","","","","","","","",""
"","response","","html-keyboard-response","517","399674","0.0-1.0-716.0-0.0","0","0","76478","","39","","","68","79","","","2","79","training","adjacent","AB","1","2","O.jpg","M.jpg","1","1","1","",""
"","feedback","","html-keyboard-response","518","400681","0.0-1.0-717.0-0.0","0","0","76478","","null","","","null","79","","","","","","","","","","","","","","","",""
"","ITI","","html-keyboard-response","519","401692","0.0-1.0-720.0","0","0","76478","","null","","","null","79","","","","","","","","","","","","","","","NaN",""
"","S1","","html-keyboard-response","520","401946","0.0-1.0-722.0","0","0","76478","","null","","","null","80","","","","","","","","","","","","","","","",""
"","ISI","","html-keyboard-response","521","402102","0.0-1.0-723.0","0","0","76478","","null","","","null","80","NaN","","","","","","","","","","","","","","",""
"","S2","","html-keyboard-response","522","402370","0.0-1.0-724.0","0","0","76478","","null","","","null","80","","NaN","","","","","","","","","","","","","",""
"","response","","html-keyboard-response","523","403394","0.0-1.0-725.0-0.0","0","0","76478","","1021","","","68","80","","","2","80","training","adjacent","BA","2","1","M.jpg","O.jpg","1","0","0","",""
"","feedback","","html-keyboard-response","524","404399","0.0-1.0-726.0-0.0","0","0","76478","","null","","","null","80","","","","","","","","","","","","","","","",""
"","time_out","","html-keyboard-response","525","406413","0.0-1.0-728.0-0.0","0","0","76478","","null","","","null","80","","","","","","","","","","","","","","","",""
"","ITI","","html-keyboard-response","526","407418","0.0-1.0-729.0","0","0","76478","","null","","","null","80","","","","","","","","","","","","","","","NaN",""
"","S1","","html-keyboard-response","527","407682","0.0-1.0-731.0","0","0","76478","","null","","","null","81","","","","","","","","","","","","","","","",""
"","ISI","","html-keyboard-response","528","407835","0.0-1.0-732.0","0","0","76478","","null","","","null","81","NaN","","","","","","","","","","","","","","",""
"","S2","","html-keyboard-response","529","408096","0.0-1.0-733.0","0","0","76478","","null","","","null","81","","NaN","","","","","","","","","","","","","",""
"","response","","html-keyboard-response","530","408318","0.0-1.0-734.0-0.0","0","0","76478","","219","","","75","81","","","2","81","training","adjacent","AB","1","2","O.jpg","M.jpg","0","1","0","",""
"","feedback","","html-keyboard-response","531","409335","0.0-1.0-735.0-0.0","0","0","76478","","null","","","null","81","","","","","","","","","","","","","","","",""
"","time_out","","html-keyboard-response","532","411340","0.0-1.0-737.0-0.0","0","0","76478","","null","","","null","81","","","","","","","","","","","","","","","",""
"","ITI","","html-keyboard-response","533","412348","0.0-1.0-738.0","0","0","76478","","null","","","null","81","","","","","","","","","","","","","","","NaN",""
"","S1","","html-keyboard-response","534","412607","0.0-1.0-740.0","0","0","76478","","null","","","null","82","","","","","","","","","","","","","","","",""
"","ISI","","html-keyboard-response","535","412763","0.0-1.0-741.0","0","0","76478","","null","","","null","82","NaN","","","","","","","","","","","","","","",""
"","S2","","html-keyboard-response","536","413021","0.0-1.0-742.0","0","0","76478","","null","","","null","82","","NaN","","","","","","","","","","","","","",""
"","response","","html-keyboard-response","537","413295","0.0-1.0-743.0-0.0","0","0","76478","","271","","","68","82","","","2","82","training","adjacent","DC","4","3","P.jpg","N.jpg","1","0","0","",""
"","feedback","","html-keyboard-response","538","414303","0.0-1.0-744.0-0.0","0","0","76478","","null","","","null","82","","","","","","","","","","","","","","","",""
"","time_out","","html-keyboard-response","539","416309","0.0-1.0-746.0-0.0","0","0","76478","","null","","","null","82","","","","","","","","","","","","","","","",""
"","ITI","","html-keyboard-response","540","417313","0.0-1.0-747.0","0","0","76478","","null","","","null","82","","","","","","","","","","","","","","","NaN",""
"","S1","","html-keyboard-response","541","417567","0.0-1.0-749.0","0","0","76478","","null","","","null","83","","","","","","","","","","","","","","","",""
"","ISI","","html-keyboard-response","542","417721","0.0-1.0-750.0","0","0","76478","","null","","","null","83","NaN","","","","","","","","","","","","","","",""
"","S2","","html-keyboard-response","543","417981","0.0-1.0-751.0","0","0","76478","","null","","","null","83","","NaN","","","","","","","","","","","","","",""
"","response","","html-keyboard-response","544","418183","0.0-1.0-752.0-0.0","0","0","76478","","200","","","68","83","","","2","83","training","adjacent","EF","5","6","L.jpg","R.jpg","1","1","1","",""
"","feedback","","html-keyboard-response","545","419191","0.0-1.0-753.0-0.0","0","0","76478","","null","","","null","83","","","","","","","","","","","","","","","",""
"","ITI","","html-keyboard-response","546","420203","0.0-1.0-756.0","0","0","76478","","null","","","null","83","","","","","","","","","","","","","","","NaN",""
"","S1","","html-keyboard-response","547","420464","0.0-1.0-758.0","0","0","76478","","null","","","null","84","","","","","","","","","","","","","","","",""
"","ISI","","html-keyboard-response","548","420619","0.0-1.0-759.0","0","0","76478","","null","","","null","84","NaN","","","","","","","","","","","","","","",""
"","S2","","html-keyboard-response","549","420880","0.0-1.0-760.0","0","0","76478","","null","","","null","84","","NaN","","","","","","","","","","","","","",""
"","response","","html-keyboard-response","550","421200","0.0-1.0-761.0-0.0","0","0","76478","","317","","","75","84","","","2","84","training","adjacent","ED","5","4","L.jpg","P.jpg","0","0","1","",""
"","feedback","","html-keyboard-response","551","422204","0.0-1.0-762.0-0.0","0","0","76478","","null","","","null","84","","","","","","","","","","","","","","","",""
"","ITI","","html-keyboard-response","552","423210","0.0-1.0-765.0","0","0","76478","","null","","","null","84","","","","","","","","","","","","","","","NaN",""
"","S1","","html-keyboard-response","553","423471","0.0-1.0-767.0","0","0","76478","","null","","","null","85","","","","","","","","","","","","","","","",""
"","ISI","","html-keyboard-response","554","423627","0.0-1.0-768.0","0","0","76478","","null","","","null","85","NaN","","","","","","","","","","","","","","",""
"","S2","","html-keyboard-response","555","423885","0.0-1.0-769.0","0","0","76478","","null","","","null","85","","NaN","","","","","","","","","","","","","",""
"","response","","html-keyboard-response","556","424091","0.0-1.0-770.0-0.0","0","0","76478","","203","","","75","85","","","2","85","training","adjacent","GF","7","6","Q.jpg","R.jpg","0","0","1","",""
"","feedback","","html-keyboard-response","557","425098","0.0-1.0-771.0-0.0","0","0","76478","","null","","","null","85","","","","","","","","","","","","","","","",""
"","ITI","","html-keyboard-response","558","426107","0.0-1.0-774.0","0","0","76478","","null","","","null","85","","","","","","","","","","","","","","","NaN",""
"","S1","","html-keyboard-response","559","426366","0.0-1.0-776.0","0","0","76478","","null","","","null","86","","","","","","","","","","","","","","","",""
"","ISI","","html-keyboard-response","560","426520","0.0-1.0-777.0","0","0","76478","","null","","","null","86","NaN","","","","","","","","","","","","","","",""
"","S2","","html-keyboard-response","561","426774","0.0-1.0-778.0","0","0","76478","","null","","","null","86","","NaN","","","","","","","","","","","","","",""
"","response","","html-keyboard-response","562","427081","0.0-1.0-779.0-0.0","0","0","76478","","304","","","75","86","","","2","86","training","adjacent","CB","3","2","N.jpg","M.jpg","0","0","1","",""
"","feedback","","html-keyboard-response","563","428091","0.0-1.0-780.0-0.0","0","0","76478","","null","","","null","86","","","","","","","","","","","","","","","",""
"","ITI","","html-keyboard-response","564","429101","0.0-1.0-783.0","0","0","76478","","null","","","null","86","","","","","","","","","","","","","","","NaN",""
"","S1","","html-keyboard-response","565","429354","0.0-1.0-785.0","0","0","76478","","null","","","null","87","","","","","","","","","","","","","","","",""
"","ISI","","html-keyboard-response","566","429509","0.0-1.0-786.0","0","0","76478","","null","","","null","87","NaN","","","","","","","","","","","","","","",""
"","S2","","html-keyboard-response","567","429773","0.0-1.0-787.0","0","0","76478","","null","","","null","87","","NaN","","","","","","","","","","","","","",""
"","response","","html-keyboard-response","568","430184","0.0-1.0-788.0-0.0","0","0","76478","","409","","","75","87","","","2","87","training","adjacent","CD","3","4","N.jpg","P.jpg","0","1","0","",""
"","feedback","","html-keyboard-response","569","431197","0.0-1.0-789.0-0.0","0","0","76478","","null","","","null","87","","","","","","","","","","","","","","","",""
"","time_out","","html-keyboard-response","570","433207","0.0-1.0-791.0-0.0","0","0","76478","","null","","","null","87","","","","","","","","","","","","","","","",""
"","ITI","","html-keyboard-response","571","434219","0.0-1.0-792.0","0","0","76478","","null","","","null","87","","","","","","","","","","","","","","","NaN",""
"","S1","","html-keyboard-response","572","434480","0.0-1.0-794.0","0","0","76478","","null","","","null","88","","","","","","","","","","","","","","","",""
"","ISI","","html-keyboard-response","573","434636","0.0-1.0-795.0","0","0","76478","","null","","","null","88","NaN","","","","","","","","","","","","","","",""
"","S2","","html-keyboard-response","574","434894","0.0-1.0-796.0","0","0","76478","","null","","","null","88","","NaN","","","","","","","","","","","","","",""
"","response","","html-keyboard-response","575","435151","0.0-1.0-797.0-0.0","0","0","76478","","255","","","75","88","","","2","88","training","adjacent","CB","3","2","N.jpg","M.jpg","0","0","1","",""
"","feedback","","html-keyboard-response","576","436155","0.0-1.0-798.0-0.0","0","0","76478","","null","","","null","88","","","","","","","","","","","","","","","",""
"","ITI","","html-keyboard-response","577","437162","0.0-1.0-801.0","0","0","76478","","null","","","null","88","","","","","","","","","","","","","","","NaN",""
"","S1","","html-keyboard-response","578","437424","0.0-1.0-803.0","0","0","76478","","null","","","null","89","","","","","","","","","","","","","","","",""
"","ISI","","html-keyboard-response","579","437580","0.0-1.0-804.0","0","0","76478","","null","","","null","89","NaN","","","","","","","","","","","","","","",""
"","S2","","html-keyboard-response","580","437834","0.0-1.0-805.0","0","0","76478","","null","","","null","89","","NaN","","","","","","","","","","","","","",""
"","response","","html-keyboard-response","581","438151","0.0-1.0-806.0-0.0","0","0","76478","","314","","","68","89","","","2","89","training","adjacent","FG","6","7","R.jpg","Q.jpg","1","1","1","",""
"","feedback","","html-keyboard-response","582","439160","0.0-1.0-807.0-0.0","0","0","76478","","null","","","null","89","","","","","","","","","","","","","","","",""
"","ITI","","html-keyboard-response","583","440175","0.0-1.0-810.0","0","0","76478","","null","","","null","89","","","","","","","","","","","","","","","NaN",""
