"success","ttype","start_time","trial_type","trial_index","time_elapsed","internal_node_id","warning","missed_checkup","PID","view_history","rt","responses","repeat_instructions","key_press","index","keypress_isi","keypress_S2","block","trial_num","phase","group_type","pair_type","S1_stim","S2_stim","S1_img","S2_img","S1_chosen","S1_higher","accuracy","keypress_iti","total_bonus_tally"
"true","full_screen","d04162023hr0957","fullscreen","0","10055","0.0-0.0","0","0","69770","","","","","","","","","","","","","","","","","","","","","",""
"","instructions","","instructions","1","44554","0.0-1.0-0.0-0.0","0","0","69770","[{""page_index"":0,""viewing_time"":10535},{""page_index"":1,""viewing_time"":14241},{""page_index"":2,""viewing_time"":7557},{""page_index"":3,""viewing_time"":2162}]","34496","","","","","","","","","","","","","","","","","","","",""
"","comprehension_check","","survey-multi-choice","2","74676","0.0-1.0-0.0-1.0","0","0","69770","","30115","{""Q0"":""True"",""Q1"":""D"",""Q2"":""Once the second image appears and while the screen 'MAKE A CHOICE' is shown"",""Q3"":""Green mark"",""Q4"":""either D or K""}","0","","","","","","","","","","","","","","","","","",""
"","start_exp","","html-keyboard-response","3","76794","0.0-1.0-1.0","0","0","69770","","2113","","","32","","","","","","","","","","","","","","","","",""
"","S1","","html-keyboard-response","4","77048","0.0-1.0-2.0","0","0","69770","","null","","","null","0","","","","","","","","","","","","","","","",""
"","ISI","","html-keyboard-response","5","78051","0.0-1.0-3.0","0","0","69770","","null","","","null","0","NaN","","","","","","","","","","","","","","",""
"","S2","","html-keyboard-response","6","78305","0.0-1.0-4.0","0","0","69770","","null","","","null","0","","NaN","","","","","","","","","","","","","",""
"","response","","html-keyboard-response","7","79764","0.0-1.0-5.0-0.0","0","0","69770","","1456","","","68","0","","","1","0","training","adjacent","AB","1","2","L.jpg","M.jpg","1","1","1","",""
"","feedback","","html-keyboard-response","8","80768","0.0-1.0-6.0-0.0","0","0","69770","","null","","","null","0","","","","","","","","","","","","","","","",""
"","ITI","","html-keyboard-response","9","81771","0.0-1.0-9.0","0","0","69770","","null","","","null","0","","","","","","","","","","","","","","","NaN",""
"","S1","","html-keyboard-response","10","82025","0.0-1.0-11.0","0","0","69770","","null","","","null","1","","","","","","","","","","","","","","","",""
"","ISI","","html-keyboard-response","11","83028","0.0-1.0-12.0","0","0","69770","","null","","","null","1","NaN","","","","","","","","","","","","","","",""
"","S2","","html-keyboard-response","12","83282","0.0-1.0-13.0","0","0","69770","","null","","","null","1","","NaN","","","","","","","","","","","","","",""
"","response","","html-keyboard-response","13","84596","0.0-1.0-14.0-0.0","0","0","69770","","1311","","","75","1","","","1","1","training","adjacent","BA","2","1","M.jpg","L.jpg","0","0","1","",""
"","feedback","","html-keyboard-response","14","85599","0.0-1.0-15.0-0.0","0","0","69770","","null","","","null","1","","","","","","","","","","","","","","","",""
"","ITI","","html-keyboard-response","15","86602","0.0-1.0-18.0","0","0","69770","","null","","","null","1","","","","","","","","","","","","","","","NaN",""
"","S1","","html-keyboard-response","16","86857","0.0-1.0-20.0","0","0","69770","","null","","","null","2","","","","","","","","","","","","","","","",""
"","ISI","","html-keyboard-response","17","87860","0.0-1.0-21.0","0","0","69770","","null","","","null","2","NaN","","","","","","","","","","","","","","",""
"","S2","","html-keyboard-response","18","88114","0.0-1.0-22.0","0","0","69770","","null","","","null","2","","NaN","","","","","","","","","","","","","",""
"","response","","html-keyboard-response","19","89867","0.0-1.0-23.0-0.0","0","0","69770","","null","","","null","2","","","1","2","training","adjacent","ED","5","4","N.jpg","R.jpg","NaN","0","0","",""
"","too_slow_prompt","","html-keyboard-response","20","90870","0.0-1.0-25.0-0.0","1","0","69770","","null","","","null","","","","","","","","","","","","","","","","",""
"","time_out","","html-keyboard-response","21","92873","0.0-1.0-26.0-0.0","0","0","69770","","null","","","null","2","","","","","","","","","","","","","","","",""
"","ITI","","html-keyboard-response","22","93876","0.0-1.0-27.0","0","0","69770","","null","","","null","2","","","","","","","","","","","","","","","NaN",""
"","S1","","html-keyboard-response","23","94130","0.0-1.0-29.0","0","0","69770","","null","","","null","3","","","","","","","","","","","","","","","",""
"","ISI","","html-keyboard-response","24","95133","0.0-1.0-30.0","0","0","69770","","null","","","null","3","NaN","","","","","","","","","","","","","","",""
"","S2","","html-keyboard-response","25","95387","0.0-1.0-31.0","0","0","69770","","null","","","null","3","","NaN","","","","","","","","","","","","","",""
"","response","","html-keyboard-response","26","95923","0.0-1.0-32.0-0.0","0","0","69770","","533","","","75","3","","","1","3","training","adjacent","FE","6","5","O.jpg","N.jpg","0","0","1","",""
"","feedback","","html-keyboard-response","27","96926","0.0-1.0-33.0-0.0","0","0","69770","","null","","","null","3","","","","","","","","","","","","","","","",""
"","ITI","","html-keyboard-response","28","97930","0.0-1.0-36.0","0","0","69770","","null","","","null","3","","","","","","","","","","","","","","","NaN",""
"","S1","","html-keyboard-response","29","98184","0.0-1.0-38.0","0","0","69770","","null","","","null","4","","","","","","","","","","","","","","","",""
"","ISI","","html-keyboard-response","30","99186","0.0-1.0-39.0","0","0","69770","","null","","","null","4","NaN","","","","","","","","","","","","","","",""
"","S2","","html-keyboard-response","31","99440","0.0-1.0-40.0","0","0","69770","","null","","","null","4","","NaN","","","","","","","","","","","","","",""
"","response","","html-keyboard-response","32","100174","0.0-1.0-41.0-0.0","0","0","69770","","731","","","75","4","","","1","4","training","adjacent","FE","6","5","O.jpg","N.jpg","0","0","1","",""
"","feedback","","html-keyboard-response","33","101178","0.0-1.0-42.0-0.0","0","0","69770","","null","","","null","4","","","","","","","","","","","","","","","",""
"","ITI","","html-keyboard-response","34","102181","0.0-1.0-45.0","0","0","69770","","null","","","null","4","","","","","","","","","","","","","","","NaN",""
"","S1","","html-keyboard-response","35","102435","0.0-1.0-47.0","0","0","69770","","null","","","null","5","","","","","","","","","","","","","","","",""
"","ISI","","html-keyboard-response","36","103438","0.0-1.0-48.0","0","0","69770","","null","","","null","5","NaN","","","","","","","","","","","","","","",""
"","S2","","html-keyboard-response","37","103691","0.0-1.0-49.0","0","0","69770","","null","","","null","5","","NaN","","","","","","","","","","","","","",""
"","response","","html-keyboard-response","38","104224","0.0-1.0-50.0-0.0","0","0","69770","","530","","","75","5","","","1","5","training","adjacent","BA","2","1","M.jpg","L.jpg","0","0","1","",""
"","feedback","","html-keyboard-response","39","105228","0.0-1.0-51.0-0.0","0","0","69770","","null","","","null","5","","","","","","","","","","","","","","","",""
"","ITI","","html-keyboard-response","40","106231","0.0-1.0-54.0","0","0","69770","","null","","","null","5","","","","","","","","","","","","","","","NaN",""
"","S1","","html-keyboard-response","41","106487","0.0-1.0-56.0","0","0","69770","","null","","","null","6","","","","","","","","","","","","","","","",""
"","ISI","","html-keyboard-response","42","107491","0.0-1.0-57.0","0","0","69770","","null","","","null","6","NaN","","","","","","","","","","","","","","",""
"","S2","","html-keyboard-response","43","107745","0.0-1.0-58.0","0","0","69770","","null","","","null","6","","NaN","","","","","","","","","","","","","",""
"","response","","html-keyboard-response","44","108452","0.0-1.0-59.0-0.0","0","0","69770","","704","","","68","6","","","1","6","training","adjacent","ED","5","4","N.jpg","R.jpg","1","0","0","",""
"","feedback","","html-keyboard-response","45","109456","0.0-1.0-60.0-0.0","0","0","69770","","null","","","null","6","","","","","","","","","","","","","","","",""
"","time_out","","html-keyboard-response","46","111459","0.0-1.0-62.0-0.0","0","0","69770","","null","","","null","6","","","","","","","","","","","","","","","",""
"","ITI","","html-keyboard-response","47","112462","0.0-1.0-63.0","0","0","69770","","null","","","null","6","","","","","","","","","","","","","","","NaN",""
"","S1","","html-keyboard-response","48","112716","0.0-1.0-65.0","0","0","69770","","null","","","null","7","","","","","","","","","","","","","","","",""
"","ISI","","html-keyboard-response","49","113719","0.0-1.0-66.0","0","0","69770","","null","","","null","7","NaN","","","","","","","","","","","","","","",""
"","S2","","html-keyboard-response","50","113972","0.0-1.0-67.0","0","0","69770","","null","","","null","7","","NaN","","","","","","","","","","","","","",""
"","response","","html-keyboard-response","51","114841","0.0-1.0-68.0-0.0","0","0","69770","","866","","","68","7","","","1","7","training","adjacent","FG","6","7","O.jpg","P.jpg","1","1","1","",""
"","feedback","","html-keyboard-response","52","115844","0.0-1.0-69.0-0.0","0","0","69770","","null","","","null","7","","","","","","","","","","","","","","","",""
"","ITI","","html-keyboard-response","53","116848","0.0-1.0-72.0","0","0","69770","","null","","","null","7","","","","","","","","","","","","","","","NaN",""
"","S1","","html-keyboard-response","54","117102","0.0-1.0-74.0","0","0","69770","","null","","","null","8","","","","","","","","","","","","","","","",""
"","ISI","","html-keyboard-response","55","118105","0.0-1.0-75.0","0","0","69770","","null","","","null","8","NaN","","","","","","","","","","","","","","",""
"","S2","","html-keyboard-response","56","118358","0.0-1.0-76.0","0","0","69770","","null","","","null","8","","NaN","","","","","","","","","","","","","",""
"","response","","html-keyboard-response","57","118916","0.0-1.0-77.0-0.0","0","0","69770","","555","","","68","8","","","1","8","training","adjacent","BC","2","3","M.jpg","Q.jpg","1","1","1","",""
"","feedback","","html-keyboard-response","58","119919","0.0-1.0-78.0-0.0","0","0","69770","","null","","","null","8","","","","","","","","","","","","","","","",""
"","ITI","","html-keyboard-response","59","120922","0.0-1.0-81.0","0","0","69770","","null","","","null","8","","","","","","","","","","","","","","","NaN",""
"","S1","","html-keyboard-response","60","121175","0.0-1.0-83.0","0","0","69770","","null","","","null","9","","","","","","","","","","","","","","","",""
"","ISI","","html-keyboard-response","61","122178","0.0-1.0-84.0","0","0","69770","","null","","","null","9","NaN","","","","","","","","","","","","","","",""
"","S2","","html-keyboard-response","62","122432","0.0-1.0-85.0","0","0","69770","","null","","","null","9","","NaN","","","","","","","","","","","","","",""
"","response","","html-keyboard-response","63","123336","0.0-1.0-86.0-0.0","0","0","69770","","901","","","75","9","","","1","9","training","adjacent","CD","3","4","Q.jpg","R.jpg","0","1","0","",""
"","feedback","","html-keyboard-response","64","124339","0.0-1.0-87.0-0.0","0","0","69770","","null","","","null","9","","","","","","","","","","","","","","","",""
"","time_out","","html-keyboard-response","65","126343","0.0-1.0-89.0-0.0","0","0","69770","","null","","","null","9","","","","","","","","","","","","","","","",""
"","ITI","","html-keyboard-response","66","127346","0.0-1.0-90.0","0","0","69770","","null","","","null","9","","","","","","","","","","","","","","","NaN",""
"","S1","","html-keyboard-response","67","127600","0.0-1.0-92.0","0","0","69770","","null","","","null","10","","","","","","","","","","","","","","","",""
"","ISI","","html-keyboard-response","68","128602","0.0-1.0-93.0","0","0","69770","","null","","","null","10","NaN","","","","","","","","","","","","","","",""
"","S2","","html-keyboard-response","69","128856","0.0-1.0-94.0","0","0","69770","","null","","","null","10","","NaN","","","","","","","","","","","","","",""
"","response","","html-keyboard-response","70","129800","0.0-1.0-95.0-0.0","0","0","69770","","941","","","75","10","","","1","10","training","adjacent","CB","3","2","Q.jpg","M.jpg","0","0","1","",""
"","feedback","","html-keyboard-response","71","130804","0.0-1.0-96.0-0.0","0","0","69770","","null","","","null","10","","","","","","","","","","","","","","","",""
"","ITI","","html-keyboard-response","72","131807","0.0-1.0-99.0","0","0","69770","","null","","","null","10","","","","","","","","","","","","","","","NaN",""
"","S1","","html-keyboard-response","73","132060","0.0-1.0-101.0","0","0","69770","","null","","","null","11","","","","","","","","","","","","","","","",""
"","ISI","","html-keyboard-response","74","133063","0.0-1.0-102.0","0","0","69770","","null","","","null","11","NaN","","","","","","","","","","","","","","",""
"","S2","","html-keyboard-response","75","133317","0.0-1.0-103.0","0","0","69770","","null","","","null","11","","NaN","","","","","","","","","","","","","",""
"","response","","html-keyboard-response","76","134024","0.0-1.0-104.0-0.0","0","0","69770","","704","","","68","11","","","1","11","training","adjacent","DE","4","5","R.jpg","N.jpg","1","1","1","",""
"","feedback","","html-keyboard-response","77","135028","0.0-1.0-105.0-0.0","0","0","69770","","null","","","null","11","","","","","","","","","","","","","","","",""
"","ITI","","html-keyboard-response","78","136031","0.0-1.0-108.0","0","0","69770","","null","","","null","11","","","","","","","","","","","","","","","NaN",""
"","S1","","html-keyboard-response","79","136284","0.0-1.0-110.0","0","0","69770","","null","","","null","12","","","","","","","","","","","","","","","",""
"","ISI","","html-keyboard-response","80","137288","0.0-1.0-111.0","0","0","69770","","null","","","null","12","NaN","","","","","","","","","","","","","","",""
"","S2","","html-keyboard-response","81","137547","0.0-1.0-112.0","0","0","69770","","null","","","null","12","","NaN","","","","","","","","","","","","","",""
"","response","","html-keyboard-response","82","138799","0.0-1.0-113.0-0.0","0","0","69770","","1249","","","68","12","","","1","12","training","adjacent","AB","1","2","L.jpg","M.jpg","1","1","1","",""
"","feedback","","html-keyboard-response","83","139803","0.0-1.0-114.0-0.0","0","0","69770","","null","","","null","12","","","","","","","","","","","","","","","",""
"","ITI","","html-keyboard-response","84","140806","0.0-1.0-117.0","0","0","69770","","null","","","null","12","","","","","","","","","","","","","","","NaN",""
"","S1","","html-keyboard-response","85","141060","0.0-1.0-119.0","0","0","69770","","null","","","null","13","","","","","","","","","","","","","","","",""
"","ISI","","html-keyboard-response","86","142063","0.0-1.0-120.0","0","0","69770","","null","","","null","13","NaN","","","","","","","","","","","","","","",""
"","S2","","html-keyboard-response","87","142317","0.0-1.0-121.0","0","0","69770","","null","","","null","13","","NaN","","","","","","","","","","","","","",""
"","response","","html-keyboard-response","88","142959","0.0-1.0-122.0-0.0","0","0","69770","","639","","","68","13","","","1","13","training","adjacent","DE","4","5","R.jpg","N.jpg","1","1","1","",""
"","feedback","","html-keyboard-response","89","143962","0.0-1.0-123.0-0.0","0","0","69770","","null","","","null","13","","","","","","","","","","","","","","","",""
"","ITI","","html-keyboard-response","90","144965","0.0-1.0-126.0","0","0","69770","","null","","","null","13","","","","","","","","","","","","","","","NaN",""
"","S1","","html-keyboard-response","91","145219","0.0-1.0-128.0","0","0","69770","","null","","","null","14","","","","","","","","","","","","","","","",""
"","ISI","","html-keyboard-response","92","146222","0.0-1.0-129.0","0","0","69770","","null","","","null","14","NaN","","","","","","","","","","","","","","",""
"","S2","","html-keyboard-response","93","146476","0.0-1.0-130.0","0","0","69770","","null","","","null","14","","NaN","","","","","","","","","","","","","",""
"","response","","html-keyboard-response","94","147174","0.0-1.0-131.0-0.0","0","0","69770","","695","","","75","14","","","1","14","training","adjacent","GF","7","6","P.jpg","O.jpg","0","0","1","",""
"","feedback","","html-keyboard-response","95","148178","0.0-1.0-132.0-0.0","0","0","69770","","null","","","null","14","","","","","","","","","","","","","","","",""
"","ITI","","html-keyboard-response","96","149181","0.0-1.0-135.0","0","0","69770","","null","","","null","14","","","","","","","","","","","","","","","NaN",""
"","S1","","html-keyboard-response","97","149435","0.0-1.0-137.0","0","0","69770","","null","","","null","15","","","","","","","","","","","","","","","",""
"","ISI","","html-keyboard-response","98","150438","0.0-1.0-138.0","0","0","69770","","null","","","null","15","NaN","","","","","","","","","","","","","","",""
"","S2","","html-keyboard-response","99","150698","0.0-1.0-139.0","0","0","69770","","null","","","null","15","","NaN","","","","","","","","","","","","","",""
"","response","","html-keyboard-response","100","151429","0.0-1.0-140.0-0.0","0","0","69770","","728","","","75","15","","","1","15","training","adjacent","CB","3","2","Q.jpg","M.jpg","0","0","1","",""
"","feedback","","html-keyboard-response","101","152433","0.0-1.0-141.0-0.0","0","0","69770","","null","","","null","15","","","","","","","","","","","","","","","",""
"","ITI","","html-keyboard-response","102","153436","0.0-1.0-144.0","0","0","69770","","null","","","null","15","","","","","","","","","","","","","","","NaN",""
"","S1","","html-keyboard-response","103","153690","0.0-1.0-146.0","0","0","69770","","null","","","null","16","","","","","","","","","","","","","","","",""
"","ISI","","html-keyboard-response","104","154693","0.0-1.0-147.0","0","0","69770","","null","","","null","16","NaN","","","","","","","","","","","","","","",""
"","S2","","html-keyboard-response","105","154947","0.0-1.0-148.0","0","0","69770","","null","","","null","16","","NaN","","","","","","","","","","","","","",""
"","response","","html-keyboard-response","106","156141","0.0-1.0-149.0-0.0","0","0","69770","","1191","","","75","16","","","1","16","training","adjacent","EF","5","6","N.jpg","O.jpg","0","1","0","",""
"","feedback","","html-keyboard-response","107","157145","0.0-1.0-150.0-0.0","0","0","69770","","null","","","null","16","","","","","","","","","","","","","","","",""
"","time_out","","html-keyboard-response","108","159149","0.0-1.0-152.0-0.0","0","0","69770","","null","","","null","16","","","","","","","","","","","","","","","",""
"","ITI","","html-keyboard-response","109","160152","0.0-1.0-153.0","0","0","69770","","null","","","null","16","","","","","","","","","","","","","","","NaN",""
"","S1","","html-keyboard-response","110","160407","0.0-1.0-155.0","0","0","69770","","null","","","null","17","","","","","","","","","","","","","","","",""
"","ISI","","html-keyboard-response","111","161410","0.0-1.0-156.0","0","0","69770","","null","","","null","17","NaN","","","","","","","","","","","","","","",""
"","S2","","html-keyboard-response","112","161663","0.0-1.0-157.0","0","0","69770","","null","","","null","17","","NaN","","","","","","","","","","","","","",""
"","response","","html-keyboard-response","113","162651","0.0-1.0-158.0-0.0","0","0","69770","","985","","","68","17","","","1","17","training","adjacent","ED","5","4","N.jpg","R.jpg","1","0","0","",""
"","feedback","","html-keyboard-response","114","163654","0.0-1.0-159.0-0.0","0","0","69770","","null","","","null","17","","","","","","","","","","","","","","","",""
"","time_out","","html-keyboard-response","115","165658","0.0-1.0-161.0-0.0","0","0","69770","","null","","","null","17","","","","","","","","","","","","","","","",""
"","ITI","","html-keyboard-response","116","166662","0.0-1.0-162.0","0","0","69770","","null","","","null","17","","","","","","","","","","","","","","","NaN",""
"","S1","","html-keyboard-response","117","166916","0.0-1.0-164.0","0","0","69770","","null","","","null","18","","","","","","","","","","","","","","","",""
"","ISI","","html-keyboard-response","118","167919","0.0-1.0-165.0","0","0","69770","","null","","","null","18","NaN","","","","","","","","","","","","","","",""
"","S2","","html-keyboard-response","119","168173","0.0-1.0-166.0","0","0","69770","","null","","","null","18","","NaN","","","","","","","","","","","","","",""
"","response","","html-keyboard-response","120","169089","0.0-1.0-167.0-0.0","0","0","69770","","913","","","68","18","","","1","18","training","adjacent","BC","2","3","M.jpg","Q.jpg","1","1","1","",""
"","feedback","","html-keyboard-response","121","170093","0.0-1.0-168.0-0.0","0","0","69770","","null","","","null","18","","","","","","","","","","","","","","","",""
"","ITI","","html-keyboard-response","122","171097","0.0-1.0-171.0","0","0","69770","","null","","","null","18","","","","","","","","","","","","","","","NaN",""
"","S1","","html-keyboard-response","123","171351","0.0-1.0-173.0","0","0","69770","","null","","","null","19","","","","","","","","","","","","","","","",""
"","ISI","","html-keyboard-response","124","172354","0.0-1.0-174.0","0","0","69770","","null","","","null","19","NaN","","","","","","","","","","","","","","",""
"","S2","","html-keyboard-response","125","172608","0.0-1.0-175.0","0","0","69770","","null","","","null","19","","NaN","","","","","","","","","","","","","",""
"","response","","html-keyboard-response","126","173440","0.0-1.0-176.0-0.0","0","0","69770","","829","","","75","19","","","1","19","training","adjacent","AB","1","2","L.jpg","M.jpg","0","1","0","",""
"","feedback","","html-keyboard-response","127","174443","0.0-1.0-177.0-0.0","0","0","69770","","null","","","null","19","","","","","","","","","","","","","","","",""
"","time_out","","html-keyboard-response","128","176446","0.0-1.0-179.0-0.0","0","0","69770","","null","","","null","19","","","","","","","","","","","","","","","",""
"","ITI","","html-keyboard-response","129","177450","0.0-1.0-180.0","0","0","69770","","null","","","null","19","","","","","","","","","","","","","","","NaN",""
"","S1","","html-keyboard-response","130","177704","0.0-1.0-182.0","0","0","69770","","null","","","null","20","","","","","","","","","","","","","","","",""
"","ISI","","html-keyboard-response","131","178708","0.0-1.0-183.0","0","0","69770","","null","","","null","20","NaN","","","","","","","","","","","","","","",""
"","S2","","html-keyboard-response","132","178961","0.0-1.0-184.0","0","0","69770","","null","","","null","20","","NaN","","","","","","","","","","","","","",""
"","response","","html-keyboard-response","133","179685","0.0-1.0-185.0-0.0","0","0","69770","","721","","","75","20","","","1","20","training","adjacent","EF","5","6","N.jpg","O.jpg","0","1","0","",""
"","feedback","","html-keyboard-response","134","180690","0.0-1.0-186.0-0.0","0","0","69770","","null","","","null","20","","","","","","","","","","","","","","","",""
"","time_out","","html-keyboard-response","135","182692","0.0-1.0-188.0-0.0","0","0","69770","","null","","","null","20","","","","","","","","","","","","","","","",""
"","ITI","","html-keyboard-response","136","183695","0.0-1.0-189.0","0","0","69770","","null","","","null","20","","","","","","","","","","","","","","","NaN",""
"","S1","","html-keyboard-response","137","183949","0.0-1.0-191.0","0","0","69770","","null","","","null","21","","","","","","","","","","","","","","","",""
"","ISI","","html-keyboard-response","138","184953","0.0-1.0-192.0","0","0","69770","","null","","","null","21","NaN","","","","","","","","","","","","","","",""
"","S2","","html-keyboard-response","139","185207","0.0-1.0-193.0","0","0","69770","","null","","","null","21","","NaN","","","","","","","","","","","","","",""
"","response","","html-keyboard-response","140","186062","0.0-1.0-194.0-0.0","0","0","69770","","852","","","68","21","","","1","21","training","adjacent","FG","6","7","O.jpg","P.jpg","1","1","1","",""
"","feedback","","html-keyboard-response","141","187066","0.0-1.0-195.0-0.0","0","0","69770","","null","","","null","21","","","","","","","","","","","","","","","",""
"","ITI","","html-keyboard-response","142","188069","0.0-1.0-198.0","0","0","69770","","null","","","null","21","","","","","","","","","","","","","","","NaN",""
"","S1","","html-keyboard-response","143","188323","0.0-1.0-200.0","0","0","69770","","null","","","null","22","","","","","","","","","","","","","","","",""
"","ISI","","html-keyboard-response","144","189327","0.0-1.0-201.0","0","0","69770","","null","","","null","22","NaN","","","","","","","","","","","","","","",""
"","S2","","html-keyboard-response","145","189580","0.0-1.0-202.0","0","0","69770","","null","","","null","22","","NaN","","","","","","","","","","","","","",""
"","response","","html-keyboard-response","146","190041","0.0-1.0-203.0-0.0","0","0","69770","","458","","","68","22","","","1","22","training","adjacent","FE","6","5","O.jpg","N.jpg","1","0","0","",""
"","feedback","","html-keyboard-response","147","191045","0.0-1.0-204.0-0.0","0","0","69770","","null","","","null","22","","","","","","","","","","","","","","","",""
"","time_out","","html-keyboard-response","148","193048","0.0-1.0-206.0-0.0","0","0","69770","","null","","","null","22","","","","","","","","","","","","","","","",""
"","ITI","","html-keyboard-response","149","194051","0.0-1.0-207.0","0","0","69770","","981","","","222","22","","","","","","","","","","","","","","","",""
"","S1","","html-keyboard-response","150","194306","0.0-1.0-209.0","0","0","69770","","null","","","null","23","","","","","","","","","","","","","","","",""
"","ISI","","html-keyboard-response","151","195309","0.0-1.0-210.0","0","0","69770","","null","","","null","23","NaN","","","","","","","","","","","","","","",""
"","S2","","html-keyboard-response","152","195563","0.0-1.0-211.0","0","0","69770","","null","","","null","23","","NaN","","","","","","","","","","","","","",""
"","response","","html-keyboard-response","153","196399","0.0-1.0-212.0-0.0","0","0","69770","","833","","","68","23","","","1","23","training","adjacent","ED","5","4","N.jpg","R.jpg","1","0","0","",""
"","feedback","","html-keyboard-response","154","197402","0.0-1.0-213.0-0.0","0","0","69770","","null","","","null","23","","","","","","","","","","","","","","","",""
"","time_out","","html-keyboard-response","155","199407","0.0-1.0-215.0-0.0","0","0","69770","","null","","","null","23","","","","","","","","","","","","","","","",""
"","ITI","","html-keyboard-response","156","200410","0.0-1.0-216.0","0","0","69770","","null","","","null","23","","","","","","","","","","","","","","","NaN",""
"","S1","","html-keyboard-response","157","200664","0.0-1.0-218.0","0","0","69770","","null","","","null","24","","","","","","","","","","","","","","","",""
"","ISI","","html-keyboard-response","158","201667","0.0-1.0-219.0","0","0","69770","","null","","","null","24","NaN","","","","","","","","","","","","","","",""
"","S2","","html-keyboard-response","159","201920","0.0-1.0-220.0","0","0","69770","","null","","","null","24","","NaN","","","","","","","","","","","","","",""
"","response","","html-keyboard-response","160","202623","0.0-1.0-221.0-0.0","0","0","69770","","700","","","75","24","","","1","24","training","adjacent","FE","6","5","O.jpg","N.jpg","0","0","1","",""
"","feedback","","html-keyboard-response","161","203627","0.0-1.0-222.0-0.0","0","0","69770","","null","","","null","24","","","","","","","","","","","","","","","",""
"","ITI","","html-keyboard-response","162","204631","0.0-1.0-225.0","0","0","69770","","null","","","null","24","","","","","","","","","","","","","","","NaN",""
"","S1","","html-keyboard-response","163","204884","0.0-1.0-227.0","0","0","69770","","null","","","null","25","","","","","","","","","","","","","","","",""
"","ISI","","html-keyboard-response","164","205887","0.0-1.0-228.0","0","0","69770","","981","","","222","25","","","","","","","","","","","","","","","",""
"","S2","","html-keyboard-response","165","206141","0.0-1.0-229.0","0","0","69770","","null","","","null","25","","NaN","","","","","","","","","","","","","",""
"","response","","html-keyboard-response","166","206825","0.0-1.0-230.0-0.0","0","0","69770","","681","","","68","25","","","1","25","training","adjacent","BC","2","3","M.jpg","Q.jpg","1","1","1","",""
"","feedback","","html-keyboard-response","167","207828","0.0-1.0-231.0-0.0","0","0","69770","","null","","","null","25","","","","","","","","","","","","","","","",""
"","ITI","","html-keyboard-response","168","208832","0.0-1.0-234.0","0","0","69770","","null","","","null","25","","","","","","","","","","","","","","","NaN",""
"","S1","","html-keyboard-response","169","209085","0.0-1.0-236.0","0","0","69770","","null","","","null","26","","","","","","","","","","","","","","","",""
"","ISI","","html-keyboard-response","170","210088","0.0-1.0-237.0","0","0","69770","","null","","","null","26","NaN","","","","","","","","","","","","","","",""
"","S2","","html-keyboard-response","171","210342","0.0-1.0-238.0","0","0","69770","","null","","","null","26","","NaN","","","","","","","","","","","","","",""
"","response","","html-keyboard-response","172","211463","0.0-1.0-239.0-0.0","0","0","69770","","1118","","","75","26","","","1","26","training","adjacent","DE","4","5","R.jpg","N.jpg","0","1","0","",""
"","feedback","","html-keyboard-response","173","212467","0.0-1.0-240.0-0.0","0","0","69770","","null","","","null","26","","","","","","","","","","","","","","","",""
"","time_out","","html-keyboard-response","174","214470","0.0-1.0-242.0-0.0","0","0","69770","","null","","","null","26","","","","","","","","","","","","","","","",""
"","ITI","","html-keyboard-response","175","215475","0.0-1.0-243.0","0","0","69770","","null","","","null","26","","","","","","","","","","","","","","","NaN",""
"","S1","","html-keyboard-response","176","215728","0.0-1.0-245.0","0","0","69770","","null","","","null","27","","","","","","","","","","","","","","","",""
"","ISI","","html-keyboard-response","177","216733","0.0-1.0-246.0","0","0","69770","","null","","","null","27","NaN","","","","","","","","","","","","","","",""
"","S2","","html-keyboard-response","178","216987","0.0-1.0-247.0","0","0","69770","","null","","","null","27","","NaN","","","","","","","","","","","","","",""
"","response","","html-keyboard-response","179","217347","0.0-1.0-248.0-0.0","0","0","69770","","358","","","68","27","","","1","27","training","adjacent","GF","7","6","P.jpg","O.jpg","1","0","0","",""
"","feedback","","html-keyboard-response","180","218351","0.0-1.0-249.0-0.0","0","0","69770","","null","","","null","27","","","","","","","","","","","","","","","",""
"","time_out","","html-keyboard-response","181","220354","0.0-1.0-251.0-0.0","0","0","69770","","null","","","null","27","","","","","","","","","","","","","","","",""
"","ITI","","html-keyboard-response","182","221357","0.0-1.0-252.0","0","0","69770","","null","","","null","27","","","","","","","","","","","","","","","NaN",""
"","S1","","html-keyboard-response","183","221611","0.0-1.0-254.0","0","0","69770","","null","","","null","28","","","","","","","","","","","","","","","",""
"","ISI","","html-keyboard-response","184","222614","0.0-1.0-255.0","0","0","69770","","null","","","null","28","NaN","","","","","","","","","","","","","","",""
"","S2","","html-keyboard-response","185","222868","0.0-1.0-256.0","0","0","69770","","null","","","null","28","","NaN","","","","","","","","","","","","","",""
"","response","","html-keyboard-response","186","223592","0.0-1.0-257.0-0.0","0","0","69770","","721","","","75","28","","","1","28","training","adjacent","CB","3","2","Q.jpg","M.jpg","0","0","1","",""
"","feedback","","html-keyboard-response","187","224596","0.0-1.0-258.0-0.0","0","0","69770","","null","","","null","28","","","","","","","","","","","","","","","",""
"","ITI","","html-keyboard-response","188","225599","0.0-1.0-261.0","0","0","69770","","null","","","null","28","","","","","","","","","","","","","","","NaN",""
"","S1","","html-keyboard-response","189","225853","0.0-1.0-263.0","0","0","69770","","null","","","null","29","","","","","","","","","","","","","","","",""
"","ISI","","html-keyboard-response","190","226856","0.0-1.0-264.0","0","0","69770","","null","","","null","29","NaN","","","","","","","","","","","","","","",""
"","S2","","html-keyboard-response","191","227110","0.0-1.0-265.0","0","0","69770","","null","","","null","29","","NaN","","","","","","","","","","","","","",""
"","response","","html-keyboard-response","192","228084","0.0-1.0-266.0-0.0","0","0","69770","","972","","","68","29","","","1","29","training","adjacent","AB","1","2","L.jpg","M.jpg","1","1","1","",""
"","feedback","","html-keyboard-response","193","229088","0.0-1.0-267.0-0.0","0","0","69770","","null","","","null","29","","","","","","","","","","","","","","","",""
"","ITI","","html-keyboard-response","194","230091","0.0-1.0-270.0","0","0","69770","","null","","","null","29","","","","","","","","","","","","","","","NaN",""
"","S1","","html-keyboard-response","195","230345","0.0-1.0-272.0","0","0","69770","","null","","","null","30","","","","","","","","","","","","","","","",""
"","ISI","","html-keyboard-response","196","231349","0.0-1.0-273.0","0","0","69770","","null","","","null","30","NaN","","","","","","","","","","","","","","",""
"","S2","","html-keyboard-response","197","231602","0.0-1.0-274.0","0","0","69770","","null","","","null","30","","NaN","","","","","","","","","","","","","",""
"","response","","html-keyboard-response","198","233356","0.0-1.0-275.0-0.0","0","0","69770","","null","","","null","30","","","1","30","training","adjacent","CB","3","2","Q.jpg","M.jpg","NaN","0","0","",""
"","too_slow_prompt","","html-keyboard-response","199","234359","0.0-1.0-277.0-0.0","1","0","69770","","null","","","null","","","","","","","","","","","","","","","","",""
"","time_out","","html-keyboard-response","200","236363","0.0-1.0-278.0-0.0","0","0","69770","","null","","","null","30","","","","","","","","","","","","","","","",""
"","ITI","","html-keyboard-response","201","237367","0.0-1.0-279.0","0","0","69770","","null","","","null","30","","","","","","","","","","","","","","","NaN",""
"","S1","","html-keyboard-response","202","237620","0.0-1.0-281.0","0","0","69770","","null","","","null","31","","","","","","","","","","","","","","","",""
"","ISI","","html-keyboard-response","203","238623","0.0-1.0-282.0","0","0","69770","","null","","","null","31","NaN","","","","","","","","","","","","","","",""
"","S2","","html-keyboard-response","204","238877","0.0-1.0-283.0","0","0","69770","","null","","","null","31","","NaN","","","","","","","","","","","","","",""
"","response","","html-keyboard-response","205","239940","0.0-1.0-284.0-0.0","0","0","69770","","1060","","","75","31","","","1","31","training","adjacent","FG","6","7","O.jpg","P.jpg","0","1","0","",""
"","feedback","","html-keyboard-response","206","240943","0.0-1.0-285.0-0.0","0","0","69770","","null","","","null","31","","","","","","","","","","","","","","","",""
"","time_out","","html-keyboard-response","207","242947","0.0-1.0-287.0-0.0","0","0","69770","","null","","","null","31","","","","","","","","","","","","","","","",""
"","ITI","","html-keyboard-response","208","243950","0.0-1.0-288.0","0","0","69770","","null","","","null","31","","","","","","","","","","","","","","","NaN",""
"","S1","","html-keyboard-response","209","244204","0.0-1.0-290.0","0","0","69770","","null","","","null","32","","","","","","","","","","","","","","","",""
"","ISI","","html-keyboard-response","210","245206","0.0-1.0-291.0","0","0","69770","","null","","","null","32","NaN","","","","","","","","","","","","","","",""
"","S2","","html-keyboard-response","211","245460","0.0-1.0-292.0","0","0","69770","","null","","","null","32","","NaN","","","","","","","","","","","","","",""
"","response","","html-keyboard-response","212","245837","0.0-1.0-293.0-0.0","0","0","69770","","374","","","75","32","","","1","32","training","adjacent","CD","3","4","Q.jpg","R.jpg","0","1","0","",""
"","feedback","","html-keyboard-response","213","246841","0.0-1.0-294.0-0.0","0","0","69770","","null","","","null","32","","","","","","","","","","","","","","","",""
"","time_out","","html-keyboard-response","214","248844","0.0-1.0-296.0-0.0","0","0","69770","","null","","","null","32","","","","","","","","","","","","","","","",""
"","ITI","","html-keyboard-response","215","249848","0.0-1.0-297.0","0","0","69770","","null","","","null","32","","","","","","","","","","","","","","","NaN",""
"","S1","","html-keyboard-response","216","250112","0.0-1.0-299.0","0","0","69770","","null","","","null","33","","","","","","","","","","","","","","","",""
"","ISI","","html-keyboard-response","217","251115","0.0-1.0-300.0","0","0","69770","","null","","","null","33","NaN","","","","","","","","","","","","","","",""
"","S2","","html-keyboard-response","218","251368","0.0-1.0-301.0","0","0","69770","","null","","","null","33","","NaN","","","","","","","","","","","","","",""
"","response","","html-keyboard-response","219","252145","0.0-1.0-302.0-0.0","0","0","69770","","774","","","75","33","","","1","33","training","adjacent","BC","2","3","M.jpg","Q.jpg","0","1","0","",""
"","feedback","","html-keyboard-response","220","253150","0.0-1.0-303.0-0.0","0","0","69770","","null","","","null","33","","","","","","","","","","","","","","","",""
"","time_out","","html-keyboard-response","221","255153","0.0-1.0-305.0-0.0","0","0","69770","","null","","","null","33","","","","","","","","","","","","","","","",""
"","ITI","","html-keyboard-response","222","256156","0.0-1.0-306.0","0","0","69770","","null","","","null","33","","","","","","","","","","","","","","","NaN",""
"","S1","","html-keyboard-response","223","256411","0.0-1.0-308.0","0","0","69770","","null","","","null","34","","","","","","","","","","","","","","","",""
"","ISI","","html-keyboard-response","224","257414","0.0-1.0-309.0","0","0","69770","","null","","","null","34","NaN","","","","","","","","","","","","","","",""
"","S2","","html-keyboard-response","225","257668","0.0-1.0-310.0","0","0","69770","","null","","","null","34","","NaN","","","","","","","","","","","","","",""
"","response","","html-keyboard-response","226","258393","0.0-1.0-311.0-0.0","0","0","69770","","722","","","75","34","","","1","34","training","adjacent","EF","5","6","N.jpg","O.jpg","0","1","0","",""
"","feedback","","html-keyboard-response","227","259396","0.0-1.0-312.0-0.0","0","0","69770","","null","","","null","34","","","","","","","","","","","","","","","",""
"","time_out","","html-keyboard-response","228","261400","0.0-1.0-314.0-0.0","0","0","69770","","null","","","null","34","","","","","","","","","","","","","","","",""
"","ITI","","html-keyboard-response","229","262403","0.0-1.0-315.0","0","0","69770","","null","","","null","34","","","","","","","","","","","","","","","NaN",""
"","S1","","html-keyboard-response","230","262658","0.0-1.0-317.0","0","0","69770","","null","","","null","35","","","","","","","","","","","","","","","",""
"","ISI","","html-keyboard-response","231","263661","0.0-1.0-318.0","0","0","69770","","null","","","null","35","NaN","","","","","","","","","","","","","","",""
"","S2","","html-keyboard-response","232","263915","0.0-1.0-319.0","0","0","69770","","null","","","null","35","","NaN","","","","","","","","","","","","","",""
"","response","","html-keyboard-response","233","264843","0.0-1.0-320.0-0.0","0","0","69770","","925","","","68","35","","","1","35","training","adjacent","CD","3","4","Q.jpg","R.jpg","1","1","1","",""
"","feedback","","html-keyboard-response","234","265846","0.0-1.0-321.0-0.0","0","0","69770","","null","","","null","35","","","","","","","","","","","","","","","",""
"","ITI","","html-keyboard-response","235","266850","0.0-1.0-324.0","0","0","69770","","null","","","null","35","","","","","","","","","","","","","","","NaN",""
"","S1","","html-keyboard-response","236","267103","0.0-1.0-326.0","0","0","69770","","null","","","null","36","","","","","","","","","","","","","","","",""
"","ISI","","html-keyboard-response","237","268106","0.0-1.0-327.0","0","0","69770","","null","","","null","36","NaN","","","","","","","","","","","","","","",""
"","S2","","html-keyboard-response","238","268360","0.0-1.0-328.0","0","0","69770","","null","","","null","36","","NaN","","","","","","","","","","","","","",""
"","response","","html-keyboard-response","239","269866","0.0-1.0-329.0-0.0","0","0","69770","","1503","","","75","36","","","1","36","training","adjacent","DE","4","5","R.jpg","N.jpg","0","1","0","",""
"","feedback","","html-keyboard-response","240","270869","0.0-1.0-330.0-0.0","0","0","69770","","null","","","null","36","","","","","","","","","","","","","","","",""
"","time_out","","html-keyboard-response","241","272873","0.0-1.0-332.0-0.0","0","0","69770","","null","","","null","36","","","","","","","","","","","","","","","",""
"","ITI","","html-keyboard-response","242","273876","0.0-1.0-333.0","0","0","69770","","null","","","null","36","","","","","","","","","","","","","","","NaN",""
"","S1","","html-keyboard-response","243","274130","0.0-1.0-335.0","0","0","69770","","null","","","null","37","","","","","","","","","","","","","","","",""
"","ISI","","html-keyboard-response","244","275133","0.0-1.0-336.0","0","0","69770","","null","","","null","37","NaN","","","","","","","","","","","","","","",""
"","S2","","html-keyboard-response","245","275386","0.0-1.0-337.0","0","0","69770","","null","","","null","37","","NaN","","","","","","","","","","","","","",""
"","response","","html-keyboard-response","246","276150","0.0-1.0-338.0-0.0","0","0","69770","","761","","","75","37","","","1","37","training","adjacent","DC","4","3","R.jpg","Q.jpg","0","0","1","",""
"","feedback","","html-keyboard-response","247","277153","0.0-1.0-339.0-0.0","0","0","69770","","null","","","null","37","","","","","","","","","","","","","","","",""
"","ITI","","html-keyboard-response","248","278157","0.0-1.0-342.0","0","0","69770","","null","","","null","37","","","","","","","","","","","","","","","NaN",""
"","S1","","html-keyboard-response","249","278411","0.0-1.0-344.0","0","0","69770","","null","","","null","38","","","","","","","","","","","","","","","",""
"","ISI","","html-keyboard-response","250","279414","0.0-1.0-345.0","0","0","69770","","null","","","null","38","NaN","","","","","","","","","","","","","","",""
"","S2","","html-keyboard-response","251","279668","0.0-1.0-346.0","0","0","69770","","null","","","null","38","","NaN","","","","","","","","","","","","","",""
"","response","","html-keyboard-response","252","281421","0.0-1.0-347.0-0.0","0","0","69770","","null","","","null","38","","","1","38","training","adjacent","DC","4","3","R.jpg","Q.jpg","NaN","0","0","",""
"","too_slow_prompt","","html-keyboard-response","253","282424","0.0-1.0-349.0-0.0","1","0","69770","","null","","","null","","","","","","","","","","","","","","","","",""
"","time_out","","html-keyboard-response","254","284428","0.0-1.0-350.0-0.0","0","0","69770","","null","","","null","38","","","","","","","","","","","","","","","",""
"","ITI","","html-keyboard-response","255","285431","0.0-1.0-351.0","0","0","69770","","null","","","null","38","","","","","","","","","","","","","","","NaN",""
"","S1","","html-keyboard-response","256","285685","0.0-1.0-353.0","0","0","69770","","null","","","null","39","","","","","","","","","","","","","","","",""
"","ISI","","html-keyboard-response","257","286690","0.0-1.0-354.0","0","0","69770","","null","","","null","39","NaN","","","","","","","","","","","","","","",""
"","S2","","html-keyboard-response","258","286944","0.0-1.0-355.0","0","0","69770","","null","","","null","39","","NaN","","","","","","","","","","","","","",""
"","response","","html-keyboard-response","259","287564","0.0-1.0-356.0-0.0","0","0","69770","","617","","","68","39","","","1","39","training","adjacent","CD","3","4","Q.jpg","R.jpg","1","1","1","",""
"","feedback","","html-keyboard-response","260","288568","0.0-1.0-357.0-0.0","0","0","69770","","null","","","null","39","","","","","","","","","","","","","","","",""
"","ITI","","html-keyboard-response","261","289571","0.0-1.0-360.0","0","0","69770","","null","","","null","39","","","","","","","","","","","","","","","NaN",""
"","S1","","html-keyboard-response","262","289825","0.0-1.0-362.0","0","0","69770","","null","","","null","40","","","","","","","","","","","","","","","",""
"","ISI","","html-keyboard-response","263","290828","0.0-1.0-363.0","0","0","69770","","null","","","null","40","NaN","","","","","","","","","","","","","","",""
"","S2","","html-keyboard-response","264","291092","0.0-1.0-364.0","0","0","69770","","null","","","null","40","","NaN","","","","","","","","","","","","","",""
"","response","","html-keyboard-response","265","291647","0.0-1.0-365.0-0.0","0","0","69770","","553","","","75","40","","","1","40","training","adjacent","FG","6","7","O.jpg","P.jpg","0","1","0","",""
"","feedback","","html-keyboard-response","266","292651","0.0-1.0-366.0-0.0","0","0","69770","","null","","","null","40","","","","","","","","","","","","","","","",""
"","time_out","","html-keyboard-response","267","294654","0.0-1.0-368.0-0.0","0","0","69770","","null","","","null","40","","","","","","","","","","","","","","","",""
"","ITI","","html-keyboard-response","268","295658","0.0-1.0-369.0","0","0","69770","","null","","","null","40","","","","","","","","","","","","","","","NaN",""
"","S1","","html-keyboard-response","269","295911","0.0-1.0-371.0","0","0","69770","","null","","","null","41","","","","","","","","","","","","","","","",""
"","ISI","","html-keyboard-response","270","296914","0.0-1.0-372.0","0","0","69770","","null","","","null","41","NaN","","","","","","","","","","","","","","",""
"","S2","","html-keyboard-response","271","297167","0.0-1.0-373.0","0","0","69770","","null","","","null","41","","NaN","","","","","","","","","","","","","",""
"","response","","html-keyboard-response","272","298356","0.0-1.0-374.0-0.0","0","0","69770","","1186","","","68","41","","","1","41","training","adjacent","DC","4","3","R.jpg","Q.jpg","1","0","0","",""
"","feedback","","html-keyboard-response","273","299360","0.0-1.0-375.0-0.0","0","0","69770","","null","","","null","41","","","","","","","","","","","","","","","",""
"","time_out","","html-keyboard-response","274","301363","0.0-1.0-377.0-0.0","0","0","69770","","null","","","null","41","","","","","","","","","","","","","","","",""
"","ITI","","html-keyboard-response","275","302367","0.0-1.0-378.0","0","0","69770","","null","","","null","41","","","","","","","","","","","","","","","NaN",""
"","S1","","html-keyboard-response","276","302620","0.0-1.0-380.0","0","0","69770","","null","","","null","42","","","","","","","","","","","","","","","",""
"","ISI","","html-keyboard-response","277","303624","0.0-1.0-381.0","0","0","69770","","null","","","null","42","NaN","","","","","","","","","","","","","","",""
"","S2","","html-keyboard-response","278","303878","0.0-1.0-382.0","0","0","69770","","null","","","null","42","","NaN","","","","","","","","","","","","","",""
"","response","","html-keyboard-response","279","304865","0.0-1.0-383.0-0.0","0","0","69770","","985","","","75","42","","","1","42","training","adjacent","EF","5","6","N.jpg","O.jpg","0","1","0","",""
"","feedback","","html-keyboard-response","280","305868","0.0-1.0-384.0-0.0","0","0","69770","","null","","","null","42","","","","","","","","","","","","","","","",""
"","time_out","","html-keyboard-response","281","307871","0.0-1.0-386.0-0.0","0","0","69770","","null","","","null","42","","","","","","","","","","","","","","","",""
"","ITI","","html-keyboard-response","282","308874","0.0-1.0-387.0","0","0","69770","","null","","","null","42","","","","","","","","","","","","","","","NaN",""
"","S1","","html-keyboard-response","283","309128","0.0-1.0-389.0","0","0","69770","","null","","","null","43","","","","","","","","","","","","","","","",""
"","ISI","","html-keyboard-response","284","310131","0.0-1.0-390.0","0","0","69770","","null","","","null","43","NaN","","","","","","","","","","","","","","",""
"","S2","","html-keyboard-response","285","310385","0.0-1.0-391.0","0","0","69770","","null","","","null","43","","NaN","","","","","","","","","","","","","",""
"","response","","html-keyboard-response","286","311406","0.0-1.0-392.0-0.0","0","0","69770","","1018","","","68","43","","","1","43","training","adjacent","BA","2","1","M.jpg","L.jpg","1","0","0","",""
"","feedback","","html-keyboard-response","287","312410","0.0-1.0-393.0-0.0","0","0","69770","","null","","","null","43","","","","","","","","","","","","","","","",""
"","time_out","","html-keyboard-response","288","314413","0.0-1.0-395.0-0.0","0","0","69770","","null","","","null","43","","","","","","","","","","","","","","","",""
"","ITI","","html-keyboard-response","289","315417","0.0-1.0-396.0","0","0","69770","","null","","","null","43","","","","","","","","","","","","","","","NaN",""
"","S1","","html-keyboard-response","290","315671","0.0-1.0-398.0","0","0","69770","","null","","","null","44","","","","","","","","","","","","","","","",""
"","ISI","","html-keyboard-response","291","316674","0.0-1.0-399.0","0","0","69770","","null","","","null","44","NaN","","","","","","","","","","","","","","",""
"","S2","","html-keyboard-response","292","316928","0.0-1.0-400.0","0","0","69770","","null","","","null","44","","NaN","","","","","","","","","","","","","",""
"","response","","html-keyboard-response","293","318681","0.0-1.0-401.0-0.0","0","0","69770","","null","","","null","44","","","1","44","training","adjacent","DC","4","3","R.jpg","Q.jpg","NaN","0","0","",""
"","too_slow_prompt","","html-keyboard-response","294","319685","0.0-1.0-403.0-0.0","1","0","69770","","null","","","null","","","","","","","","","","","","","","","","",""
"","time_out","","html-keyboard-response","295","321688","0.0-1.0-404.0-0.0","0","0","69770","","null","","","null","44","","","","","","","","","","","","","","","",""
"","ITI","","html-keyboard-response","296","322691","0.0-1.0-405.0","0","0","69770","","null","","","null","44","","","","","","","","","","","","","","","NaN",""
"","S1","","html-keyboard-response","297","322944","0.0-1.0-407.0","0","0","69770","","null","","","null","45","","","","","","","","","","","","","","","",""
"","ISI","","html-keyboard-response","298","323947","0.0-1.0-408.0","0","0","69770","","null","","","null","45","NaN","","","","","","","","","","","","","","",""
"","S2","","html-keyboard-response","299","324201","0.0-1.0-409.0","0","0","69770","","null","","","null","45","","NaN","","","","","","","","","","","","","",""
"","response","","html-keyboard-response","300","324401","0.0-1.0-410.0-0.0","0","0","69770","","197","","","75","45","","","1","45","training","adjacent","BA","2","1","M.jpg","L.jpg","0","0","1","",""
"","feedback","","html-keyboard-response","301","325405","0.0-1.0-411.0-0.0","0","0","69770","","null","","","null","45","","","","","","","","","","","","","","","",""
"","ITI","","html-keyboard-response","302","326409","0.0-1.0-414.0","0","0","69770","","null","","","null","45","","","","","","","","","","","","","","","NaN",""
"","S1","","html-keyboard-response","303","326662","0.0-1.0-416.0","0","0","69770","","null","","","null","46","","","","","","","","","","","","","","","",""
"","ISI","","html-keyboard-response","304","327665","0.0-1.0-417.0","0","0","69770","","null","","","null","46","NaN","","","","","","","","","","","","","","",""
"","S2","","html-keyboard-response","305","327919","0.0-1.0-418.0","0","0","69770","","null","","","null","46","","NaN","","","","","","","","","","","","","",""
"","response","","html-keyboard-response","306","328586","0.0-1.0-419.0-0.0","0","0","69770","","664","","","75","46","","","1","46","training","adjacent","GF","7","6","P.jpg","O.jpg","0","0","1","",""
"","feedback","","html-keyboard-response","307","329590","0.0-1.0-420.0-0.0","0","0","69770","","null","","","null","46","","","","","","","","","","","","","","","",""
"","ITI","","html-keyboard-response","308","330594","0.0-1.0-423.0","0","0","69770","","null","","","null","46","","","","","","","","","","","","","","","NaN",""
"","S1","","html-keyboard-response","309","330848","0.0-1.0-425.0","0","0","69770","","null","","","null","47","","","","","","","","","","","","","","","",""
"","ISI","","html-keyboard-response","310","331851","0.0-1.0-426.0","0","0","69770","","null","","","null","47","NaN","","","","","","","","","","","","","","",""
"","S2","","html-keyboard-response","311","332104","0.0-1.0-427.0","0","0","69770","","null","","","null","47","","NaN","","","","","","","","","","","","","",""
"","response","","html-keyboard-response","312","333082","0.0-1.0-428.0-0.0","0","0","69770","","975","","","68","47","","","1","47","training","adjacent","GF","7","6","P.jpg","O.jpg","1","0","0","",""
"","feedback","","html-keyboard-response","313","334085","0.0-1.0-429.0-0.0","0","0","69770","","null","","","null","47","","","","","","","","","","","","","","","",""
"","time_out","","html-keyboard-response","314","336090","0.0-1.0-431.0-0.0","0","0","69770","","null","","","null","47","","","","","","","","","","","","","","","",""
"","ITI","","html-keyboard-response","315","337093","0.0-1.0-432.0","0","0","69770","","null","","","null","47","","","","","","","","","","","","","","","NaN",""
"","block_over","","html-keyboard-response","316","345727","0.0-1.0-433.0-0.0","0","0","69770","","8630","","","32","47","","","","","","","","","","","","","","","",""
"","S1","","html-keyboard-response","317","345981","0.0-1.0-434.0","0","0","69770","","null","","","null","48","","","","","","","","","","","","","","","",""
"","ISI","","html-keyboard-response","318","346983","0.0-1.0-435.0","0","0","69770","","null","","","null","48","NaN","","","","","","","","","","","","","","",""
"","S2","","html-keyboard-response","319","347238","0.0-1.0-436.0","0","0","69770","","null","","","null","48","","NaN","","","","","","","","","","","","","",""
"","response","","html-keyboard-response","320","347858","0.0-1.0-437.0-0.0","0","0","69770","","617","","","75","48","","","2","48","training","adjacent","FG","6","7","O.jpg","P.jpg","0","1","0","",""
"","feedback","","html-keyboard-response","321","348862","0.0-1.0-438.0-0.0","0","0","69770","","null","","","null","48","","","","","","","","","","","","","","","",""
"","time_out","","html-keyboard-response","322","350866","0.0-1.0-440.0-0.0","0","0","69770","","null","","","null","48","","","","","","","","","","","","","","","",""
"","ITI","","html-keyboard-response","323","351870","0.0-1.0-441.0","0","0","69770","","null","","","null","48","","","","","","","","","","","","","","","NaN",""
"","S1","","html-keyboard-response","324","352123","0.0-1.0-443.0","0","0","69770","","null","","","null","49","","","","","","","","","","","","","","","",""
"","ISI","","html-keyboard-response","325","353126","0.0-1.0-444.0","0","0","69770","","null","","","null","49","NaN","","","","","","","","","","","","","","",""
"","S2","","html-keyboard-response","326","353380","0.0-1.0-445.0","0","0","69770","","null","","","null","49","","NaN","","","","","","","","","","","","","",""
"","response","","html-keyboard-response","327","355134","0.0-1.0-446.0-0.0","0","0","69770","","null","","","null","49","","","2","49","training","adjacent","EF","5","6","N.jpg","O.jpg","NaN","1","0","",""
"","too_slow_prompt","","html-keyboard-response","328","356137","0.0-1.0-448.0-0.0","1","0","69770","","null","","","null","","","","","","","","","","","","","","","","",""
"","time_out","","html-keyboard-response","329","358141","0.0-1.0-449.0-0.0","0","0","69770","","null","","","null","49","","","","","","","","","","","","","","","",""
"","ITI","","html-keyboard-response","330","359144","0.0-1.0-450.0","0","0","69770","","null","","","null","49","","","","","","","","","","","","","","","NaN",""
"","S1","","html-keyboard-response","331","359398","0.0-1.0-452.0","0","0","69770","","null","","","null","50","","","","","","","","","","","","","","","",""
"","ISI","","html-keyboard-response","332","360401","0.0-1.0-453.0","0","0","69770","","null","","","null","50","NaN","","","","","","","","","","","","","","",""
"","S2","","html-keyboard-response","333","360655","0.0-1.0-454.0","0","0","69770","","null","","","null","50","","NaN","","","","","","","","","","","","","",""
"","response","","html-keyboard-response","334","360733","0.0-1.0-455.0-0.0","0","0","69770","","75","","","75","50","","","2","50","training","adjacent","DE","4","5","R.jpg","N.jpg","0","1","0","",""
"","feedback","","html-keyboard-response","335","361737","0.0-1.0-456.0-0.0","0","0","69770","","null","","","null","50","","","","","","","","","","","","","","","",""
"","time_out","","html-keyboard-response","336","363740","0.0-1.0-458.0-0.0","0","0","69770","","null","","","null","50","","","","","","","","","","","","","","","",""
"","ITI","","html-keyboard-response","337","364743","0.0-1.0-459.0","0","0","69770","","null","","","null","50","","","","","","","","","","","","","","","NaN",""
"","S1","","html-keyboard-response","338","364997","0.0-1.0-461.0","0","0","69770","","null","","","null","51","","","","","","","","","","","","","","","",""
"","ISI","","html-keyboard-response","339","366000","0.0-1.0-462.0","0","0","69770","","null","","","null","51","NaN","","","","","","","","","","","","","","",""
"","S2","","html-keyboard-response","340","366255","0.0-1.0-463.0","0","0","69770","","null","","","null","51","","NaN","","","","","","","","","","","","","",""
"","response","","html-keyboard-response","341","366494","0.0-1.0-464.0-0.0","0","0","69770","","236","","","68","51","","","2","51","training","adjacent","GF","7","6","P.jpg","O.jpg","1","0","0","",""
"","feedback","","html-keyboard-response","342","367498","0.0-1.0-465.0-0.0","0","0","69770","","null","","","null","51","","","","","","","","","","","","","","","",""
"","time_out","","html-keyboard-response","343","369501","0.0-1.0-467.0-0.0","0","0","69770","","null","","","null","51","","","","","","","","","","","","","","","",""
"","ITI","","html-keyboard-response","344","370504","0.0-1.0-468.0","0","0","69770","","null","","","null","51","","","","","","","","","","","","","","","NaN",""
"","S1","","html-keyboard-response","345","370758","0.0-1.0-470.0","0","0","69770","","null","","","null","52","","","","","","","","","","","","","","","",""
"","ISI","","html-keyboard-response","346","371761","0.0-1.0-471.0","0","0","69770","","null","","","null","52","NaN","","","","","","","","","","","","","","",""
"","S2","","html-keyboard-response","347","372016","0.0-1.0-472.0","0","0","69770","","null","","","null","52","","NaN","","","","","","","","","","","","","",""
"","response","","html-keyboard-response","348","372211","0.0-1.0-473.0-0.0","0","0","69770","","192","","","75","52","","","2","52","training","adjacent","DE","4","5","R.jpg","N.jpg","0","1","0","",""
"","feedback","","html-keyboard-response","349","373216","0.0-1.0-474.0-0.0","0","0","69770","","null","","","null","52","","","","","","","","","","","","","","","",""
"","time_out","","html-keyboard-response","350","375219","0.0-1.0-476.0-0.0","0","0","69770","","null","","","null","52","","","","","","","","","","","","","","","",""
"","ITI","","html-keyboard-response","351","376222","0.0-1.0-477.0","0","0","69770","","null","","","null","52","","","","","","","","","","","","","","","NaN",""
"","S1","","html-keyboard-response","352","376475","0.0-1.0-479.0","0","0","69770","","null","","","null","53","","","","","","","","","","","","","","","",""
"","ISI","","html-keyboard-response","353","377479","0.0-1.0-480.0","0","0","69770","","null","","","null","53","NaN","","","","","","","","","","","","","","",""
"","S2","","html-keyboard-response","354","377732","0.0-1.0-481.0","0","0","69770","","null","","","null","53","","NaN","","","","","","","","","","","","","",""
"","response","","html-keyboard-response","355","378382","0.0-1.0-482.0-0.0","0","0","69770","","648","","","68","53","","","2","53","training","adjacent","DC","4","3","R.jpg","Q.jpg","1","0","0","",""
"","feedback","","html-keyboard-response","356","379386","0.0-1.0-483.0-0.0","0","0","69770","","null","","","null","53","","","","","","","","","","","","","","","",""
"","time_out","","html-keyboard-response","357","381390","0.0-1.0-485.0-0.0","0","0","69770","","null","","","null","53","","","","","","","","","","","","","","","",""
"","ITI","","html-keyboard-response","358","382394","0.0-1.0-486.0","0","0","69770","","null","","","null","53","","","","","","","","","","","","","","","NaN",""
"","S1","","html-keyboard-response","359","382647","0.0-1.0-488.0","0","0","69770","","null","","","null","54","","","","","","","","","","","","","","","",""
"","ISI","","html-keyboard-response","360","383650","0.0-1.0-489.0","0","0","69770","","null","","","null","54","NaN","","","","","","","","","","","","","","",""
"","S2","","html-keyboard-response","361","383904","0.0-1.0-490.0","0","0","69770","","null","","","null","54","","NaN","","","","","","","","","","","","","",""
"","response","","html-keyboard-response","362","384494","0.0-1.0-491.0-0.0","0","0","69770","","587","","","75","54","","","2","54","training","adjacent","BC","2","3","M.jpg","Q.jpg","0","1","0","",""
"","feedback","","html-keyboard-response","363","385498","0.0-1.0-492.0-0.0","0","0","69770","","null","","","null","54","","","","","","","","","","","","","","","",""
"","time_out","","html-keyboard-response","364","387502","0.0-1.0-494.0-0.0","0","0","69770","","null","","","null","54","","","","","","","","","","","","","","","",""
"","ITI","","html-keyboard-response","365","388505","0.0-1.0-495.0","0","0","69770","","null","","","null","54","","","","","","","","","","","","","","","NaN",""
"","S1","","html-keyboard-response","366","388760","0.0-1.0-497.0","0","0","69770","","null","","","null","55","","","","","","","","","","","","","","","",""
"","ISI","","html-keyboard-response","367","389763","0.0-1.0-498.0","0","0","69770","","null","","","null","55","NaN","","","","","","","","","","","","","","",""
"","S2","","html-keyboard-response","368","390017","0.0-1.0-499.0","0","0","69770","","null","","","null","55","","NaN","","","","","","","","","","","","","",""
"","response","","html-keyboard-response","369","390619","0.0-1.0-500.0-0.0","0","0","69770","","600","","","68","55","","","2","55","training","adjacent","AB","1","2","L.jpg","M.jpg","1","1","1","",""
"","feedback","","html-keyboard-response","370","391624","0.0-1.0-501.0-0.0","0","0","69770","","null","","","null","55","","","","","","","","","","","","","","","",""
"","ITI","","html-keyboard-response","371","392628","0.0-1.0-504.0","0","0","69770","","null","","","null","55","","","","","","","","","","","","","","","NaN",""
"","S1","","html-keyboard-response","372","392881","0.0-1.0-506.0","0","0","69770","","null","","","null","56","","","","","","","","","","","","","","","",""
"","ISI","","html-keyboard-response","373","393885","0.0-1.0-507.0","0","0","69770","","null","","","null","56","NaN","","","","","","","","","","","","","","",""
"","S2","","html-keyboard-response","374","394139","0.0-1.0-508.0","0","0","69770","","null","","","null","56","","NaN","","","","","","","","","","","","","",""
"","response","","html-keyboard-response","375","395011","0.0-1.0-509.0-0.0","0","0","69770","","869","","","75","56","","","2","56","training","adjacent","BA","2","1","M.jpg","L.jpg","0","0","1","",""
"","feedback","","html-keyboard-response","376","396014","0.0-1.0-510.0-0.0","0","0","69770","","null","","","null","56","","","","","","","","","","","","","","","",""
"","ITI","","html-keyboard-response","377","397019","0.0-1.0-513.0","0","0","69770","","null","","","null","56","","","","","","","","","","","","","","","NaN",""
"","S1","","html-keyboard-response","378","397272","0.0-1.0-515.0","0","0","69770","","null","","","null","57","","","","","","","","","","","","","","","",""
"","ISI","","html-keyboard-response","379","398276","0.0-1.0-516.0","0","0","69770","","null","","","null","57","NaN","","","","","","","","","","","","","","",""
"","S2","","html-keyboard-response","380","398530","0.0-1.0-517.0","0","0","69770","","null","","","null","57","","NaN","","","","","","","","","","","","","",""
"","response","","html-keyboard-response","381","399214","0.0-1.0-518.0-0.0","0","0","69770","","682","","","68","57","","","2","57","training","adjacent","BC","2","3","M.jpg","Q.jpg","1","1","1","",""
"","feedback","","html-keyboard-response","382","400218","0.0-1.0-519.0-0.0","0","0","69770","","null","","","null","57","","","","","","","","","","","","","","","",""
"","ITI","","html-keyboard-response","383","401222","0.0-1.0-522.0","0","0","69770","","null","","","null","57","","","","","","","","","","","","","","","NaN",""
"","S1","","html-keyboard-response","384","401475","0.0-1.0-524.0","0","0","69770","","null","","","null","58","","","","","","","","","","","","","","","",""
"","ISI","","html-keyboard-response","385","402478","0.0-1.0-525.0","0","0","69770","","null","","","null","58","NaN","","","","","","","","","","","","","","",""
"","S2","","html-keyboard-response","386","402732","0.0-1.0-526.0","0","0","69770","","null","","","null","58","","NaN","","","","","","","","","","","","","",""
"","response","","html-keyboard-response","387","403356","0.0-1.0-527.0-0.0","0","0","69770","","621","","","75","58","","","2","58","training","adjacent","CB","3","2","Q.jpg","M.jpg","0","0","1","",""
"","feedback","","html-keyboard-response","388","404360","0.0-1.0-528.0-0.0","0","0","69770","","null","","","null","58","","","","","","","","","","","","","","","",""
"","ITI","","html-keyboard-response","389","405363","0.0-1.0-531.0","0","0","69770","","null","","","null","58","","","","","","","","","","","","","","","NaN",""
"","S1","","html-keyboard-response","390","405618","0.0-1.0-533.0","0","0","69770","","null","","","null","59","","","","","","","","","","","","","","","",""
"","ISI","","html-keyboard-response","391","406622","0.0-1.0-534.0","0","0","69770","","null","","","null","59","NaN","","","","","","","","","","","","","","",""
"","S2","","html-keyboard-response","392","406876","0.0-1.0-535.0","0","0","69770","","null","","","null","59","","NaN","","","","","","","","","","","","","",""
"","response","","html-keyboard-response","393","407519","0.0-1.0-536.0-0.0","0","0","69770","","640","","","75","59","","","2","59","training","adjacent","BA","2","1","M.jpg","L.jpg","0","0","1","",""
"","feedback","","html-keyboard-response","394","408522","0.0-1.0-537.0-0.0","0","0","69770","","null","","","null","59","","","","","","","","","","","","","","","",""
"","ITI","","html-keyboard-response","395","409526","0.0-1.0-540.0","0","0","69770","","null","","","null","59","","","","","","","","","","","","","","","NaN",""
"","S1","","html-keyboard-response","396","409779","0.0-1.0-542.0","0","0","69770","","null","","","null","60","","","","","","","","","","","","","","","",""
"","ISI","","html-keyboard-response","397","410782","0.0-1.0-543.0","0","0","69770","","null","","","null","60","NaN","","","","","","","","","","","","","","",""
"","S2","","html-keyboard-response","398","411036","0.0-1.0-544.0","0","0","69770","","null","","","null","60","","NaN","","","","","","","","","","","","","",""
"","response","","html-keyboard-response","399","411645","0.0-1.0-545.0-0.0","0","0","69770","","607","","","68","60","","","2","60","training","adjacent","BC","2","3","M.jpg","Q.jpg","1","1","1","",""
"","feedback","","html-keyboard-response","400","412650","0.0-1.0-546.0-0.0","0","0","69770","","null","","","null","60","","","","","","","","","","","","","","","",""
"","ITI","","html-keyboard-response","401","413654","0.0-1.0-549.0","0","0","69770","","null","","","null","60","","","","","","","","","","","","","","","NaN",""
"","S1","","html-keyboard-response","402","413909","0.0-1.0-551.0","0","0","69770","","null","","","null","61","","","","","","","","","","","","","","","",""
"","ISI","","html-keyboard-response","403","414913","0.0-1.0-552.0","0","0","69770","","null","","","null","61","NaN","","","","","","","","","","","","","","",""
"","S2","","html-keyboard-response","404","415166","0.0-1.0-553.0","0","0","69770","","null","","","null","61","","NaN","","","","","","","","","","","","","",""
"","response","","html-keyboard-response","405","415823","0.0-1.0-554.0-0.0","0","0","69770","","654","","","75","61","","","2","61","training","adjacent","EF","5","6","N.jpg","O.jpg","0","1","0","",""
"","feedback","","html-keyboard-response","406","416827","0.0-1.0-555.0-0.0","0","0","69770","","null","","","null","61","","","","","","","","","","","","","","","",""
"","time_out","","html-keyboard-response","407","418830","0.0-1.0-557.0-0.0","0","0","69770","","null","","","null","61","","","","","","","","","","","","","","","",""
"","ITI","","html-keyboard-response","408","419834","0.0-1.0-558.0","0","0","69770","","null","","","null","61","","","","","","","","","","","","","","","NaN",""
"","S1","","html-keyboard-response","409","420086","0.0-1.0-560.0","0","0","69770","","null","","","null","62","","","","","","","","","","","","","","","",""
"","ISI","","html-keyboard-response","410","421089","0.0-1.0-561.0","0","0","69770","","null","","","null","62","NaN","","","","","","","","","","","","","","",""
"","S2","","html-keyboard-response","411","421343","0.0-1.0-562.0","0","0","69770","","null","","","null","62","","NaN","","","","","","","","","","","","","",""
"","response","","html-keyboard-response","412","422154","0.0-1.0-563.0-0.0","0","0","69770","","808","","","68","62","","","2","62","training","adjacent","BA","2","1","M.jpg","L.jpg","1","0","0","",""
"","feedback","","html-keyboard-response","413","423158","0.0-1.0-564.0-0.0","0","0","69770","","null","","","null","62","","","","","","","","","","","","","","","",""
"","time_out","","html-keyboard-response","414","425161","0.0-1.0-566.0-0.0","0","0","69770","","null","","","null","62","","","","","","","","","","","","","","","",""
"","ITI","","html-keyboard-response","415","426164","0.0-1.0-567.0","0","0","69770","","null","","","null","62","","","","","","","","","","","","","","","NaN",""
"","S1","","html-keyboard-response","416","426418","0.0-1.0-569.0","0","0","69770","","null","","","null","63","","","","","","","","","","","","","","","",""
"","ISI","","html-keyboard-response","417","427422","0.0-1.0-570.0","0","0","69770","","null","","","null","63","NaN","","","","","","","","","","","","","","",""
"","S2","","html-keyboard-response","418","427675","0.0-1.0-571.0","0","0","69770","","null","","","null","63","","NaN","","","","","","","","","","","","","",""
"","response","","html-keyboard-response","419","428138","0.0-1.0-572.0-0.0","0","0","69770","","461","","","75","63","","","2","63","training","adjacent","FG","6","7","O.jpg","P.jpg","0","1","0","",""
"","feedback","","html-keyboard-response","420","429142","0.0-1.0-573.0-0.0","0","0","69770","","null","","","null","63","","","","","","","","","","","","","","","",""
"","time_out","","html-keyboard-response","421","431145","0.0-1.0-575.0-0.0","0","0","69770","","null","","","null","63","","","","","","","","","","","","","","","",""
"","ITI","","html-keyboard-response","422","432148","0.0-1.0-576.0","0","0","69770","","null","","","null","63","","","","","","","","","","","","","","","NaN",""
"","S1","","html-keyboard-response","423","432401","0.0-1.0-578.0","0","0","69770","","null","","","null","64","","","","","","","","","","","","","","","",""
"","ISI","","html-keyboard-response","424","433405","0.0-1.0-579.0","0","0","69770","","null","","","null","64","NaN","","","","","","","","","","","","","","",""
"","S2","","html-keyboard-response","425","433603","0.0-1.0-580.0","0","0","69770","","195","","","68","64","","d","2","64","training","adjacent","AB","1","2","L.jpg","M.jpg","1","1","1","",""
"","feedback","","html-keyboard-response","426","434606","0.0-1.0-582.0-0.0","0","0","69770","","null","","","null","64","","","","","","","","","","","","","","","",""
"","ITI","","html-keyboard-response","427","435610","0.0-1.0-585.0","0","0","69770","","null","","","null","64","","","","","","","","","","","","","","","NaN",""
"","S1","","html-keyboard-response","428","435864","0.0-1.0-587.0","0","0","69770","","null","","","null","65","","","","","","","","","","","","","","","",""
"","ISI","","html-keyboard-response","429","436868","0.0-1.0-588.0","0","0","69770","","null","","","null","65","NaN","","","","","","","","","","","","","","",""
"","S2","","html-keyboard-response","430","437121","0.0-1.0-589.0","0","0","69770","","null","","","null","65","","NaN","","","","","","","","","","","","","",""
"","response","","html-keyboard-response","431","437214","0.0-1.0-590.0-0.0","0","0","69770","","90","","","68","65","","","2","65","training","adjacent","BA","2","1","M.jpg","L.jpg","1","0","0","",""
"","feedback","","html-keyboard-response","432","438218","0.0-1.0-591.0-0.0","0","0","69770","","null","","","null","65","","","","","","","","","","","","","","","",""
"","time_out","","html-keyboard-response","433","440222","0.0-1.0-593.0-0.0","0","0","69770","","null","","","null","65","","","","","","","","","","","","","","","",""
"","ITI","","html-keyboard-response","434","441226","0.0-1.0-594.0","0","0","69770","","null","","","null","65","","","","","","","","","","","","","","","NaN",""
"","S1","","html-keyboard-response","435","441480","0.0-1.0-596.0","0","0","69770","","null","","","null","66","","","","","","","","","","","","","","","",""
"","ISI","","html-keyboard-response","436","442483","0.0-1.0-597.0","0","0","69770","","null","","","null","66","NaN","","","","","","","","","","","","","","",""
"","S2","","html-keyboard-response","437","442737","0.0-1.0-598.0","0","0","69770","","null","","","null","66","","NaN","","","","","","","","","","","","","",""
"","response","","html-keyboard-response","438","443028","0.0-1.0-599.0-0.0","0","0","69770","","288","","","75","66","","","2","66","training","adjacent","EF","5","6","N.jpg","O.jpg","0","1","0","",""
"","feedback","","html-keyboard-response","439","444031","0.0-1.0-600.0-0.0","0","0","69770","","null","","","null","66","","","","","","","","","","","","","","","",""
"","time_out","","html-keyboard-response","440","446035","0.0-1.0-602.0-0.0","0","0","69770","","null","","","null","66","","","","","","","","","","","","","","","",""
"","ITI","","html-keyboard-response","441","447038","0.0-1.0-603.0","0","0","69770","","null","","","null","66","","","","","","","","","","","","","","","NaN",""
"","S1","","html-keyboard-response","442","447291","0.0-1.0-605.0","0","0","69770","","null","","","null","67","","","","","","","","","","","","","","","",""
"","ISI","","html-keyboard-response","443","448295","0.0-1.0-606.0","0","0","69770","","null","","","null","67","NaN","","","","","","","","","","","","","","",""
"","S2","","html-keyboard-response","444","448549","0.0-1.0-607.0","0","0","69770","","null","","","null","67","","NaN","","","","","","","","","","","","","",""
"","response","","html-keyboard-response","445","449054","0.0-1.0-608.0-0.0","0","0","69770","","502","","","68","67","","","2","67","training","adjacent","ED","5","4","N.jpg","R.jpg","1","0","0","",""
"","feedback","","html-keyboard-response","446","450059","0.0-1.0-609.0-0.0","0","0","69770","","null","","","null","67","","","","","","","","","","","","","","","",""
"","time_out","","html-keyboard-response","447","452062","0.0-1.0-611.0-0.0","0","0","69770","","null","","","null","67","","","","","","","","","","","","","","","",""
"","ITI","","html-keyboard-response","448","453065","0.0-1.0-612.0","0","0","69770","","null","","","null","67","","","","","","","","","","","","","","","NaN",""
"","S1","","html-keyboard-response","449","453319","0.0-1.0-614.0","0","0","69770","","null","","","null","68","","","","","","","","","","","","","","","",""
"","ISI","","html-keyboard-response","450","454322","0.0-1.0-615.0","0","0","69770","","null","","","null","68","NaN","","","","","","","","","","","","","","",""
"","S2","","html-keyboard-response","451","454575","0.0-1.0-616.0","0","0","69770","","null","","","null","68","","NaN","","","","","","","","","","","","","",""
"","response","","html-keyboard-response","452","454982","0.0-1.0-617.0-0.0","0","0","69770","","404","","","75","68","","","2","68","training","adjacent","GF","7","6","P.jpg","O.jpg","0","0","1","",""
"","feedback","","html-keyboard-response","453","455985","0.0-1.0-618.0-0.0","0","0","69770","","null","","","null","68","","","","","","","","","","","","","","","",""
"","ITI","","html-keyboard-response","454","456989","0.0-1.0-621.0","0","0","69770","","null","","","null","68","","","","","","","","","","","","","","","NaN",""
"","S1","","html-keyboard-response","455","457242","0.0-1.0-623.0","0","0","69770","","null","","","null","69","","","","","","","","","","","","","","","",""
"","ISI","","html-keyboard-response","456","458246","0.0-1.0-624.0","0","0","69770","","null","","","null","69","NaN","","","","","","","","","","","","","","",""
"","S2","","html-keyboard-response","457","458499","0.0-1.0-625.0","0","0","69770","","null","","","null","69","","NaN","","","","","","","","","","","","","",""
"","response","","html-keyboard-response","458","459316","0.0-1.0-626.0-0.0","0","0","69770","","814","","","68","69","","","2","69","training","adjacent","BC","2","3","M.jpg","Q.jpg","1","1","1","",""
"","feedback","","html-keyboard-response","459","460320","0.0-1.0-627.0-0.0","0","0","69770","","null","","","null","69","","","","","","","","","","","","","","","",""
"","ITI","","html-keyboard-response","460","461324","0.0-1.0-630.0","0","0","69770","","null","","","null","69","","","","","","","","","","","","","","","NaN",""
"","S1","","html-keyboard-response","461","461578","0.0-1.0-632.0","0","0","69770","","null","","","null","70","","","","","","","","","","","","","","","",""
"","ISI","","html-keyboard-response","462","462581","0.0-1.0-633.0","0","0","69770","","null","","","null","70","NaN","","","","","","","","","","","","","","",""
"","S2","","html-keyboard-response","463","462835","0.0-1.0-634.0","0","0","69770","","null","","","null","70","","NaN","","","","","","","","","","","","","",""
"","response","","html-keyboard-response","464","463382","0.0-1.0-635.0-0.0","0","0","69770","","544","","","75","70","","","2","70","training","adjacent","DE","4","5","R.jpg","N.jpg","0","1","0","",""
"","feedback","","html-keyboard-response","465","464387","0.0-1.0-636.0-0.0","0","0","69770","","null","","","null","70","","","","","","","","","","","","","","","",""
"","time_out","","html-keyboard-response","466","466391","0.0-1.0-638.0-0.0","0","0","69770","","null","","","null","70","","","","","","","","","","","","","","","",""
"","ITI","","html-keyboard-response","467","467396","0.0-1.0-639.0","0","0","69770","","null","","","null","70","","","","","","","","","","","","","","","NaN",""
"","S1","","html-keyboard-response","468","467650","0.0-1.0-641.0","0","0","69770","","null","","","null","71","","","","","","","","","","","","","","","",""
"","ISI","","html-keyboard-response","469","468653","0.0-1.0-642.0","0","0","69770","","null","","","null","71","NaN","","","","","","","","","","","","","","",""
"","S2","","html-keyboard-response","470","468906","0.0-1.0-643.0","0","0","69770","","null","","","null","71","","NaN","","","","","","","","","","","","","",""
"","response","","html-keyboard-response","471","469477","0.0-1.0-644.0-0.0","0","0","69770","","570","","","68","71","","","2","71","training","adjacent","FE","6","5","O.jpg","N.jpg","1","0","0","",""
"","feedback","","html-keyboard-response","472","470481","0.0-1.0-645.0-0.0","0","0","69770","","null","","","null","71","","","","","","","","","","","","","","","",""
"","time_out","","html-keyboard-response","473","472484","0.0-1.0-647.0-0.0","0","0","69770","","null","","","null","71","","","","","","","","","","","","","","","",""
"","ITI","","html-keyboard-response","474","473488","0.0-1.0-648.0","0","0","69770","","null","","","null","71","","","","","","","","","","","","","","","NaN",""
"","S1","","html-keyboard-response","475","473742","0.0-1.0-650.0","0","0","69770","","null","","","null","72","","","","","","","","","","","","","","","",""
"","ISI","","html-keyboard-response","476","474746","0.0-1.0-651.0","0","0","69770","","null","","","null","72","NaN","","","","","","","","","","","","","","",""
"","S2","","html-keyboard-response","477","475000","0.0-1.0-652.0","0","0","69770","","null","","","null","72","","NaN","","","","","","","","","","","","","",""
"","response","","html-keyboard-response","478","475409","0.0-1.0-653.0-0.0","0","0","69770","","406","","","75","72","","","2","72","training","adjacent","CD","3","4","Q.jpg","R.jpg","0","1","0","",""
"","feedback","","html-keyboard-response","479","476413","0.0-1.0-654.0-0.0","0","0","69770","","null","","","null","72","","","","","","","","","","","","","","","",""
"","time_out","","html-keyboard-response","480","478418","0.0-1.0-656.0-0.0","0","0","69770","","null","","","null","72","","","","","","","","","","","","","","","",""
"","ITI","","html-keyboard-response","481","479421","0.0-1.0-657.0","0","0","69770","","null","","","null","72","","","","","","","","","","","","","","","NaN",""
"","S1","","html-keyboard-response","482","479675","0.0-1.0-659.0","0","0","69770","","null","","","null","73","","","","","","","","","","","","","","","",""
"","ISI","","html-keyboard-response","483","480679","0.0-1.0-660.0","0","0","69770","","null","","","null","73","NaN","","","","","","","","","","","","","","",""
"","S2","","html-keyboard-response","484","480933","0.0-1.0-661.0","0","0","69770","","null","","","null","73","","NaN","","","","","","","","","","","","","",""
"","response","","html-keyboard-response","485","481256","0.0-1.0-662.0-0.0","0","0","69770","","320","","","68","73","","","2","73","training","adjacent","ED","5","4","N.jpg","R.jpg","1","0","0","",""
"","feedback","","html-keyboard-response","486","482260","0.0-1.0-663.0-0.0","0","0","69770","","null","","","null","73","","","","","","","","","","","","","","","",""
"","time_out","","html-keyboard-response","487","484264","0.0-1.0-665.0-0.0","0","0","69770","","null","","","null","73","","","","","","","","","","","","","","","",""
"","ITI","","html-keyboard-response","488","485267","0.0-1.0-666.0","0","0","69770","","null","","","null","73","","","","","","","","","","","","","","","NaN",""
"","S1","","html-keyboard-response","489","485521","0.0-1.0-668.0","0","0","69770","","null","","","null","74","","","","","","","","","","","","","","","",""
"","ISI","","html-keyboard-response","490","486525","0.0-1.0-669.0","0","0","69770","","289","","","75","74","k","","","","","","","","","","","","","","",""
"","S2","","html-keyboard-response","491","486779","0.0-1.0-670.0","0","0","69770","","null","","","null","74","","NaN","","","","","","","","","","","","","",""
"","response","","html-keyboard-response","492","487263","0.0-1.0-671.0-0.0","0","0","69770","","481","","","75","74","","","2","74","training","adjacent","FG","6","7","O.jpg","P.jpg","0","1","0","",""
"","feedback","","html-keyboard-response","493","488267","0.0-1.0-672.0-0.0","0","0","69770","","null","","","null","74","","","","","","","","","","","","","","","",""
"","time_out","","html-keyboard-response","494","490270","0.0-1.0-674.0-0.0","0","0","69770","","null","","","null","74","","","","","","","","","","","","","","","",""
"","ITI","","html-keyboard-response","495","491274","0.0-1.0-675.0","0","0","69770","","null","","","null","74","","","","","","","","","","","","","","","NaN",""
"","S1","","html-keyboard-response","496","491528","0.0-1.0-677.0","0","0","69770","","null","","","null","75","","","","","","","","","","","","","","","",""
"","ISI","","html-keyboard-response","497","492533","0.0-1.0-678.0","0","0","69770","","443","","","68","75","d","","","","","","","","","","","","","","",""
"","S2","","html-keyboard-response","498","492788","0.0-1.0-679.0","0","0","69770","","null","","","null","75","","NaN","","","","","","","","","","","","","",""
"","response","","html-keyboard-response","499","493054","0.0-1.0-680.0-0.0","0","0","69770","","263","","","68","75","","","2","75","training","adjacent","DC","4","3","R.jpg","Q.jpg","1","0","0","",""
"","feedback","","html-keyboard-response","500","494058","0.0-1.0-681.0-0.0","0","0","69770","","null","","","null","75","","","","","","","","","","","","","","","",""
"","time_out","","html-keyboard-response","501","496062","0.0-1.0-683.0-0.0","0","0","69770","","null","","","null","75","","","","","","","","","","","","","","","",""
"","ITI","","html-keyboard-response","502","497067","0.0-1.0-684.0","0","0","69770","","null","","","null","75","","","","","","","","","","","","","","","NaN",""
"","S1","","html-keyboard-response","503","497321","0.0-1.0-686.0","0","0","69770","","null","","","null","76","","","","","","","","","","","","","","","",""
"","ISI","","html-keyboard-response","504","498324","0.0-1.0-687.0","0","0","69770","","null","","","null","76","NaN","","","","","","","","","","","","","","",""
"","S2","","html-keyboard-response","505","498578","0.0-1.0-688.0","0","0","69770","","null","","","null","76","","NaN","","","","","","","","","","","","","",""
"","response","","html-keyboard-response","506","498629","0.0-1.0-689.0-0.0","0","0","69770","","49","","","75","76","","","2","76","training","adjacent","DC","4","3","R.jpg","Q.jpg","0","0","1","",""
"","feedback","","html-keyboard-response","507","499633","0.0-1.0-690.0-0.0","0","0","69770","","null","","","null","76","","","","","","","","","","","","","","","",""
"","ITI","","html-keyboard-response","508","500637","0.0-1.0-693.0","0","0","69770","","null","","","null","76","","","","","","","","","","","","","","","NaN",""
"","S1","","html-keyboard-response","509","500892","0.0-1.0-695.0","0","0","69770","","null","","","null","77","","","","","","","","","","","","","","","",""
"","ISI","","html-keyboard-response","510","501894","0.0-1.0-696.0","0","0","69770","","null","","","null","77","NaN","","","","","","","","","","","","","","",""
"","S2","","html-keyboard-response","511","502148","0.0-1.0-697.0","0","0","69770","","null","","","null","77","","NaN","","","","","","","","","","","","","",""
"","response","","html-keyboard-response","512","502434","0.0-1.0-698.0-0.0","0","0","69770","","283","","","68","77","","","2","77","training","adjacent","FE","6","5","O.jpg","N.jpg","1","0","0","",""
"","feedback","","html-keyboard-response","513","503438","0.0-1.0-699.0-0.0","0","0","69770","","null","","","null","77","","","","","","","","","","","","","","","",""
"","time_out","","html-keyboard-response","514","505443","0.0-1.0-701.0-0.0","0","0","69770","","null","","","null","77","","","","","","","","","","","","","","","",""
"","ITI","","html-keyboard-response","515","506447","0.0-1.0-702.0","0","0","69770","","null","","","null","77","","","","","","","","","","","","","","","NaN",""
"","S1","","html-keyboard-response","516","506700","0.0-1.0-704.0","0","0","69770","","null","","","null","78","","","","","","","","","","","","","","","",""
"","ISI","","html-keyboard-response","517","507703","0.0-1.0-705.0","0","0","69770","","null","","","null","78","NaN","","","","","","","","","","","","","","",""
"","S2","","html-keyboard-response","518","507958","0.0-1.0-706.0","0","0","69770","","null","","","null","78","","NaN","","","","","","","","","","","","","",""
"","response","","html-keyboard-response","519","508456","0.0-1.0-707.0-0.0","0","0","69770","","495","","","75","78","","","2","78","training","adjacent","FE","6","5","O.jpg","N.jpg","0","0","1","",""
"","feedback","","html-keyboard-response","520","509461","0.0-1.0-708.0-0.0","0","0","69770","","null","","","null","78","","","","","","","","","","","","","","","",""
"","ITI","","html-keyboard-response","521","510465","0.0-1.0-711.0","0","0","69770","","null","","","null","78","","","","","","","","","","","","","","","NaN",""
"","S1","","html-keyboard-response","522","510719","0.0-1.0-713.0","0","0","69770","","null","","","null","79","","","","","","","","","","","","","","","",""
"","ISI","","html-keyboard-response","523","511722","0.0-1.0-714.0","0","0","69770","","null","","","null","79","NaN","","","","","","","","","","","","","","",""
"","S2","","html-keyboard-response","524","511976","0.0-1.0-715.0","0","0","69770","","null","","","null","79","","NaN","","","","","","","","","","","","","",""
"","response","","html-keyboard-response","525","512614","0.0-1.0-716.0-0.0","0","0","69770","","635","","","68","79","","","2","79","training","adjacent","AB","1","2","L.jpg","M.jpg","1","1","1","",""
"","feedback","","html-keyboard-response","526","513618","0.0-1.0-717.0-0.0","0","0","69770","","null","","","null","79","","","","","","","","","","","","","","","",""
"","ITI","","html-keyboard-response","527","514622","0.0-1.0-720.0","0","0","69770","","null","","","null","79","","","","","","","","","","","","","","","NaN",""
"","S1","","html-keyboard-response","528","514876","0.0-1.0-722.0","0","0","69770","","null","","","null","80","","","","","","","","","","","","","","","",""
"","ISI","","html-keyboard-response","529","515878","0.0-1.0-723.0","0","0","69770","","null","","","null","80","NaN","","","","","","","","","","","","","","",""
"","S2","","html-keyboard-response","530","516132","0.0-1.0-724.0","0","0","69770","","null","","","null","80","","NaN","","","","","","","","","","","","","",""
"","response","","html-keyboard-response","531","516618","0.0-1.0-725.0-0.0","0","0","69770","","483","","","75","80","","","2","80","training","adjacent","GF","7","6","P.jpg","O.jpg","0","0","1","",""
"","feedback","","html-keyboard-response","532","517621","0.0-1.0-726.0-0.0","0","0","69770","","null","","","null","80","","","","","","","","","","","","","","","",""
"","ITI","","html-keyboard-response","533","518625","0.0-1.0-729.0","0","0","69770","","null","","","null","80","","","","","","","","","","","","","","","NaN",""
"","S1","","html-keyboard-response","534","518879","0.0-1.0-731.0","0","0","69770","","null","","","null","81","","","","","","","","","","","","","","","",""
"","ISI","","html-keyboard-response","535","519882","0.0-1.0-732.0","0","0","69770","","null","","","null","81","NaN","","","","","","","","","","","","","","",""
"","S2","","html-keyboard-response","536","520137","0.0-1.0-733.0","0","0","69770","","null","","","null","81","","NaN","","","","","","","","","","","","","",""
"","response","","html-keyboard-response","537","520760","0.0-1.0-734.0-0.0","0","0","69770","","619","","","68","81","","","2","81","training","adjacent","CB","3","2","Q.jpg","M.jpg","1","0","0","",""
"","feedback","","html-keyboard-response","538","521765","0.0-1.0-735.0-0.0","0","0","69770","","null","","","null","81","","","","","","","","","","","","","","","",""
"","time_out","","html-keyboard-response","539","523769","0.0-1.0-737.0-0.0","0","0","69770","","null","","","null","81","","","","","","","","","","","","","","","",""
"","ITI","","html-keyboard-response","540","524772","0.0-1.0-738.0","0","0","69770","","null","","","null","81","","","","","","","","","","","","","","","NaN",""
"","S1","","html-keyboard-response","541","525025","0.0-1.0-740.0","0","0","69770","","null","","","null","82","","","","","","","","","","","","","","","",""
"","ISI","","html-keyboard-response","542","526029","0.0-1.0-741.0","0","0","69770","","null","","","null","82","NaN","","","","","","","","","","","","","","",""
"","S2","","html-keyboard-response","543","526283","0.0-1.0-742.0","0","0","69770","","null","","","null","82","","NaN","","","","","","","","","","","","","",""
"","response","","html-keyboard-response","544","526898","0.0-1.0-743.0-0.0","0","0","69770","","612","","","75","82","","","2","82","training","adjacent","ED","5","4","N.jpg","R.jpg","0","0","1","",""
"","feedback","","html-keyboard-response","545","527902","0.0-1.0-744.0-0.0","0","0","69770","","null","","","null","82","","","","","","","","","","","","","","","",""
"","ITI","","html-keyboard-response","546","528905","0.0-1.0-747.0","0","0","69770","","null","","","null","82","","","","","","","","","","","","","","","NaN",""
"","S1","","html-keyboard-response","547","529159","0.0-1.0-749.0","0","0","69770","","null","","","null","83","","","","","","","","","","","","","","","",""
"","ISI","","html-keyboard-response","548","530162","0.0-1.0-750.0","0","0","69770","","null","","","null","83","NaN","","","","","","","","","","","","","","",""
"","S2","","html-keyboard-response","549","530417","0.0-1.0-751.0","0","0","69770","","null","","","null","83","","NaN","","","","","","","","","","","","","",""
"","response","","html-keyboard-response","550","530853","0.0-1.0-752.0-0.0","0","0","69770","","433","","","68","83","","","2","83","training","adjacent","CB","3","2","Q.jpg","M.jpg","1","0","0","",""
"","feedback","","html-keyboard-response","551","531858","0.0-1.0-753.0-0.0","0","0","69770","","null","","","null","83","","","","","","","","","","","","","","","",""
"","time_out","","html-keyboard-response","552","533861","0.0-1.0-755.0-0.0","0","0","69770","","null","","","null","83","","","","","","","","","","","","","","","",""
"","ITI","","html-keyboard-response","553","534865","0.0-1.0-756.0","0","0","69770","","null","","","null","83","","","","","","","","","","","","","","","NaN",""
"","S1","","html-keyboard-response","554","535119","0.0-1.0-758.0","0","0","69770","","null","","","null","84","","","","","","","","","","","","","","","",""
"","ISI","","html-keyboard-response","555","536122","0.0-1.0-759.0","0","0","69770","","null","","","null","84","NaN","","","","","","","","","","","","","","",""
"","S2","","html-keyboard-response","556","536377","0.0-1.0-760.0","0","0","69770","","null","","","null","84","","NaN","","","","","","","","","","","","","",""
"","response","","html-keyboard-response","557","537332","0.0-1.0-761.0-0.0","0","0","69770","","952","","","68","84","","","2","84","training","adjacent","DE","4","5","R.jpg","N.jpg","1","1","1","",""
"","feedback","","html-keyboard-response","558","538337","0.0-1.0-762.0-0.0","0","0","69770","","null","","","null","84","","","","","","","","","","","","","","","",""
"","ITI","","html-keyboard-response","559","539341","0.0-1.0-765.0","0","0","69770","","null","","","null","84","","","","","","","","","","","","","","","NaN",""
"","S1","","html-keyboard-response","560","539595","0.0-1.0-767.0","0","0","69770","","null","","","null","85","","","","","","","","","","","","","","","",""
"","ISI","","html-keyboard-response","561","540598","0.0-1.0-768.0","0","0","69770","","null","","","null","85","NaN","","","","","","","","","","","","","","",""
"","S2","","html-keyboard-response","562","540856","0.0-1.0-769.0","0","0","69770","","null","","","null","85","","NaN","","","","","","","","","","","","","",""
"","response","","html-keyboard-response","563","541640","0.0-1.0-770.0-0.0","0","0","69770","","781","","","68","85","","","2","85","training","adjacent","DC","4","3","R.jpg","Q.jpg","1","0","0","",""
"","feedback","","html-keyboard-response","564","542644","0.0-1.0-771.0-0.0","0","0","69770","","null","","","null","85","","","","","","","","","","","","","","","",""
"","time_out","","html-keyboard-response","565","544648","0.0-1.0-773.0-0.0","0","0","69770","","null","","","null","85","","","","","","","","","","","","","","","",""
"","ITI","","html-keyboard-response","566","545652","0.0-1.0-774.0","0","0","69770","","null","","","null","85","","","","","","","","","","","","","","","NaN",""
"","S1","","html-keyboard-response","567","545905","0.0-1.0-776.0","0","0","69770","","null","","","null","86","","","","","","","","","","","","","","","",""
"","ISI","","html-keyboard-response","568","546908","0.0-1.0-777.0","0","0","69770","","null","","","null","86","NaN","","","","","","","","","","","","","","",""
"","S2","","html-keyboard-response","569","547162","0.0-1.0-778.0","0","0","69770","","null","","","null","86","","NaN","","","","","","","","","","","","","",""
"","response","","html-keyboard-response","570","547836","0.0-1.0-779.0-0.0","0","0","69770","","671","","","75","86","","","2","86","training","adjacent","ED","5","4","N.jpg","R.jpg","0","0","1","",""
"","feedback","","html-keyboard-response","571","548840","0.0-1.0-780.0-0.0","0","0","69770","","null","","","null","86","","","","","","","","","","","","","","","",""
"","ITI","","html-keyboard-response","572","549844","0.0-1.0-783.0","0","0","69770","","null","","","null","86","","","","","","","","","","","","","","","NaN",""
"","S1","","html-keyboard-response","573","550097","0.0-1.0-785.0","0","0","69770","","null","","","null","87","","","","","","","","","","","","","","","",""
"","ISI","","html-keyboard-response","574","551100","0.0-1.0-786.0","0","0","69770","","null","","","null","87","NaN","","","","","","","","","","","","","","",""
"","S2","","html-keyboard-response","575","551354","0.0-1.0-787.0","0","0","69770","","null","","","null","87","","NaN","","","","","","","","","","","","","",""
"","response","","html-keyboard-response","576","552434","0.0-1.0-788.0-0.0","0","0","69770","","1077","","","68","87","","","2","87","training","adjacent","CD","3","4","Q.jpg","R.jpg","1","1","1","",""
"","feedback","","html-keyboard-response","577","553438","0.0-1.0-789.0-0.0","0","0","69770","","null","","","null","87","","","","","","","","","","","","","","","",""
"","ITI","","html-keyboard-response","578","554442","0.0-1.0-792.0","0","0","69770","","null","","","null","87","","","","","","","","","","","","","","","NaN",""
"","S1","","html-keyboard-response","579","554696","0.0-1.0-794.0","0","0","69770","","null","","","null","88","","","","","","","","","","","","","","","",""
"","ISI","","html-keyboard-response","580","555700","0.0-1.0-795.0","0","0","69770","","null","","","null","88","NaN","","","","","","","","","","","","","","",""
"","S2","","html-keyboard-response","581","555953","0.0-1.0-796.0","0","0","69770","","null","","","null","88","","NaN","","","","","","","","","","","","","",""
"","response","","html-keyboard-response","582","557234","0.0-1.0-797.0-0.0","0","0","69770","","1278","","","68","88","","","2","88","training","adjacent","CD","3","4","Q.jpg","R.jpg","1","1","1","",""
