"success","ttype","start_time","trial_type","trial_index","time_elapsed","internal_node_id","warning","missed_checkup","PID","view_history","rt","responses","repeat_instructions","key_press","index","keypress_isi","keypress_S2","block","trial_num","phase","group_type","pair_type","S1_stim","S2_stim","S1_img","S2_img","S1_chosen","S1_higher","accuracy","keypress_iti","total_bonus_tally"
"true","full_screen","d03042023hr0144","fullscreen","0","3074","0.0-0.0","0","0","49947","","","","","","","","","","","","","","","","","","","","","",""
"","instructions","","instructions","1","14814","0.0-1.0-0.0-0.0","0","0","49947","[{""page_index"":0,""viewing_time"":2819},{""page_index"":1,""viewing_time"":2641},{""page_index"":2,""viewing_time"":3655},{""page_index"":3,""viewing_time"":2623}]","11739","","","","","","","","","","","","","","","","","","","",""
"","comprehension_check","","survey-multi-choice","2","27737","0.0-1.0-0.0-1.0","0","0","49947","","12919","{""Q0"":""True"",""Q1"":""D"",""Q2"":""Only while the second image is shown"",""Q3"":""Green mark"",""Q4"":""either D or K""}","1","","","","","","","","","","","","","","","","","",""
"","missed_instruction_checkup","","html-keyboard-response","3","32136","0.0-1.0-0.0-2.0-0.0","0","1","49947","","4396","","","32","","","","","","","","","","","","","","","","",""
"","instructions","","instructions","4","52672","0.0-1.0-0.1-0.1","0","0","49947","[{""page_index"":0,""viewing_time"":2086},{""page_index"":1,""viewing_time"":12751},{""page_index"":2,""viewing_time"":2088},{""page_index"":3,""viewing_time"":3609}]","20534","","","","","","","","","","","","","","","","","","","",""
"","comprehension_check","","survey-multi-choice","5","65648","0.0-1.0-0.1-1.1","0","0","49947","","12970","{""Q0"":""True"",""Q1"":""K"",""Q2"":""Only when the screen 'MAKE A CHOICE' is shown"",""Q3"":""Green mark"",""Q4"":""either D or K""}","1","","","","","","","","","","","","","","","","","",""
"","missed_instruction_checkup","","html-keyboard-response","6","75244","0.0-1.0-0.1-2.1-0.1","0","1","49947","","9594","","","32","","","","","","","","","","","","","","","","",""
"","instructions","","instructions","7","84828","0.0-1.0-0.2-0.2","0","0","49947","[{""page_index"":0,""viewing_time"":1873},{""page_index"":1,""viewing_time"":3739},{""page_index"":2,""viewing_time"":1981},{""page_index"":3,""viewing_time"":1989}]","9583","","","","","","","","","","","","","","","","","","","",""
"","comprehension_check","","survey-multi-choice","8","98035","0.0-1.0-0.2-1.2","0","0","49947","","13202","{""Q0"":""False"",""Q1"":""K"",""Q2"":""Only when the screen 'MAKE A CHOICE' is shown"",""Q3"":""Green mark"",""Q4"":""either D or K""}","1","","","","","","","","","","","","","","","","","",""
"","missed_instruction_checkup","","html-keyboard-response","9","99097","0.0-1.0-0.2-2.2-0.2","0","1","49947","","1060","","","32","","","","","","","","","","","","","","","","",""
"","instructions","","instructions","10","109809","0.0-1.0-0.3-0.3","0","0","49947","[{""page_index"":0,""viewing_time"":2027},{""page_index"":1,""viewing_time"":4056},{""page_index"":2,""viewing_time"":3697},{""page_index"":3,""viewing_time"":928}]","10709","","","","","","","","","","","","","","","","","","","",""
"","comprehension_check","","survey-multi-choice","11","121759","0.0-1.0-0.3-1.3","0","0","49947","","11941","{""Q0"":""False"",""Q1"":""K"",""Q2"":""Only while the second image is shown"",""Q3"":""Red cross"",""Q4"":""either D or K""}","1","","","","","","","","","","","","","","","","","",""
"","missed_instruction_checkup","","html-keyboard-response","12","123247","0.0-1.0-0.3-2.3-0.3","0","1","49947","","1487","","","32","","","","","","","","","","","","","","","","",""
"","instructions","","instructions","13","140118","0.0-1.0-0.4-0.4","0","0","49947","[{""page_index"":0,""viewing_time"":4085},{""page_index"":1,""viewing_time"":8023},{""page_index"":2,""viewing_time"":3480},{""page_index"":3,""viewing_time"":1281}]","16869","","","","","","","","","","","","","","","","","","","",""
"","comprehension_check","","survey-multi-choice","14","153631","0.0-1.0-0.4-1.4","0","0","49947","","13508","{""Q0"":""True"",""Q1"":""D"",""Q2"":""Once the second image appears and while the screen 'MAKE A CHOICE' is shown"",""Q3"":""Green mark"",""Q4"":""Use a mouse""}","1","","","","","","","","","","","","","","","","","",""
"","missed_instruction_checkup","","html-keyboard-response","15","156740","0.0-1.0-0.4-2.4-0.4","0","1","49947","","3106","","","32","","","","","","","","","","","","","","","","",""
"","instructions","","instructions","16","171052","0.0-1.0-0.5-0.5","0","0","49947","[{""page_index"":0,""viewing_time"":2593},{""page_index"":1,""viewing_time"":7823},{""page_index"":2,""viewing_time"":2208},{""page_index"":3,""viewing_time"":1687}]","14311","","","","","","","","","","","","","","","","","","","",""
"","comprehension_check","","survey-multi-choice","17","188237","0.0-1.0-0.5-1.5","0","0","49947","","17177","{""Q0"":""True"",""Q1"":""K"",""Q2"":""Only when the screen 'MAKE A CHOICE' is shown"",""Q3"":""Green mark"",""Q4"":""either D or K""}","1","","","","","","","","","","","","","","","","","",""
"","missed_instruction_checkup","","html-keyboard-response","18","190242","0.0-1.0-0.5-2.5-0.5","0","1","49947","","2003","","","32","","","","","","","","","","","","","","","","",""
"","instructions","","instructions","19","200868","0.0-1.0-0.6-0.6","0","0","49947","[{""page_index"":0,""viewing_time"":1648},{""page_index"":1,""viewing_time"":4553},{""page_index"":2,""viewing_time"":2455},{""page_index"":3,""viewing_time"":1969}]","10625","","","","","","","","","","","","","","","","","","","",""
"","comprehension_check","","survey-multi-choice","20","212691","0.0-1.0-0.6-1.6","0","0","49947","","11818","{""Q0"":""True"",""Q1"":""K"",""Q2"":""Only when the screen 'MAKE A CHOICE' is shown"",""Q3"":""Green mark"",""Q4"":""either D or K""}","1","","","","","","","","","","","","","","","","","",""
"","missed_instruction_checkup","","html-keyboard-response","21","214104","0.0-1.0-0.6-2.6-0.6","0","1","49947","","1411","","","32","","","","","","","","","","","","","","","","",""
"","instructions","","instructions","22","224310","0.0-1.0-0.7-0.7","0","0","49947","[{""page_index"":0,""viewing_time"":3474},{""page_index"":1,""viewing_time"":2032},{""page_index"":2,""viewing_time"":2279},{""page_index"":3,""viewing_time"":2420}]","10205","","","","","","","","","","","","","","","","","","","",""
"","comprehension_check","","survey-multi-choice","23","235794","0.0-1.0-0.7-1.7","0","0","49947","","11476","{""Q0"":""True"",""Q1"":""D"",""Q2"":""Only when the screen 'MAKE A CHOICE' is shown"",""Q3"":""Green mark"",""Q4"":""either D or K""}","1","","","","","","","","","","","","","","","","","",""
"","missed_instruction_checkup","","html-keyboard-response","24","237393","0.0-1.0-0.7-2.7-0.7","0","1","49947","","1598","","","32","","","","","","","","","","","","","","","","",""
"","instructions","","instructions","25","285114","0.0-1.0-0.8-0.8","0","0","49947","[{""page_index"":0,""viewing_time"":7049},{""page_index"":1,""viewing_time"":36143},{""page_index"":2,""viewing_time"":2999},{""page_index"":3,""viewing_time"":1528}]","47719","","","","","","","","","","","","","","","","","","","",""
"","comprehension_check","","survey-multi-choice","26","294868","0.0-1.0-0.8-1.8","0","0","49947","","9748","{""Q0"":""True"",""Q1"":""K"",""Q2"":""Only when the screen 'MAKE A CHOICE' is shown"",""Q3"":""Green mark"",""Q4"":""either D or K""}","1","","","","","","","","","","","","","","","","","",""
"","missed_instruction_checkup","","html-keyboard-response","27","296709","0.0-1.0-0.8-2.8-0.8","0","1","49947","","1840","","","32","","","","","","","","","","","","","","","","",""
"","instructions","","instructions","28","310050","0.0-1.0-0.9-0.9","0","0","49947","[{""page_index"":0,""viewing_time"":2026},{""page_index"":1,""viewing_time"":8322},{""page_index"":2,""viewing_time"":2120},{""page_index"":3,""viewing_time"":872}]","13340","","","","","","","","","","","","","","","","","","","",""
"","comprehension_check","","survey-multi-choice","29","320939","0.0-1.0-0.9-1.9","0","0","49947","","10884","{""Q0"":""False"",""Q1"":""K"",""Q2"":""Only when the screen 'MAKE A CHOICE' is shown"",""Q3"":""Green mark"",""Q4"":""either D or K""}","1","","","","","","","","","","","","","","","","","",""
"","missed_instruction_checkup","","html-keyboard-response","30","324088","0.0-1.0-0.9-2.9-0.9","0","1","49947","","3148","","","32","","","","","","","","","","","","","","","","",""
"","instructions","","instructions","31","340089","0.0-1.0-0.10-0.10","0","0","49947","[{""page_index"":0,""viewing_time"":2814},{""page_index"":1,""viewing_time"":1617},{""page_index"":2,""viewing_time"":10153},{""page_index"":3,""viewing_time"":1415}]","16000","","","","","","","","","","","","","","","","","","","",""
"","comprehension_check","","survey-multi-choice","32","351177","0.0-1.0-0.10-1.10","0","0","49947","","11081","{""Q0"":""True"",""Q1"":""K"",""Q2"":""Only when the screen 'MAKE A CHOICE' is shown"",""Q3"":""Green mark"",""Q4"":""either D or K""}","1","","","","","","","","","","","","","","","","","",""
"","missed_instruction_checkup","","html-keyboard-response","33","353286","0.0-1.0-0.10-2.10-0.10","0","1","49947","","2107","","","32","","","","","","","","","","","","","","","","",""
"","instructions","","instructions","34","360736","0.0-1.0-0.11-0.11","0","0","49947","[{""page_index"":0,""viewing_time"":2364},{""page_index"":1,""viewing_time"":2287},{""page_index"":2,""viewing_time"":1463},{""page_index"":3,""viewing_time"":1336}]","7450","","","","","","","","","","","","","","","","","","","",""
"","comprehension_check","","survey-multi-choice","35","372729","0.0-1.0-0.11-1.11","0","0","49947","","11984","{""Q0"":""True"",""Q1"":""D"",""Q2"":""Only when the screen 'MAKE A CHOICE' is shown"",""Q3"":""Green mark"",""Q4"":""either D or K""}","1","","","","","","","","","","","","","","","","","",""
"","missed_instruction_checkup","","html-keyboard-response","36","377502","0.0-1.0-0.11-2.11-0.11","0","1","49947","","4771","","","32","","","","","","","","","","","","","","","","",""
"","instructions","","instructions","37","394232","0.0-1.0-0.12-0.12","0","0","49947","[{""page_index"":0,""viewing_time"":5001},{""page_index"":1,""viewing_time"":7065},{""page_index"":2,""viewing_time"":3296},{""page_index"":3,""viewing_time"":1367}]","16730","","","","","","","","","","","","","","","","","","","",""
"","comprehension_check","","survey-multi-choice","38","406321","0.0-1.0-0.12-1.12","0","0","49947","","12083","{""Q0"":""False"",""Q1"":""D"",""Q2"":""Only while the second image is shown"",""Q3"":""Green mark"",""Q4"":""either D or K""}","1","","","","","","","","","","","","","","","","","",""
"","missed_instruction_checkup","","html-keyboard-response","39","407955","0.0-1.0-0.12-2.12-0.12","0","1","49947","","1633","","","32","","","","","","","","","","","","","","","","",""
"","instructions","","instructions","40","421872","0.0-1.0-0.13-0.13","0","0","49947","[{""page_index"":0,""viewing_time"":3351},{""page_index"":1,""viewing_time"":4157},{""page_index"":2,""viewing_time"":4407},{""page_index"":3,""viewing_time"":2000}]","13915","","","","","","","","","","","","","","","","","","","",""
"","comprehension_check","","survey-multi-choice","41","432519","0.0-1.0-0.13-1.13","0","0","49947","","10639","{""Q0"":""False"",""Q1"":""D"",""Q2"":""Only when the screen 'MAKE A CHOICE' is shown"",""Q3"":""Green mark"",""Q4"":""either D or K""}","1","","","","","","","","","","","","","","","","","",""
"","missed_instruction_checkup","","html-keyboard-response","42","433529","0.0-1.0-0.13-2.13-0.13","0","1","49947","","1009","","","32","","","","","","","","","","","","","","","","",""
"","instructions","","instructions","43","447448","0.0-1.0-0.14-0.14","0","0","49947","[{""page_index"":0,""viewing_time"":2157},{""page_index"":1,""viewing_time"":1953},{""page_index"":2,""viewing_time"":8883},{""page_index"":3,""viewing_time"":925}]","13918","","","","","","","","","","","","","","","","","","","",""
"","comprehension_check","","survey-multi-choice","44","457710","0.0-1.0-0.14-1.14","0","0","49947","","10253","{""Q0"":""True"",""Q1"":""K"",""Q2"":""Only when the screen 'MAKE A CHOICE' is shown"",""Q3"":""Green mark"",""Q4"":""either D or K""}","1","","","","","","","","","","","","","","","","","",""
"","missed_instruction_checkup","","html-keyboard-response","45","458898","0.0-1.0-0.14-2.14-0.14","0","1","49947","","1186","","","32","","","","","","","","","","","","","","","","",""
"","instructions","","instructions","46","487103","0.0-1.0-0.15-0.15","0","0","49947","[{""page_index"":0,""viewing_time"":2916},{""page_index"":1,""viewing_time"":19798},{""page_index"":2,""viewing_time"":3152},{""page_index"":3,""viewing_time"":2338}]","28204","","","","","","","","","","","","","","","","","","","",""
"","comprehension_check","","survey-multi-choice","47","497601","0.0-1.0-0.15-1.15","0","0","49947","","10482","{""Q0"":""True"",""Q1"":""K"",""Q2"":""Only when the screen 'MAKE A CHOICE' is shown"",""Q3"":""Green mark"",""Q4"":""either D or K""}","1","","","","","","","","","","","","","","","","","",""
"","missed_instruction_checkup","","html-keyboard-response","48","499690","0.0-1.0-0.15-2.15-0.15","0","1","49947","","2088","","","32","","","","","","","","","","","","","","","","",""
"","instructions","","instructions","49","505942","0.0-1.0-0.16-0.16","0","0","49947","[{""page_index"":0,""viewing_time"":2059},{""page_index"":1,""viewing_time"":1816},{""page_index"":2,""viewing_time"":1407},{""page_index"":3,""viewing_time"":968}]","6251","","","","","","","","","","","","","","","","","","","",""
"","comprehension_check","","survey-multi-choice","50","514473","0.0-1.0-0.16-1.16","0","0","49947","","8525","{""Q0"":""True"",""Q1"":""K"",""Q2"":""Only when the screen 'MAKE A CHOICE' is shown"",""Q3"":""Green mark"",""Q4"":""either D or K""}","1","","","","","","","","","","","","","","","","","",""
"","missed_instruction_checkup","","html-keyboard-response","51","515447","0.0-1.0-0.16-2.16-0.16","0","1","49947","","972","","","32","","","","","","","","","","","","","","","","",""
"","instructions","","instructions","52","525294","0.0-1.0-0.17-0.17","0","0","49947","[{""page_index"":0,""viewing_time"":4302},{""page_index"":1,""viewing_time"":2088},{""page_index"":2,""viewing_time"":1297},{""page_index"":3,""viewing_time"":2159}]","9847","","","","","","","","","","","","","","","","","","","",""
"","comprehension_check","","survey-multi-choice","53","539031","0.0-1.0-0.17-1.17","0","0","49947","","13726","{""Q0"":""True"",""Q1"":""K"",""Q2"":""Once the second image appears and while the screen 'MAKE A CHOICE' is shown"",""Q3"":""Green mark"",""Q4"":""either D or K""}","0","","","","","","","","","","","","","","","","","",""
"","start_exp","","html-keyboard-response","54","1396482","0.0-1.0-1.0","0","0","49947","","857450","","","32","","","","","","","","","","","","","","","","",""
"","S1","","html-keyboard-response","55","1396742","0.0-1.0-2.0","0","0","49947","","null","","","null","0","","","","","","","","","","","","","","","",""
"","ISI","","html-keyboard-response","56","1397244","0.0-1.0-3.0","0","0","49947","","null","","","null","0","NaN","","","","","","","","","","","","","","",""
"","S2","","html-keyboard-response","57","1397497","0.0-1.0-4.0","0","0","49947","","null","","","null","0","","NaN","","","","","","","","","","","","","",""
"","response","","html-keyboard-response","58","1398283","0.0-1.0-5.0-0.0","0","0","49947","","784","","","68","0","","","1","0","training","adjacent","DE","4","5","R.jpg","L.jpg","0","1","0","",""
"","feedback","","html-keyboard-response","59","1399289","0.0-1.0-6.0-0.0","0","0","49947","","null","","","null","0","","","","","","","","","","","","","","","",""
"","time_out","","html-keyboard-response","60","1401298","0.0-1.0-8.0-0.0","0","0","49947","","null","","","null","0","","","","","","","","","","","","","","","",""
"","ITI","","html-keyboard-response","61","1402306","0.0-1.0-9.0","0","0","49947","","883","","","32","0","","","","","","","","","","","","","","","space",""
"","S1","","html-keyboard-response","62","1402562","0.0-1.0-11.0","0","0","49947","","null","","","null","1","","","","","","","","","","","","","","","",""
"","ISI","","html-keyboard-response","63","1403066","0.0-1.0-12.0","0","0","49947","","null","","","null","1","NaN","","","","","","","","","","","","","","",""
"","S2","","html-keyboard-response","64","1403242","0.0-1.0-13.0","0","0","49947","","174","","","68","1","","d","1","1","training","adjacent","BA","2","1","Q.jpg","N.jpg","0","0","1","",""
"","feedback","","html-keyboard-response","65","1404250","0.0-1.0-15.0-0.0","0","0","49947","","null","","","null","1","","","","","","","","","","","","","","","",""
"","ITI","","html-keyboard-response","66","1405254","0.0-1.0-18.0","0","0","49947","","649","","","32","1","","","","","","","","","","","","","","","space",""
"","S1","","html-keyboard-response","67","1405505","0.0-1.0-20.0","0","0","49947","","null","","","null","2","","","","","","","","","","","","","","","",""
"","ISI","","html-keyboard-response","68","1406010","0.0-1.0-21.0","0","0","49947","","null","","","null","2","NaN","","","","","","","","","","","","","","",""
"","S2","","html-keyboard-response","69","1406131","0.0-1.0-22.0","0","0","49947","","119","","","75","2","","k","1","2","training","adjacent","EF","5","6","L.jpg","M.jpg","1","1","1","",""
"","feedback","","html-keyboard-response","70","1407138","0.0-1.0-24.0-0.0","0","0","49947","","null","","","null","2","","","","","","","","","","","","","","","",""
"","ITI","","html-keyboard-response","71","1408146","0.0-1.0-27.0","0","0","49947","","643","","","32","2","","","","","","","","","","","","","","","space",""
"","S1","","html-keyboard-response","72","1408402","0.0-1.0-29.0","0","0","49947","","null","","","null","3","","","","","","","","","","","","","","","",""
"","ISI","","html-keyboard-response","73","1408906","0.0-1.0-30.0","0","0","49947","","459","","","75","3","k","","","","","","","","","","","","","","",""
"","S2","","html-keyboard-response","74","1409183","0.0-1.0-31.0","0","0","49947","","null","","","null","3","","NaN","","","","","","","","","","","","","",""
"","response","","html-keyboard-response","75","1410939","0.0-1.0-32.0-0.0","0","0","49947","","null","","","null","3","","","1","3","training","adjacent","FG","6","7","M.jpg","O.jpg","NaN","1","0","",""
"","too_slow_prompt","","html-keyboard-response","76","1411947","0.0-1.0-34.0-0.0","1","0","49947","","null","","","null","","","","","","","","","","","","","","","","",""
"","time_out","","html-keyboard-response","77","1413954","0.0-1.0-35.0-0.0","0","0","49947","","null","","","null","3","","","","","","","","","","","","","","","",""
"","ITI","","html-keyboard-response","78","1414962","0.0-1.0-36.0","0","0","49947","","367","","","32","3","","","","","","","","","","","","","","","space",""
"","S1","","html-keyboard-response","79","1415218","0.0-1.0-38.0","0","0","49947","","null","","","null","4","","","","","","","","","","","","","","","",""
"","ISI","","html-keyboard-response","80","1415721","0.0-1.0-39.0","0","0","49947","","93","","","32","4","space","","","","","","","","","","","","","","",""
"","S2","","html-keyboard-response","81","1415842","0.0-1.0-40.0","0","0","49947","","97","","","68","4","","d","1","4","training","adjacent","ED","5","4","L.jpg","R.jpg","0","0","1","",""
"","feedback","","html-keyboard-response","82","1416850","0.0-1.0-42.0-0.0","0","0","49947","","null","","","null","4","","","","","","","","","","","","","","","",""
"","ITI","","html-keyboard-response","83","1417858","0.0-1.0-45.0","0","0","49947","","691","","","68","4","","","","","","","","","","","","","","","d",""
"","S1","","html-keyboard-response","84","1418114","0.0-1.0-47.0","0","0","49947","","null","","","null","5","","","","","","","","","","","","","","","",""
"","ISI","","html-keyboard-response","85","1418618","0.0-1.0-48.0","0","0","49947","","5","","","76","5","l","","","","","","","","","","","","","","",""
"","S2","","html-keyboard-response","86","1418875","0.0-1.0-49.0","0","0","49947","","null","","","null","5","","NaN","","","","","","","","","","","","","",""
"","response","","html-keyboard-response","87","1419393","0.0-1.0-50.0-0.0","0","0","49947","","517","","","68","5","","","1","5","training","adjacent","EF","5","6","L.jpg","M.jpg","0","1","0","",""
"","feedback","","html-keyboard-response","88","1420402","0.0-1.0-51.0-0.0","0","0","49947","","null","","","null","5","","","","","","","","","","","","","","","",""
"","time_out","","html-keyboard-response","89","1422411","0.0-1.0-53.0-0.0","0","0","49947","","null","","","null","5","","","","","","","","","","","","","","","",""
"","ITI","","html-keyboard-response","90","1423417","0.0-1.0-54.0","0","0","49947","","471","","","68","5","","","","","","","","","","","","","","","d",""
"","S1","","html-keyboard-response","91","1423673","0.0-1.0-56.0","0","0","49947","","null","","","null","6","","","","","","","","","","","","","","","",""
"","ISI","","html-keyboard-response","92","1424177","0.0-1.0-57.0","0","0","49947","","307","","","32","6","space","","","","","","","","","","","","","","",""
"","S2","","html-keyboard-response","93","1424437","0.0-1.0-58.0","0","0","49947","","null","","","null","6","","NaN","","","","","","","","","","","","","",""
"","response","","html-keyboard-response","94","1426195","0.0-1.0-59.0-0.0","0","0","49947","","null","","","null","6","","","1","6","training","adjacent","CB","3","2","P.jpg","Q.jpg","NaN","0","0","",""
"","too_slow_prompt","","html-keyboard-response","95","1427201","0.0-1.0-61.0-0.0","1","0","49947","","null","","","null","","","","","","","","","","","","","","","","",""
"","time_out","","html-keyboard-response","96","1429212","0.0-1.0-62.0-0.0","0","0","49947","","null","","","null","6","","","","","","","","","","","","","","","",""
"","ITI","","html-keyboard-response","97","1430218","0.0-1.0-63.0","0","0","49947","","378","","","76","6","","","","","","","","","","","","","","","l",""
"","S1","","html-keyboard-response","98","1430474","0.0-1.0-65.0","0","0","49947","","null","","","null","7","","","","","","","","","","","","","","","",""
"","ISI","","html-keyboard-response","99","1430978","0.0-1.0-66.0","0","0","49947","","406","","","76","7","l","","","","","","","","","","","","","","",""
"","S2","","html-keyboard-response","100","1431233","0.0-1.0-67.0","0","0","49947","","null","","","null","7","","NaN","","","","","","","","","","","","","",""
"","response","","html-keyboard-response","101","1432986","0.0-1.0-68.0-0.0","0","0","49947","","null","","","null","7","","","1","7","training","adjacent","DC","4","3","R.jpg","P.jpg","NaN","0","0","",""
"","too_slow_prompt","","html-keyboard-response","102","1433995","0.0-1.0-70.0-0.0","1","0","49947","","null","","","null","","","","","","","","","","","","","","","","",""
"","time_out","","html-keyboard-response","103","1436002","0.0-1.0-71.0-0.0","0","0","49947","","null","","","null","7","","","","","","","","","","","","","","","",""
"","ITI","","html-keyboard-response","104","1437011","0.0-1.0-72.0","0","0","49947","","798","","","76","7","","","","","","","","","","","","","","","l",""
"","S1","","html-keyboard-response","105","1437267","0.0-1.0-74.0","0","0","49947","","null","","","null","8","","","","","","","","","","","","","","","",""
"","ISI","","html-keyboard-response","106","1437770","0.0-1.0-75.0","0","0","49947","","null","","","null","8","NaN","","","","","","","","","","","","","","",""
"","S2","","html-keyboard-response","107","1438022","0.0-1.0-76.0","0","0","49947","","null","","","null","8","","NaN","","","","","","","","","","","","","",""
"","response","","html-keyboard-response","108","1438781","0.0-1.0-77.0-0.0","0","0","49947","","758","","","75","8","","","1","8","training","adjacent","EF","5","6","L.jpg","M.jpg","1","1","1","",""
"","feedback","","html-keyboard-response","109","1439785","0.0-1.0-78.0-0.0","0","0","49947","","null","","","null","8","","","","","","","","","","","","","","","",""
"","ITI","","html-keyboard-response","110","1440794","0.0-1.0-81.0","0","0","49947","","977","","","68","8","","","","","","","","","","","","","","","d",""
"","S1","","html-keyboard-response","111","1441050","0.0-1.0-83.0","0","0","49947","","null","","","null","9","","","","","","","","","","","","","","","",""
"","ISI","","html-keyboard-response","112","1441553","0.0-1.0-84.0","0","0","49947","","451","","","68","9","d","","","","","","","","","","","","","","",""
"","S2","","html-keyboard-response","113","1441809","0.0-1.0-85.0","0","0","49947","","null","","","null","9","","NaN","","","","","","","","","","","","","",""
"","response","","html-keyboard-response","114","1442162","0.0-1.0-86.0-0.0","0","0","49947","","351","","","68","9","","","1","9","training","adjacent","DC","4","3","R.jpg","P.jpg","0","0","1","",""
"","feedback","","html-keyboard-response","115","1443170","0.0-1.0-87.0-0.0","0","0","49947","","null","","","null","9","","","","","","","","","","","","","","","",""
"","ITI","","html-keyboard-response","116","1444178","0.0-1.0-90.0","0","0","49947","","310","","","68","9","","","","","","","","","","","","","","","d",""
"","S1","","html-keyboard-response","117","1444434","0.0-1.0-92.0","0","0","49947","","null","","","null","10","","","","","","","","","","","","","","","",""
"","ISI","","html-keyboard-response","118","1444937","0.0-1.0-93.0","0","0","49947","","227","","","68","10","d","","","","","","","","","","","","","","",""
"","S2","","html-keyboard-response","119","1445001","0.0-1.0-94.0","0","0","49947","","63","","","75","10","","k","1","10","training","adjacent","BA","2","1","Q.jpg","N.jpg","1","0","0","",""
"","feedback","","html-keyboard-response","120","1446009","0.0-1.0-96.0-0.0","0","0","49947","","null","","","null","10","","","","","","","","","","","","","","","",""
"","time_out","","html-keyboard-response","121","1448018","0.0-1.0-98.0-0.0","0","0","49947","","null","","","null","10","","","","","","","","","","","","","","","",""
"","ITI","","html-keyboard-response","122","1449026","0.0-1.0-99.0","0","0","49947","","83","","","68","10","","","","","","","","","","","","","","","d",""
"","S1","","html-keyboard-response","123","1449282","0.0-1.0-101.0","0","0","49947","","null","","","null","11","","","","","","","","","","","","","","","",""
"","ISI","","html-keyboard-response","124","1449786","0.0-1.0-102.0","0","0","49947","","97","","","75","11","k","","","","","","","","","","","","","","",""
"","S2","","html-keyboard-response","125","1450002","0.0-1.0-103.0","0","0","49947","","214","","","68","11","","d","1","11","training","adjacent","ED","5","4","L.jpg","R.jpg","0","0","1","",""
"","feedback","","html-keyboard-response","126","1451010","0.0-1.0-105.0-0.0","0","0","49947","","null","","","null","11","","","","","","","","","","","","","","","",""
"","ITI","","html-keyboard-response","127","1452018","0.0-1.0-108.0","0","0","49947","","129","","","68","11","","","","","","","","","","","","","","","d",""
"","S1","","html-keyboard-response","128","1452273","0.0-1.0-110.0","0","0","49947","","null","","","null","12","","","","","","","","","","","","","","","",""
"","ISI","","html-keyboard-response","129","1452779","0.0-1.0-111.0","0","0","49947","","87","","","68","12","d","","","","","","","","","","","","","","",""
"","S2","","html-keyboard-response","130","1453034","0.0-1.0-112.0","0","0","49947","","null","","","null","12","","NaN","","","","","","","","","","","","","",""
"","response","","html-keyboard-response","131","1453061","0.0-1.0-113.0-0.0","0","0","49947","","25","","","75","12","","","1","12","training","adjacent","CD","3","4","P.jpg","R.jpg","1","1","1","",""
"","feedback","","html-keyboard-response","132","1454065","0.0-1.0-114.0-0.0","0","0","49947","","null","","","null","12","","","","","","","","","","","","","","","",""
"","ITI","","html-keyboard-response","133","1455074","0.0-1.0-117.0","0","0","49947","","95","","","68","12","","","","","","","","","","","","","","","d",""
"","S1","","html-keyboard-response","134","1455329","0.0-1.0-119.0","0","0","49947","","null","","","null","13","","","","","","","","","","","","","","","",""
"","ISI","","html-keyboard-response","135","1455834","0.0-1.0-120.0","0","0","49947","","31","","","68","13","d","","","","","","","","","","","","","","",""
"","S2","","html-keyboard-response","136","1456072","0.0-1.0-121.0","0","0","49947","","236","","","68","13","","d","1","13","training","adjacent","DC","4","3","R.jpg","P.jpg","0","0","1","",""
"","feedback","","html-keyboard-response","137","1457074","0.0-1.0-123.0-0.0","0","0","49947","","null","","","null","13","","","","","","","","","","","","","","","",""
"","ITI","","html-keyboard-response","138","1458097","0.0-1.0-126.0","0","0","49947","","6","","","68","13","","","","","","","","","","","","","","","d",""
"","S1","","html-keyboard-response","139","1458355","0.0-1.0-128.0","0","0","49947","","null","","","null","14","","","","","","","","","","","","","","","",""
"","ISI","","html-keyboard-response","140","1458883","0.0-1.0-129.0","0","0","49947","","165","","","75","14","k","","","","","","","","","","","","","","",""
"","S2","","html-keyboard-response","141","1458896","0.0-1.0-130.0","0","0","49947","","13","","","75","14","","k","1","14","training","adjacent","BC","2","3","Q.jpg","P.jpg","1","1","1","",""
"","feedback","","html-keyboard-response","142","1459899","0.0-1.0-132.0-0.0","0","0","49947","","null","","","null","14","","","","","","","","","","","","","","","",""
"","ITI","","html-keyboard-response","143","1460907","0.0-1.0-135.0","0","0","49947","","null","","","null","14","","","","","","","","","","","","","","","NaN",""
"","S1","","html-keyboard-response","144","1461165","0.0-1.0-137.0","0","0","49947","","null","","","null","15","","","","","","","","","","","","","","","",""
"","ISI","","html-keyboard-response","145","1461667","0.0-1.0-138.0","0","0","49947","","null","","","null","15","NaN","","","","","","","","","","","","","","",""
"","S2","","html-keyboard-response","146","1461922","0.0-1.0-139.0","0","0","49947","","null","","","null","15","","NaN","","","","","","","","","","","","","",""
"","response","","html-keyboard-response","147","1462960","0.0-1.0-140.0-0.0","0","0","49947","","1036","","","68","15","","","1","15","training","adjacent","ED","5","4","L.jpg","R.jpg","0","0","1","",""
"","feedback","","html-keyboard-response","148","1463961","0.0-1.0-141.0-0.0","0","0","49947","","null","","","null","15","","","","","","","","","","","","","","","",""
"","ITI","","html-keyboard-response","149","1464970","0.0-1.0-144.0","0","0","49947","","78","","","68","15","","","","","","","","","","","","","","","d",""
"","S1","","html-keyboard-response","150","1465226","0.0-1.0-146.0","0","0","49947","","null","","","null","16","","","","","","","","","","","","","","","",""
"","ISI","","html-keyboard-response","151","1465730","0.0-1.0-147.0","0","0","49947","","55","","","75","16","k","","","","","","","","","","","","","","",""
"","S2","","html-keyboard-response","152","1465950","0.0-1.0-148.0","0","0","49947","","219","","","68","16","","d","1","16","training","adjacent","AB","1","2","N.jpg","Q.jpg","0","1","0","",""
"","feedback","","html-keyboard-response","153","1466954","0.0-1.0-150.0-0.0","0","0","49947","","null","","","null","16","","","","","","","","","","","","","","","",""
"","time_out","","html-keyboard-response","154","1468963","0.0-1.0-152.0-0.0","0","0","49947","","null","","","null","16","","","","","","","","","","","","","","","",""
"","ITI","","html-keyboard-response","155","1469969","0.0-1.0-153.0","0","0","49947","","null","","","null","16","","","","","","","","","","","","","","","NaN",""
"","S1","","html-keyboard-response","156","1470240","0.0-1.0-155.0","0","0","49947","","null","","","null","17","","","","","","","","","","","","","","","",""
"","ISI","","html-keyboard-response","157","1470747","0.0-1.0-156.0","0","0","49947","","null","","","null","17","NaN","","","","","","","","","","","","","","",""
"","S2","","html-keyboard-response","158","1471002","0.0-1.0-157.0","0","0","49947","","null","","","null","17","","NaN","","","","","","","","","","","","","",""
"","response","","html-keyboard-response","159","1471014","0.0-1.0-158.0-0.0","0","0","49947","","11","","","75","17","","","1","17","training","adjacent","AB","1","2","N.jpg","Q.jpg","1","1","1","",""
"","feedback","","html-keyboard-response","160","1472017","0.0-1.0-159.0-0.0","0","0","49947","","null","","","null","17","","","","","","","","","","","","","","","",""
"","ITI","","html-keyboard-response","161","1473026","0.0-1.0-162.0","0","0","49947","","204","","","68","17","","","","","","","","","","","","","","","d",""
"","S1","","html-keyboard-response","162","1473281","0.0-1.0-164.0","0","0","49947","","null","","","null","18","","","","","","","","","","","","","","","",""
"","ISI","","html-keyboard-response","163","1473786","0.0-1.0-165.0","0","0","49947","","59","","","32","18","space","","","","","","","","","","","","","","",""
"","S2","","html-keyboard-response","164","1474072","0.0-1.0-166.0","0","0","49947","","null","","","null","18","","NaN","","","","","","","","","","","","","",""
"","response","","html-keyboard-response","165","1474222","0.0-1.0-167.0-0.0","0","0","49947","","149","","","68","18","","","1","18","training","adjacent","GF","7","6","O.jpg","M.jpg","0","0","1","",""
"","feedback","","html-keyboard-response","166","1475226","0.0-1.0-168.0-0.0","0","0","49947","","null","","","null","18","","","","","","","","","","","","","","","",""
"","ITI","","html-keyboard-response","167","1476234","0.0-1.0-171.0","0","0","49947","","74","","","68","18","","","","","","","","","","","","","","","d",""
"","S1","","html-keyboard-response","168","1476490","0.0-1.0-173.0","0","0","49947","","null","","","null","19","","","","","","","","","","","","","","","",""
"","ISI","","html-keyboard-response","169","1476994","0.0-1.0-174.0","0","0","49947","","173","","","32","19","space","","","","","","","","","","","","","","",""
"","S2","","html-keyboard-response","170","1477122","0.0-1.0-175.0","0","0","49947","","126","","","75","19","","k","1","19","training","adjacent","AB","1","2","N.jpg","Q.jpg","1","1","1","",""
"","feedback","","html-keyboard-response","171","1478130","0.0-1.0-177.0-0.0","0","0","49947","","null","","","null","19","","","","","","","","","","","","","","","",""
"","ITI","","html-keyboard-response","172","1479137","0.0-1.0-180.0","0","0","49947","","9","","","68","19","","","","","","","","","","","","","","","d",""
"","S1","","html-keyboard-response","173","1479408","0.0-1.0-182.0","0","0","49947","","null","","","null","20","","","","","","","","","","","","","","","",""
"","ISI","","html-keyboard-response","174","1479914","0.0-1.0-183.0","0","0","49947","","28","","","32","20","space","","","","","","","","","","","","","","",""
"","S2","","html-keyboard-response","175","1479943","0.0-1.0-184.0","0","0","49947","","27","","","75","20","","k","1","20","training","adjacent","AB","1","2","N.jpg","Q.jpg","1","1","1","",""
"","feedback","","html-keyboard-response","176","1480945","0.0-1.0-186.0-0.0","0","0","49947","","null","","","null","20","","","","","","","","","","","","","","","",""
"","ITI","","html-keyboard-response","177","1481955","0.0-1.0-189.0","0","0","49947","","75","","","32","20","","","","","","","","","","","","","","","space",""
"","S1","","html-keyboard-response","178","1482211","0.0-1.0-191.0","0","0","49947","","null","","","null","21","","","","","","","","","","","","","","","",""
"","ISI","","html-keyboard-response","179","1482713","0.0-1.0-192.0","0","0","49947","","9","","","68","21","d","","","","","","","","","","","","","","",""
"","S2","","html-keyboard-response","180","1482743","0.0-1.0-193.0","0","0","49947","","28","","","68","21","","d","1","21","training","adjacent","GF","7","6","O.jpg","M.jpg","0","0","1","",""
"","feedback","","html-keyboard-response","181","1483747","0.0-1.0-195.0-0.0","0","0","49947","","null","","","null","21","","","","","","","","","","","","","","","",""
"","ITI","","html-keyboard-response","182","1484754","0.0-1.0-198.0","0","0","49947","","195","","","68","21","","","","","","","","","","","","","","","d",""
"","S1","","html-keyboard-response","183","1485009","0.0-1.0-200.0","0","0","49947","","null","","","null","22","","","","","","","","","","","","","","","",""
"","ISI","","html-keyboard-response","184","1485513","0.0-1.0-201.0","0","0","49947","","57","","","32","22","space","","","","","","","","","","","","","","",""
"","S2","","html-keyboard-response","185","1485574","0.0-1.0-202.0","0","0","49947","","59","","","68","22","","d","1","22","training","adjacent","EF","5","6","L.jpg","M.jpg","0","1","0","",""
"","feedback","","html-keyboard-response","186","1486578","0.0-1.0-204.0-0.0","0","0","49947","","null","","","null","22","","","","","","","","","","","","","","","",""
"","time_out","","html-keyboard-response","187","1488586","0.0-1.0-206.0-0.0","0","0","49947","","null","","","null","22","","","","","","","","","","","","","","","",""
"","ITI","","html-keyboard-response","188","1489593","0.0-1.0-207.0","0","0","49947","","34","","","68","22","","","","","","","","","","","","","","","d",""
"","S1","","html-keyboard-response","189","1489850","0.0-1.0-209.0","0","0","49947","","null","","","null","23","","","","","","","","","","","","","","","",""
"","ISI","","html-keyboard-response","190","1490353","0.0-1.0-210.0","0","0","49947","","129","","","68","23","d","","","","","","","","","","","","","","",""
"","S2","","html-keyboard-response","191","1490507","0.0-1.0-211.0","0","0","49947","","152","","","68","23","","d","1","23","training","adjacent","CB","3","2","P.jpg","Q.jpg","0","0","1","",""
"","feedback","","html-keyboard-response","192","1491513","0.0-1.0-213.0-0.0","0","0","49947","","null","","","null","23","","","","","","","","","","","","","","","",""
"","ITI","","html-keyboard-response","193","1492521","0.0-1.0-216.0","0","0","49947","","348","","","32","23","","","","","","","","","","","","","","","space",""
"","S1","","html-keyboard-response","194","1492778","0.0-1.0-218.0","0","0","49947","","null","","","null","24","","","","","","","","","","","","","","","",""
"","ISI","","html-keyboard-response","195","1493282","0.0-1.0-219.0","0","0","49947","","125","","","68","24","d","","","","","","","","","","","","","","",""
"","S2","","html-keyboard-response","196","1493443","0.0-1.0-220.0","0","0","49947","","159","","","68","24","","d","1","24","training","adjacent","FG","6","7","M.jpg","O.jpg","0","1","0","",""
"","feedback","","html-keyboard-response","197","1494449","0.0-1.0-222.0-0.0","0","0","49947","","null","","","null","24","","","","","","","","","","","","","","","",""
"","time_out","","html-keyboard-response","198","1496458","0.0-1.0-224.0-0.0","0","0","49947","","null","","","null","24","","","","","","","","","","","","","","","",""
"","ITI","","html-keyboard-response","199","1497462","0.0-1.0-225.0","0","0","49947","","124","","","68","24","","","","","","","","","","","","","","","d",""
"","S1","","html-keyboard-response","200","1497714","0.0-1.0-227.0","0","0","49947","","null","","","null","25","","","","","","","","","","","","","","","",""
"","ISI","","html-keyboard-response","201","1498218","0.0-1.0-228.0","0","0","49947","","5","","","32","25","space","","","","","","","","","","","","","","",""
"","S2","","html-keyboard-response","202","1498241","0.0-1.0-229.0","0","0","49947","","23","","","68","25","","d","1","25","training","adjacent","CB","3","2","P.jpg","Q.jpg","0","0","1","",""
"","feedback","","html-keyboard-response","203","1499251","0.0-1.0-231.0-0.0","0","0","49947","","null","","","null","25","","","","","","","","","","","","","","","",""
"","ITI","","html-keyboard-response","204","1500260","0.0-1.0-234.0","0","0","49947","","49","","","32","25","","","","","","","","","","","","","","","space",""
"","S1","","html-keyboard-response","205","1500514","0.0-1.0-236.0","0","0","49947","","null","","","null","26","","","","","","","","","","","","","","","",""
"","ISI","","html-keyboard-response","206","1501019","0.0-1.0-237.0","0","0","49947","","66","","","32","26","space","","","","","","","","","","","","","","",""
"","S2","","html-keyboard-response","207","1501275","0.0-1.0-238.0","0","0","49947","","null","","","null","26","","NaN","","","","","","","","","","","","","",""
"","response","","html-keyboard-response","208","1501302","0.0-1.0-239.0-0.0","0","0","49947","","25","","","68","26","","","1","26","training","adjacent","FE","6","5","M.jpg","L.jpg","0","0","1","",""
"","feedback","","html-keyboard-response","209","1502307","0.0-1.0-240.0-0.0","0","0","49947","","null","","","null","26","","","","","","","","","","","","","","","",""
"","ITI","","html-keyboard-response","210","1503315","0.0-1.0-243.0","0","0","49947","","54","","","32","26","","","","","","","","","","","","","","","space",""
"","S1","","html-keyboard-response","211","1503572","0.0-1.0-245.0","0","0","49947","","null","","","null","27","","","","","","","","","","","","","","","",""
"","ISI","","html-keyboard-response","212","1504077","0.0-1.0-246.0","0","0","49947","","150","","","32","27","space","","","","","","","","","","","","","","",""
"","S2","","html-keyboard-response","213","1504133","0.0-1.0-247.0","0","0","49947","","54","","","75","27","","k","1","27","training","adjacent","CB","3","2","P.jpg","Q.jpg","1","0","0","",""
"","feedback","","html-keyboard-response","214","1505139","0.0-1.0-249.0-0.0","0","0","49947","","null","","","null","27","","","","","","","","","","","","","","","",""
"","time_out","","html-keyboard-response","215","1507146","0.0-1.0-251.0-0.0","0","0","49947","","null","","","null","27","","","","","","","","","","","","","","","",""
"","ITI","","html-keyboard-response","216","1508154","0.0-1.0-252.0","0","0","49947","","295","","","32","27","","","","","","","","","","","","","","","space",""
"","S1","","html-keyboard-response","217","1508411","0.0-1.0-254.0","0","0","49947","","null","","","null","28","","","","","","","","","","","","","","","",""
"","ISI","","html-keyboard-response","218","1508914","0.0-1.0-255.0","0","0","49947","","448","","","32","28","space","","","","","","","","","","","","","","",""
"","S2","","html-keyboard-response","219","1509142","0.0-1.0-256.0","0","0","49947","","226","","","68","28","","d","1","28","training","adjacent","DC","4","3","R.jpg","P.jpg","0","0","1","",""
"","feedback","","html-keyboard-response","220","1510146","0.0-1.0-258.0-0.0","0","0","49947","","null","","","null","28","","","","","","","","","","","","","","","",""
"","ITI","","html-keyboard-response","221","1511156","0.0-1.0-261.0","0","0","49947","","425","","","32","28","","","","","","","","","","","","","","","space",""
"","S1","","html-keyboard-response","222","1511411","0.0-1.0-263.0","0","0","49947","","null","","","null","29","","","","","","","","","","","","","","","",""
"","ISI","","html-keyboard-response","223","1511915","0.0-1.0-264.0","0","0","49947","","40","","","75","29","k","","","","","","","","","","","","","","",""
"","S2","","html-keyboard-response","224","1512173","0.0-1.0-265.0","0","0","49947","","null","","","null","29","","NaN","","","","","","","","","","","","","",""
"","response","","html-keyboard-response","225","1512204","0.0-1.0-266.0-0.0","0","0","49947","","31","","","68","29","","","1","29","training","adjacent","FE","6","5","M.jpg","L.jpg","0","0","1","",""
"","feedback","","html-keyboard-response","226","1513211","0.0-1.0-267.0-0.0","0","0","49947","","null","","","null","29","","","","","","","","","","","","","","","",""
"","ITI","","html-keyboard-response","227","1514219","0.0-1.0-270.0","0","0","49947","","132","","","32","29","","","","","","","","","","","","","","","space",""
"","S1","","html-keyboard-response","228","1514475","0.0-1.0-272.0","0","0","49947","","null","","","null","30","","","","","","","","","","","","","","","",""
"","ISI","","html-keyboard-response","229","1514991","0.0-1.0-273.0","0","0","49947","","6","","","32","30","space","","","","","","","","","","","","","","",""
"","S2","","html-keyboard-response","230","1515204","0.0-1.0-274.0","0","0","49947","","212","","","68","30","","d","1","30","training","adjacent","GF","7","6","O.jpg","M.jpg","0","0","1","",""
"","feedback","","html-keyboard-response","231","1516211","0.0-1.0-276.0-0.0","0","0","49947","","null","","","null","30","","","","","","","","","","","","","","","",""
"","ITI","","html-keyboard-response","232","1517225","0.0-1.0-279.0","0","0","49947","","110","","","68","30","","","","","","","","","","","","","","","d",""
"","S1","","html-keyboard-response","233","1517483","0.0-1.0-281.0","0","0","49947","","null","","","null","31","","","","","","","","","","","","","","","",""
"","ISI","","html-keyboard-response","234","1517987","0.0-1.0-282.0","0","0","49947","","218","","","68","31","d","","","","","","","","","","","","","","",""
"","S2","","html-keyboard-response","235","1518042","0.0-1.0-283.0","0","0","49947","","53","","","68","31","","d","1","31","training","adjacent","DE","4","5","R.jpg","L.jpg","0","1","0","",""
"","feedback","","html-keyboard-response","236","1519051","0.0-1.0-285.0-0.0","0","0","49947","","null","","","null","31","","","","","","","","","","","","","","","",""
"","time_out","","html-keyboard-response","237","1521058","0.0-1.0-287.0-0.0","0","0","49947","","null","","","null","31","","","","","","","","","","","","","","","",""
"","ITI","","html-keyboard-response","238","1522066","0.0-1.0-288.0","0","0","49947","","243","","","32","31","","","","","","","","","","","","","","","space",""
"","S1","","html-keyboard-response","239","1522329","0.0-1.0-290.0","0","0","49947","","null","","","null","32","","","","","","","","","","","","","","","",""
"","ISI","","html-keyboard-response","240","1522835","0.0-1.0-291.0","0","0","49947","","33","","","32","32","space","","","","","","","","","","","","","","",""
"","S2","","html-keyboard-response","241","1523003","0.0-1.0-292.0","0","0","49947","","165","","","68","32","","d","1","32","training","adjacent","FE","6","5","M.jpg","L.jpg","0","0","1","",""
"","feedback","","html-keyboard-response","242","1524011","0.0-1.0-294.0-0.0","0","0","49947","","null","","","null","32","","","","","","","","","","","","","","","",""
"","ITI","","html-keyboard-response","243","1525020","0.0-1.0-297.0","0","0","49947","","130","","","32","32","","","","","","","","","","","","","","","space",""
"","S1","","html-keyboard-response","244","1525276","0.0-1.0-299.0","0","0","49947","","null","","","null","33","","","","","","","","","","","","","","","",""
"","ISI","","html-keyboard-response","245","1525778","0.0-1.0-300.0","0","0","49947","","6","","","75","33","k","","","","","","","","","","","","","","",""
"","S2","","html-keyboard-response","246","1525822","0.0-1.0-301.0","0","0","49947","","42","","","68","33","","d","1","33","training","adjacent","DE","4","5","R.jpg","L.jpg","0","1","0","",""
"","feedback","","html-keyboard-response","247","1526825","0.0-1.0-303.0-0.0","0","0","49947","","null","","","null","33","","","","","","","","","","","","","","","",""
"","time_out","","html-keyboard-response","248","1528827","0.0-1.0-305.0-0.0","0","0","49947","","null","","","null","33","","","","","","","","","","","","","","","",""
"","ITI","","html-keyboard-response","249","1529857","0.0-1.0-306.0","0","0","49947","","13","","","32","33","","","","","","","","","","","","","","","space",""
"","S1","","html-keyboard-response","250","1530115","0.0-1.0-308.0","0","0","49947","","null","","","null","34","","","","","","","","","","","","","","","",""
"","ISI","","html-keyboard-response","251","1530619","0.0-1.0-309.0","0","0","49947","","106","","","68","34","d","","","","","","","","","","","","","","",""
"","S2","","html-keyboard-response","252","1530704","0.0-1.0-310.0","0","0","49947","","83","","","68","34","","d","1","34","training","adjacent","BA","2","1","Q.jpg","N.jpg","0","0","1","",""
"","feedback","","html-keyboard-response","253","1531707","0.0-1.0-312.0-0.0","0","0","49947","","null","","","null","34","","","","","","","","","","","","","","","",""
"","ITI","","html-keyboard-response","254","1532715","0.0-1.0-315.0","0","0","49947","","184","","","68","34","","","","","","","","","","","","","","","d",""
"","S1","","html-keyboard-response","255","1532970","0.0-1.0-317.0","0","0","49947","","null","","","null","35","","","","","","","","","","","","","","","",""
"","ISI","","html-keyboard-response","256","1533475","0.0-1.0-318.0","0","0","49947","","502","","","32","35","space","","","","","","","","","","","","","","",""
"","S2","","html-keyboard-response","257","1533731","0.0-1.0-319.0","0","0","49947","","null","","","null","35","","NaN","","","","","","","","","","","","","",""
"","response","","html-keyboard-response","258","1535971","0.0-1.0-320.0-0.0","0","0","49947","","null","","","null","35","","","1","35","training","adjacent","ED","5","4","L.jpg","R.jpg","NaN","0","0","",""
"","too_slow_prompt","","html-keyboard-response","259","1536978","0.0-1.0-322.0-0.0","1","0","49947","","null","","","null","","","","","","","","","","","","","","","","",""
"","time_out","","html-keyboard-response","260","1538982","0.0-1.0-323.0-0.0","0","0","49947","","null","","","null","35","","","","","","","","","","","","","","","",""
"","ITI","","html-keyboard-response","261","1539987","0.0-1.0-324.0","0","0","49947","","128","","","68","35","","","","","","","","","","","","","","","d",""
"","S1","","html-keyboard-response","262","1540243","0.0-1.0-326.0","0","0","49947","","null","","","null","36","","","","","","","","","","","","","","","",""
"","ISI","","html-keyboard-response","263","1540747","0.0-1.0-327.0","0","0","49947","","323","","","32","36","space","","","","","","","","","","","","","","",""
"","S2","","html-keyboard-response","264","1540985","0.0-1.0-328.0","0","0","49947","","236","","","75","36","","k","1","36","training","adjacent","CD","3","4","P.jpg","R.jpg","1","1","1","",""
"","feedback","","html-keyboard-response","265","1541987","0.0-1.0-330.0-0.0","0","0","49947","","null","","","null","36","","","","","","","","","","","","","","","",""
"","ITI","","html-keyboard-response","266","1542997","0.0-1.0-333.0","0","0","49947","","194","","","32","36","","","","","","","","","","","","","","","space",""
"","S1","","html-keyboard-response","267","1543251","0.0-1.0-335.0","0","0","49947","","null","","","null","37","","","","","","","","","","","","","","","",""
"","ISI","","html-keyboard-response","268","1543754","0.0-1.0-336.0","0","0","49947","","42","","","68","37","d","","","","","","","","","","","","","","",""
"","S2","","html-keyboard-response","269","1544012","0.0-1.0-337.0","0","0","49947","","null","","","null","37","","NaN","","","","","","","","","","","","","",""
"","response","","html-keyboard-response","270","1544057","0.0-1.0-338.0-0.0","0","0","49947","","43","","","68","37","","","1","37","training","adjacent","BC","2","3","Q.jpg","P.jpg","0","1","0","",""
"","feedback","","html-keyboard-response","271","1545058","0.0-1.0-339.0-0.0","0","0","49947","","null","","","null","37","","","","","","","","","","","","","","","",""
"","time_out","","html-keyboard-response","272","1547066","0.0-1.0-341.0-0.0","0","0","49947","","null","","","null","37","","","","","","","","","","","","","","","",""
"","ITI","","html-keyboard-response","273","1548075","0.0-1.0-342.0","0","0","49947","","175","","","32","37","","","","","","","","","","","","","","","space",""
"","S1","","html-keyboard-response","274","1548332","0.0-1.0-344.0","0","0","49947","","null","","","null","38","","","","","","","","","","","","","","","",""
"","ISI","","html-keyboard-response","275","1548836","0.0-1.0-345.0","0","0","49947","","169","","","68","38","d","","","","","","","","","","","","","","",""
"","S2","","html-keyboard-response","276","1548984","0.0-1.0-346.0","0","0","49947","","146","","","68","38","","d","1","38","training","adjacent","FG","6","7","M.jpg","O.jpg","0","1","0","",""
"","feedback","","html-keyboard-response","277","1549988","0.0-1.0-348.0-0.0","0","0","49947","","null","","","null","38","","","","","","","","","","","","","","","",""
"","time_out","","html-keyboard-response","278","1551995","0.0-1.0-350.0-0.0","0","0","49947","","null","","","null","38","","","","","","","","","","","","","","","",""
"","ITI","","html-keyboard-response","279","1553003","0.0-1.0-351.0","0","0","49947","","6","","","32","38","","","","","","","","","","","","","","","space",""
"","S1","","html-keyboard-response","280","1553259","0.0-1.0-353.0","0","0","49947","","null","","","null","39","","","","","","","","","","","","","","","",""
"","ISI","","html-keyboard-response","281","1553763","0.0-1.0-354.0","0","0","49947","","62","","","75","39","k","","","","","","","","","","","","","","",""
"","S2","","html-keyboard-response","282","1553782","0.0-1.0-355.0","0","0","49947","","18","","","68","39","","d","1","39","training","adjacent","CD","3","4","P.jpg","R.jpg","0","1","0","",""
"","feedback","","html-keyboard-response","283","1554787","0.0-1.0-357.0-0.0","0","0","49947","","null","","","null","39","","","","","","","","","","","","","","","",""
"","time_out","","html-keyboard-response","284","1556795","0.0-1.0-359.0-0.0","0","0","49947","","null","","","null","39","","","","","","","","","","","","","","","",""
"","ITI","","html-keyboard-response","285","1557803","0.0-1.0-360.0","0","0","49947","","5","","","32","39","","","","","","","","","","","","","","","space",""
"","S1","","html-keyboard-response","286","1558058","0.0-1.0-362.0","0","0","49947","","null","","","null","40","","","","","","","","","","","","","","","",""
"","ISI","","html-keyboard-response","287","1558563","0.0-1.0-363.0","0","0","49947","","9","","","32","40","space","","","","","","","","","","","","","","",""
"","S2","","html-keyboard-response","288","1558723","0.0-1.0-364.0","0","0","49947","","159","","","68","40","","d","1","40","training","adjacent","CD","3","4","P.jpg","R.jpg","0","1","0","",""
"","feedback","","html-keyboard-response","289","1559732","0.0-1.0-366.0-0.0","0","0","49947","","null","","","null","40","","","","","","","","","","","","","","","",""
"","time_out","","html-keyboard-response","290","1561739","0.0-1.0-368.0-0.0","0","0","49947","","null","","","null","40","","","","","","","","","","","","","","","",""
"","ITI","","html-keyboard-response","291","1562746","0.0-1.0-369.0","0","0","49947","","22","","","68","40","","","","","","","","","","","","","","","d",""
"","S1","","html-keyboard-response","292","1563001","0.0-1.0-371.0","0","0","49947","","null","","","null","41","","","","","","","","","","","","","","","",""
"","ISI","","html-keyboard-response","293","1563503","0.0-1.0-372.0","0","0","49947","","90","","","68","41","d","","","","","","","","","","","","","","",""
"","S2","","html-keyboard-response","294","1563642","0.0-1.0-373.0","0","0","49947","","137","","","68","41","","d","1","41","training","adjacent","DE","4","5","R.jpg","L.jpg","0","1","0","",""
"","feedback","","html-keyboard-response","295","1564659","0.0-1.0-375.0-0.0","0","0","49947","","null","","","null","41","","","","","","","","","","","","","","","",""
"","time_out","","html-keyboard-response","296","1566668","0.0-1.0-377.0-0.0","0","0","49947","","null","","","null","41","","","","","","","","","","","","","","","",""
"","ITI","","html-keyboard-response","297","1567675","0.0-1.0-378.0","0","0","49947","","53","","","32","41","","","","","","","","","","","","","","","space",""
"","S1","","html-keyboard-response","298","1567930","0.0-1.0-380.0","0","0","49947","","null","","","null","42","","","","","","","","","","","","","","","",""
"","ISI","","html-keyboard-response","299","1568433","0.0-1.0-381.0","0","0","49947","","190","","","32","42","space","","","","","","","","","","","","","","",""
"","S2","","html-keyboard-response","300","1568471","0.0-1.0-382.0","0","0","49947","","36","","","75","42","","k","1","42","training","adjacent","BA","2","1","Q.jpg","N.jpg","1","0","0","",""
"","feedback","","html-keyboard-response","301","1569475","0.0-1.0-384.0-0.0","0","0","49947","","null","","","null","42","","","","","","","","","","","","","","","",""
"","time_out","","html-keyboard-response","302","1571482","0.0-1.0-386.0-0.0","0","0","49947","","null","","","null","42","","","","","","","","","","","","","","","",""
"","ITI","","html-keyboard-response","303","1572489","0.0-1.0-387.0","0","0","49947","","143","","","68","42","","","","","","","","","","","","","","","d",""
"","S1","","html-keyboard-response","304","1572747","0.0-1.0-389.0","0","0","49947","","null","","","null","43","","","","","","","","","","","","","","","",""
"","ISI","","html-keyboard-response","305","1573250","0.0-1.0-390.0","0","0","49947","","10","","","68","43","d","","","","","","","","","","","","","","",""
"","S2","","html-keyboard-response","306","1573502","0.0-1.0-391.0","0","0","49947","","null","","","null","43","","NaN","","","","","","","","","","","","","",""
"","response","","html-keyboard-response","307","1573510","0.0-1.0-392.0-0.0","0","0","49947","","7","","","68","43","","","1","43","training","adjacent","BC","2","3","Q.jpg","P.jpg","0","1","0","",""
"","feedback","","html-keyboard-response","308","1574515","0.0-1.0-393.0-0.0","0","0","49947","","null","","","null","43","","","","","","","","","","","","","","","",""
"","time_out","","html-keyboard-response","309","1576523","0.0-1.0-395.0-0.0","0","0","49947","","null","","","null","43","","","","","","","","","","","","","","","",""
"","ITI","","html-keyboard-response","310","1577542","0.0-1.0-396.0","0","0","49947","","18","","","32","43","","","","","","","","","","","","","","","space",""
"","S1","","html-keyboard-response","311","1577795","0.0-1.0-398.0","0","0","49947","","null","","","null","44","","","","","","","","","","","","","","","",""
"","ISI","","html-keyboard-response","312","1578297","0.0-1.0-399.0","0","0","49947","","165","","","32","44","space","","","","","","","","","","","","","","",""
"","S2","","html-keyboard-response","313","1578505","0.0-1.0-400.0","0","0","49947","","206","","","75","44","","k","1","44","training","adjacent","BC","2","3","Q.jpg","P.jpg","1","1","1","",""
"","feedback","","html-keyboard-response","314","1579513","0.0-1.0-402.0-0.0","0","0","49947","","null","","","null","44","","","","","","","","","","","","","","","",""
"","ITI","","html-keyboard-response","315","1580522","0.0-1.0-405.0","0","0","49947","","7","","","75","44","","","","","","","","","","","","","","","k",""
"","S1","","html-keyboard-response","316","1580777","0.0-1.0-407.0","0","0","49947","","null","","","null","45","","","","","","","","","","","","","","","",""
"","ISI","","html-keyboard-response","317","1581281","0.0-1.0-408.0","0","0","49947","","12","","","32","45","space","","","","","","","","","","","","","","",""
"","S2","","html-keyboard-response","318","1581401","0.0-1.0-409.0","0","0","49947","","118","","","68","45","","d","1","45","training","adjacent","FG","6","7","M.jpg","O.jpg","0","1","0","",""
"","feedback","","html-keyboard-response","319","1582434","0.0-1.0-411.0-0.0","0","0","49947","","null","","","null","45","","","","","","","","","","","","","","","",""
"","time_out","","html-keyboard-response","320","1584441","0.0-1.0-413.0-0.0","0","0","49947","","null","","","null","45","","","","","","","","","","","","","","","",""
"","ITI","","html-keyboard-response","321","1585442","0.0-1.0-414.0","0","0","49947","","100","","","75","45","","","","","","","","","","","","","","","k",""
"","S1","","html-keyboard-response","322","1585699","0.0-1.0-416.0","0","0","49947","","null","","","null","46","","","","","","","","","","","","","","","",""
"","ISI","","html-keyboard-response","323","1586203","0.0-1.0-417.0","0","0","49947","","442","","","75","46","k","","","","","","","","","","","","","","",""
"","S2","","html-keyboard-response","324","1586459","0.0-1.0-418.0","0","0","49947","","null","","","null","46","","NaN","","","","","","","","","","","","","",""
"","response","","html-keyboard-response","325","1586541","0.0-1.0-419.0-0.0","0","0","49947","","81","","","75","46","","","1","46","training","adjacent","FE","6","5","M.jpg","L.jpg","1","0","0","",""
"","feedback","","html-keyboard-response","326","1587546","0.0-1.0-420.0-0.0","0","0","49947","","null","","","null","46","","","","","","","","","","","","","","","",""
"","time_out","","html-keyboard-response","327","1589555","0.0-1.0-422.0-0.0","0","0","49947","","null","","","null","46","","","","","","","","","","","","","","","",""
"","ITI","","html-keyboard-response","328","1590562","0.0-1.0-423.0","0","0","49947","","285","","","68","46","","","","","","","","","","","","","","","d",""
"","S1","","html-keyboard-response","329","1590818","0.0-1.0-425.0","0","0","49947","","null","","","null","47","","","","","","","","","","","","","","","",""
"","ISI","","html-keyboard-response","330","1591321","0.0-1.0-426.0","0","0","49947","","171","","","75","47","k","","","","","","","","","","","","","","",""
"","S2","","html-keyboard-response","331","1591521","0.0-1.0-427.0","0","0","49947","","198","","","75","47","","k","1","47","training","adjacent","GF","7","6","O.jpg","M.jpg","1","0","0","",""
"","feedback","","html-keyboard-response","332","1592523","0.0-1.0-429.0-0.0","0","0","49947","","null","","","null","47","","","","","","","","","","","","","","","",""
"","time_out","","html-keyboard-response","333","1594530","0.0-1.0-431.0-0.0","0","0","49947","","null","","","null","47","","","","","","","","","","","","","","","",""
"","ITI","","html-keyboard-response","334","1595538","0.0-1.0-432.0","0","0","49947","","151","","","32","47","","","","","","","","","","","","","","","space",""
"","block_over","","html-keyboard-response","335","1596202","0.0-1.0-433.0-0.0","0","0","49947","","662","","","32","47","","","","","","","","","","","","","","","",""
"","S1","","html-keyboard-response","336","1596457","0.0-1.0-434.0","0","0","49947","","null","","","null","48","","","","","","","","","","","","","","","",""
"","ISI","","html-keyboard-response","337","1596962","0.0-1.0-435.0","0","0","49947","","null","","","null","48","NaN","","","","","","","","","","","","","","",""
"","S2","","html-keyboard-response","338","1597218","0.0-1.0-436.0","0","0","49947","","null","","","null","48","","NaN","","","","","","","","","","","","","",""
"","response","","html-keyboard-response","339","1597732","0.0-1.0-437.0-0.0","0","0","49947","","512","","","75","48","","","2","48","training","adjacent","BC","2","3","Q.jpg","P.jpg","1","1","1","",""
"","feedback","","html-keyboard-response","340","1598737","0.0-1.0-438.0-0.0","0","0","49947","","null","","","null","48","","","","","","","","","","","","","","","",""
"","ITI","","html-keyboard-response","341","1599746","0.0-1.0-441.0","0","0","49947","","163","","","68","48","","","","","","","","","","","","","","","d",""
"","S1","","html-keyboard-response","342","1600002","0.0-1.0-443.0","0","0","49947","","null","","","null","49","","","","","","","","","","","","","","","",""
"","ISI","","html-keyboard-response","343","1600503","0.0-1.0-444.0","0","0","49947","","18","","","32","49","space","","","","","","","","","","","","","","",""
"","S2","","html-keyboard-response","344","1600642","0.0-1.0-445.0","0","0","49947","","138","","","68","49","","d","2","49","training","adjacent","AB","1","2","N.jpg","Q.jpg","0","1","0","",""
"","feedback","","html-keyboard-response","345","1601650","0.0-1.0-447.0-0.0","0","0","49947","","null","","","null","49","","","","","","","","","","","","","","","",""
"","time_out","","html-keyboard-response","346","1603659","0.0-1.0-449.0-0.0","0","0","49947","","null","","","null","49","","","","","","","","","","","","","","","",""
"","ITI","","html-keyboard-response","347","1604669","0.0-1.0-450.0","0","0","49947","","114","","","32","49","","","","","","","","","","","","","","","space",""
"","S1","","html-keyboard-response","348","1604923","0.0-1.0-452.0","0","0","49947","","null","","","null","50","","","","","","","","","","","","","","","",""
"","ISI","","html-keyboard-response","349","1605427","0.0-1.0-453.0","0","0","49947","","19","","","68","50","d","","","","","","","","","","","","","","",""
"","S2","","html-keyboard-response","350","1605542","0.0-1.0-454.0","0","0","49947","","114","","","68","50","","d","2","50","training","adjacent","FG","6","7","M.jpg","O.jpg","0","1","0","",""
"","feedback","","html-keyboard-response","351","1606550","0.0-1.0-456.0-0.0","0","0","49947","","null","","","null","50","","","","","","","","","","","","","","","",""
"","time_out","","html-keyboard-response","352","1608554","0.0-1.0-458.0-0.0","0","0","49947","","null","","","null","50","","","","","","","","","","","","","","","",""
"","ITI","","html-keyboard-response","353","1609561","0.0-1.0-459.0","0","0","49947","","246","","","32","50","","","","","","","","","","","","","","","space",""
"","S1","","html-keyboard-response","354","1609819","0.0-1.0-461.0","0","0","49947","","null","","","null","51","","","","","","","","","","","","","","","",""
"","ISI","","html-keyboard-response","355","1610322","0.0-1.0-462.0","0","0","49947","","22","","","75","51","k","","","","","","","","","","","","","","",""
"","S2","","html-keyboard-response","356","1610578","0.0-1.0-463.0","0","0","49947","","null","","","null","51","","NaN","","","","","","","","","","","","","",""
"","response","","html-keyboard-response","357","1610591","0.0-1.0-464.0-0.0","0","0","49947","","12","","","68","51","","","2","51","training","adjacent","ED","5","4","L.jpg","R.jpg","0","0","1","",""
"","feedback","","html-keyboard-response","358","1611595","0.0-1.0-465.0-0.0","0","0","49947","","null","","","null","51","","","","","","","","","","","","","","","",""
"","ITI","","html-keyboard-response","359","1612602","0.0-1.0-468.0","0","0","49947","","206","","","32","51","","","","","","","","","","","","","","","space",""
"","S1","","html-keyboard-response","360","1612859","0.0-1.0-470.0","0","0","49947","","null","","","null","52","","","","","","","","","","","","","","","",""
"","ISI","","html-keyboard-response","361","1613361","0.0-1.0-471.0","0","0","49947","","111","","","75","52","k","","","","","","","","","","","","","","",""
"","S2","","html-keyboard-response","362","1613604","0.0-1.0-472.0","0","0","49947","","241","","","75","52","","k","2","52","training","adjacent","FE","6","5","M.jpg","L.jpg","1","0","0","",""
"","feedback","","html-keyboard-response","363","1614626","0.0-1.0-474.0-0.0","0","0","49947","","null","","","null","52","","","","","","","","","","","","","","","",""
"","time_out","","html-keyboard-response","364","1616633","0.0-1.0-476.0-0.0","0","0","49947","","null","","","null","52","","","","","","","","","","","","","","","",""
"","ITI","","html-keyboard-response","365","1617642","0.0-1.0-477.0","0","0","49947","","247","","","32","52","","","","","","","","","","","","","","","space",""
"","S1","","html-keyboard-response","366","1617897","0.0-1.0-479.0","0","0","49947","","null","","","null","53","","","","","","","","","","","","","","","",""
"","ISI","","html-keyboard-response","367","1618401","0.0-1.0-480.0","0","0","49947","","243","","","32","53","space","","","","","","","","","","","","","","",""
"","S2","","html-keyboard-response","368","1618482","0.0-1.0-481.0","0","0","49947","","79","","","68","53","","d","2","53","training","adjacent","BA","2","1","Q.jpg","N.jpg","0","0","1","",""
"","feedback","","html-keyboard-response","369","1619489","0.0-1.0-483.0-0.0","0","0","49947","","null","","","null","53","","","","","","","","","","","","","","","",""
"","ITI","","html-keyboard-response","370","1620498","0.0-1.0-486.0","0","0","49947","","151","","","75","53","","","","","","","","","","","","","","","k",""
"","S1","","html-keyboard-response","371","1620755","0.0-1.0-488.0","0","0","49947","","null","","","null","54","","","","","","","","","","","","","","","",""
"","ISI","","html-keyboard-response","372","1621257","0.0-1.0-489.0","0","0","49947","","167","","","32","54","space","","","","","","","","","","","","","","",""
"","S2","","html-keyboard-response","373","1621283","0.0-1.0-490.0","0","0","49947","","24","","","68","54","","d","2","54","training","adjacent","BC","2","3","Q.jpg","P.jpg","0","1","0","",""
"","feedback","","html-keyboard-response","374","1622290","0.0-1.0-492.0-0.0","0","0","49947","","null","","","null","54","","","","","","","","","","","","","","","",""
"","time_out","","html-keyboard-response","375","1624298","0.0-1.0-494.0-0.0","0","0","49947","","null","","","null","54","","","","","","","","","","","","","","","",""
"","ITI","","html-keyboard-response","376","1625305","0.0-1.0-495.0","0","0","49947","","182","","","32","54","","","","","","","","","","","","","","","space",""
"","S1","","html-keyboard-response","377","1625562","0.0-1.0-497.0","0","0","49947","","null","","","null","55","","","","","","","","","","","","","","","",""
"","ISI","","html-keyboard-response","378","1626067","0.0-1.0-498.0","0","0","49947","","379","","","32","55","space","","","","","","","","","","","","","","",""
"","S2","","html-keyboard-response","379","1626263","0.0-1.0-499.0","0","0","49947","","194","","","68","55","","d","2","55","training","adjacent","DC","4","3","R.jpg","P.jpg","0","0","1","",""
"","feedback","","html-keyboard-response","380","1627266","0.0-1.0-501.0-0.0","0","0","49947","","null","","","null","55","","","","","","","","","","","","","","","",""
"","ITI","","html-keyboard-response","381","1628274","0.0-1.0-504.0","0","0","49947","","56","","","68","55","","","","","","","","","","","","","","","d",""
"","S1","","html-keyboard-response","382","1628530","0.0-1.0-506.0","0","0","49947","","null","","","null","56","","","","","","","","","","","","","","","",""
"","ISI","","html-keyboard-response","383","1629034","0.0-1.0-507.0","0","0","49947","","20","","","75","56","k","","","","","","","","","","","","","","",""
"","S2","","html-keyboard-response","384","1629144","0.0-1.0-508.0","0","0","49947","","108","","","68","56","","d","2","56","training","adjacent","ED","5","4","L.jpg","R.jpg","0","0","1","",""
"","feedback","","html-keyboard-response","385","1630146","0.0-1.0-510.0-0.0","0","0","49947","","null","","","null","56","","","","","","","","","","","","","","","",""
"","ITI","","html-keyboard-response","386","1631151","0.0-1.0-513.0","0","0","49947","","145","","","32","56","","","","","","","","","","","","","","","space",""
"","S1","","html-keyboard-response","387","1631410","0.0-1.0-515.0","0","0","49947","","null","","","null","57","","","","","","","","","","","","","","","",""
"","ISI","","html-keyboard-response","388","1631914","0.0-1.0-516.0","0","0","49947","","9","","","75","57","k","","","","","","","","","","","","","","",""
"","S2","","html-keyboard-response","389","1632146","0.0-1.0-517.0","0","0","49947","","230","","","68","57","","d","2","57","training","adjacent","FG","6","7","M.jpg","O.jpg","0","1","0","",""
"","feedback","","html-keyboard-response","390","1633154","0.0-1.0-519.0-0.0","0","0","49947","","null","","","null","57","","","","","","","","","","","","","","","",""
"","time_out","","html-keyboard-response","391","1635162","0.0-1.0-521.0-0.0","0","0","49947","","null","","","null","57","","","","","","","","","","","","","","","",""
"","ITI","","html-keyboard-response","392","1636173","0.0-1.0-522.0","0","0","49947","","199","","","68","57","","","","","","","","","","","","","","","d",""
"","S1","","html-keyboard-response","393","1636427","0.0-1.0-524.0","0","0","49947","","null","","","null","58","","","","","","","","","","","","","","","",""
"","ISI","","html-keyboard-response","394","1636929","0.0-1.0-525.0","0","0","49947","","34","","","32","58","space","","","","","","","","","","","","","","",""
"","S2","","html-keyboard-response","395","1637064","0.0-1.0-526.0","0","0","49947","","133","","","75","58","","k","2","58","training","adjacent","GF","7","6","O.jpg","M.jpg","1","0","0","",""
"","feedback","","html-keyboard-response","396","1638066","0.0-1.0-528.0-0.0","0","0","49947","","null","","","null","58","","","","","","","","","","","","","","","",""
"","time_out","","html-keyboard-response","397","1640074","0.0-1.0-530.0-0.0","0","0","49947","","null","","","null","58","","","","","","","","","","","","","","","",""
"","ITI","","html-keyboard-response","398","1641082","0.0-1.0-531.0","0","0","49947","","26","","","68","58","","","","","","","","","","","","","","","d",""
"","S1","","html-keyboard-response","399","1641338","0.0-1.0-533.0","0","0","49947","","null","","","null","59","","","","","","","","","","","","","","","",""
"","ISI","","html-keyboard-response","400","1641842","0.0-1.0-534.0","0","0","49947","","244","","","32","59","space","","","","","","","","","","","","","","",""
"","S2","","html-keyboard-response","401","1641862","0.0-1.0-535.0","0","0","49947","","18","","","75","59","","k","2","59","training","adjacent","DE","4","5","R.jpg","L.jpg","1","1","1","",""
"","feedback","","html-keyboard-response","402","1642865","0.0-1.0-537.0-0.0","0","0","49947","","null","","","null","59","","","","","","","","","","","","","","","",""
"","ITI","","html-keyboard-response","403","1643873","0.0-1.0-540.0","0","0","49947","","95","","","75","59","","","","","","","","","","","","","","","k",""
"","S1","","html-keyboard-response","404","1644130","0.0-1.0-542.0","0","0","49947","","null","","","null","60","","","","","","","","","","","","","","","",""
"","ISI","","html-keyboard-response","405","1644634","0.0-1.0-543.0","0","0","49947","","260","","","75","60","k","","","","","","","","","","","","","","",""
"","S2","","html-keyboard-response","406","1644641","0.0-1.0-544.0","0","0","49947","","6","","","75","60","","k","2","60","training","adjacent","CD","3","4","P.jpg","R.jpg","1","1","1","",""
"","feedback","","html-keyboard-response","407","1645650","0.0-1.0-546.0-0.0","0","0","49947","","null","","","null","60","","","","","","","","","","","","","","","",""
"","ITI","","html-keyboard-response","408","1646658","0.0-1.0-549.0","0","0","49947","","170","","","68","60","","","","","","","","","","","","","","","d",""
"","S1","","html-keyboard-response","409","1646914","0.0-1.0-551.0","0","0","49947","","null","","","null","61","","","","","","","","","","","","","","","",""
"","ISI","","html-keyboard-response","410","1647418","0.0-1.0-552.0","0","0","49947","","87","","","75","61","k","","","","","","","","","","","","","","",""
"","S2","","html-keyboard-response","411","1647542","0.0-1.0-553.0","0","0","49947","","122","","","75","61","","k","2","61","training","adjacent","AB","1","2","N.jpg","Q.jpg","1","1","1","",""
"","feedback","","html-keyboard-response","412","1648546","0.0-1.0-555.0-0.0","0","0","49947","","null","","","null","61","","","","","","","","","","","","","","","",""
"","ITI","","html-keyboard-response","413","1649553","0.0-1.0-558.0","0","0","49947","","213","","","75","61","","","","","","","","","","","","","","","k",""
"","S1","","html-keyboard-response","414","1649810","0.0-1.0-560.0","0","0","49947","","null","","","null","62","","","","","","","","","","","","","","","",""
"","ISI","","html-keyboard-response","415","1650314","0.0-1.0-561.0","0","0","49947","","130","","","68","62","d","","","","","","","","","","","","","","",""
"","S2","","html-keyboard-response","416","1650461","0.0-1.0-562.0","0","0","49947","","145","","","68","62","","d","2","62","training","adjacent","EF","5","6","L.jpg","M.jpg","0","1","0","",""
"","feedback","","html-keyboard-response","417","1651465","0.0-1.0-564.0-0.0","0","0","49947","","null","","","null","62","","","","","","","","","","","","","","","",""
"","time_out","","html-keyboard-response","418","1653473","0.0-1.0-566.0-0.0","0","0","49947","","null","","","null","62","","","","","","","","","","","","","","","",""
"","ITI","","html-keyboard-response","419","1654482","0.0-1.0-567.0","0","0","49947","","27","","","32","62","","","","","","","","","","","","","","","space",""
"","S1","","html-keyboard-response","420","1654739","0.0-1.0-569.0","0","0","49947","","null","","","null","63","","","","","","","","","","","","","","","",""
"","ISI","","html-keyboard-response","421","1655243","0.0-1.0-570.0","0","0","49947","","22","","","75","63","k","","","","","","","","","","","","","","",""
"","S2","","html-keyboard-response","422","1655401","0.0-1.0-571.0","0","0","49947","","157","","","75","63","","k","2","63","training","adjacent","EF","5","6","L.jpg","M.jpg","1","1","1","",""
"","feedback","","html-keyboard-response","423","1656416","0.0-1.0-573.0-0.0","0","0","49947","","null","","","null","63","","","","","","","","","","","","","","","",""
"","ITI","","html-keyboard-response","424","1657418","0.0-1.0-576.0","0","0","49947","","185","","","75","63","","","","","","","","","","","","","","","k",""
"","S1","","html-keyboard-response","425","1657674","0.0-1.0-578.0","0","0","49947","","null","","","null","64","","","","","","","","","","","","","","","",""
"","ISI","","html-keyboard-response","426","1658178","0.0-1.0-579.0","0","0","49947","","25","","","68","64","d","","","","","","","","","","","","","","",""
"","S2","","html-keyboard-response","427","1658222","0.0-1.0-580.0","0","0","49947","","42","","","68","64","","d","2","64","training","adjacent","ED","5","4","L.jpg","R.jpg","0","0","1","",""
"","feedback","","html-keyboard-response","428","1659226","0.0-1.0-582.0-0.0","0","0","49947","","null","","","null","64","","","","","","","","","","","","","","","",""
"","ITI","","html-keyboard-response","429","1660234","0.0-1.0-585.0","0","0","49947","","113","","","68","64","","","","","","","","","","","","","","","d",""
"","S1","","html-keyboard-response","430","1660491","0.0-1.0-587.0","0","0","49947","","null","","","null","65","","","","","","","","","","","","","","","",""
"","ISI","","html-keyboard-response","431","1660994","0.0-1.0-588.0","0","0","49947","","9","","","68","65","d","","","","","","","","","","","","","","",""
"","S2","","html-keyboard-response","432","1661021","0.0-1.0-589.0","0","0","49947","","26","","","68","65","","d","2","65","training","adjacent","CD","3","4","P.jpg","R.jpg","0","1","0","",""
"","feedback","","html-keyboard-response","433","1662026","0.0-1.0-591.0-0.0","0","0","49947","","null","","","null","65","","","","","","","","","","","","","","","",""
"","time_out","","html-keyboard-response","434","1664033","0.0-1.0-593.0-0.0","0","0","49947","","null","","","null","65","","","","","","","","","","","","","","","",""
"","ITI","","html-keyboard-response","435","1665041","0.0-1.0-594.0","0","0","49947","","87","","","68","65","","","","","","","","","","","","","","","d",""
"","S1","","html-keyboard-response","436","1665298","0.0-1.0-596.0","0","0","49947","","null","","","null","66","","","","","","","","","","","","","","","",""
"","ISI","","html-keyboard-response","437","1665802","0.0-1.0-597.0","0","0","49947","","153","","","75","66","k","","","","","","","","","","","","","","",""
"","S2","","html-keyboard-response","438","1666041","0.0-1.0-598.0","0","0","49947","","237","","","75","66","","k","2","66","training","adjacent","DC","4","3","R.jpg","P.jpg","1","0","0","",""
"","feedback","","html-keyboard-response","439","1667049","0.0-1.0-600.0-0.0","0","0","49947","","null","","","null","66","","","","","","","","","","","","","","","",""
"","time_out","","html-keyboard-response","440","1669058","0.0-1.0-602.0-0.0","0","0","49947","","null","","","null","66","","","","","","","","","","","","","","","",""
"","ITI","","html-keyboard-response","441","1670065","0.0-1.0-603.0","0","0","49947","","3","","","75","66","","","","","","","","","","","","","","","k",""
"","S1","","html-keyboard-response","442","1670321","0.0-1.0-605.0","0","0","49947","","null","","","null","67","","","","","","","","","","","","","","","",""
"","ISI","","html-keyboard-response","443","1670826","0.0-1.0-606.0","0","0","49947","","19","","","75","67","k","","","","","","","","","","","","","","",""
"","S2","","html-keyboard-response","444","1670882","0.0-1.0-607.0","0","0","49947","","54","","","75","67","","k","2","67","training","adjacent","BA","2","1","Q.jpg","N.jpg","1","0","0","",""
"","feedback","","html-keyboard-response","445","1671889","0.0-1.0-609.0-0.0","0","0","49947","","null","","","null","67","","","","","","","","","","","","","","","",""
"","time_out","","html-keyboard-response","446","1673898","0.0-1.0-611.0-0.0","0","0","49947","","null","","","null","67","","","","","","","","","","","","","","","",""
"","ITI","","html-keyboard-response","447","1674902","0.0-1.0-612.0","0","0","49947","","122","","","75","67","","","","","","","","","","","","","","","k",""
"","S1","","html-keyboard-response","448","1675155","0.0-1.0-614.0","0","0","49947","","null","","","null","68","","","","","","","","","","","","","","","",""
"","ISI","","html-keyboard-response","449","1675659","0.0-1.0-615.0","0","0","49947","","5","","","68","68","d","","","","","","","","","","","","","","",""
"","S2","","html-keyboard-response","450","1675762","0.0-1.0-616.0","0","0","49947","","102","","","75","68","","k","2","68","training","adjacent","BC","2","3","Q.jpg","P.jpg","1","1","1","",""
"","feedback","","html-keyboard-response","451","1676769","0.0-1.0-618.0-0.0","0","0","49947","","null","","","null","68","","","","","","","","","","","","","","","",""
"","ITI","","html-keyboard-response","452","1677778","0.0-1.0-621.0","0","0","49947","","172","","","32","68","","","","","","","","","","","","","","","space",""
"","S1","","html-keyboard-response","453","1678033","0.0-1.0-623.0","0","0","49947","","null","","","null","69","","","","","","","","","","","","","","","",""
"","ISI","","html-keyboard-response","454","1678538","0.0-1.0-624.0","0","0","49947","","26","","","32","69","space","","","","","","","","","","","","","","",""
"","S2","","html-keyboard-response","455","1678724","0.0-1.0-625.0","0","0","49947","","185","","","75","69","","k","2","69","training","adjacent","EF","5","6","L.jpg","M.jpg","1","1","1","",""
"","feedback","","html-keyboard-response","456","1679731","0.0-1.0-627.0-0.0","0","0","49947","","null","","","null","69","","","","","","","","","","","","","","","",""
"","ITI","","html-keyboard-response","457","1680739","0.0-1.0-630.0","0","0","49947","","130","","","32","69","","","","","","","","","","","","","","","space",""
"","S1","","html-keyboard-response","458","1680993","0.0-1.0-632.0","0","0","49947","","null","","","null","70","","","","","","","","","","","","","","","",""
"","ISI","","html-keyboard-response","459","1681501","0.0-1.0-633.0","0","0","49947","","247","","","32","70","space","","","","","","","","","","","","","","",""
"","S2","","html-keyboard-response","460","1681602","0.0-1.0-634.0","0","0","49947","","99","","","75","70","","k","2","70","training","adjacent","GF","7","6","O.jpg","M.jpg","1","0","0","",""
"","feedback","","html-keyboard-response","461","1682611","0.0-1.0-636.0-0.0","0","0","49947","","null","","","null","70","","","","","","","","","","","","","","","",""
"","time_out","","html-keyboard-response","462","1684617","0.0-1.0-638.0-0.0","0","0","49947","","null","","","null","70","","","","","","","","","","","","","","","",""
"","ITI","","html-keyboard-response","463","1685626","0.0-1.0-639.0","0","0","49947","","22","","","68","70","","","","","","","","","","","","","","","d",""
"","S1","","html-keyboard-response","464","1685883","0.0-1.0-641.0","0","0","49947","","null","","","null","71","","","","","","","","","","","","","","","",""
"","ISI","","html-keyboard-response","465","1686386","0.0-1.0-642.0","0","0","49947","","177","","","32","71","space","","","","","","","","","","","","","","",""
"","S2","","html-keyboard-response","466","1686423","0.0-1.0-643.0","0","0","49947","","35","","","75","71","","k","2","71","training","adjacent","CD","3","4","P.jpg","R.jpg","1","1","1","",""
"","feedback","","html-keyboard-response","467","1687426","0.0-1.0-645.0-0.0","0","0","49947","","null","","","null","71","","","","","","","","","","","","","","","",""
"","ITI","","html-keyboard-response","468","1688436","0.0-1.0-648.0","0","0","49947","","53","","","32","71","","","","","","","","","","","","","","","space",""
"","S1","","html-keyboard-response","469","1688689","0.0-1.0-650.0","0","0","49947","","null","","","null","72","","","","","","","","","","","","","","","",""
"","ISI","","html-keyboard-response","470","1689193","0.0-1.0-651.0","0","0","49947","","470","","","32","72","space","","","","","","","","","","","","","","",""
"","S2","","html-keyboard-response","471","1689202","0.0-1.0-652.0","0","0","49947","","7","","","68","72","","d","2","72","training","adjacent","EF","5","6","L.jpg","M.jpg","0","1","0","",""
"","feedback","","html-keyboard-response","472","1690210","0.0-1.0-654.0-0.0","0","0","49947","","null","","","null","72","","","","","","","","","","","","","","","",""
"","time_out","","html-keyboard-response","473","1692218","0.0-1.0-656.0-0.0","0","0","49947","","null","","","null","72","","","","","","","","","","","","","","","",""
"","ITI","","html-keyboard-response","474","1693226","0.0-1.0-657.0","0","0","49947","","400","","","68","72","","","","","","","","","","","","","","","d",""
"","S1","","html-keyboard-response","475","1693481","0.0-1.0-659.0","0","0","49947","","null","","","null","73","","","","","","","","","","","","","","","",""
"","ISI","","html-keyboard-response","476","1693986","0.0-1.0-660.0","0","0","49947","","119","","","68","73","d","","","","","","","","","","","","","","",""
"","S2","","html-keyboard-response","477","1694122","0.0-1.0-661.0","0","0","49947","","134","","","75","73","","k","2","73","training","adjacent","GF","7","6","O.jpg","M.jpg","1","0","0","",""
"","feedback","","html-keyboard-response","478","1695132","0.0-1.0-663.0-0.0","0","0","49947","","null","","","null","73","","","","","","","","","","","","","","","",""
"","time_out","","html-keyboard-response","479","1697139","0.0-1.0-665.0-0.0","0","0","49947","","null","","","null","73","","","","","","","","","","","","","","","",""
"","ITI","","html-keyboard-response","480","1698146","0.0-1.0-666.0","0","0","49947","","62","","","68","73","","","","","","","","","","","","","","","d",""
"","S1","","html-keyboard-response","481","1698403","0.0-1.0-668.0","0","0","49947","","null","","","null","74","","","","","","","","","","","","","","","",""
"","ISI","","html-keyboard-response","482","1698907","0.0-1.0-669.0","0","0","49947","","427","","","75","74","k","","","","","","","","","","","","","","",""
"","S2","","html-keyboard-response","483","1698922","0.0-1.0-670.0","0","0","49947","","14","","","68","74","","d","2","74","training","adjacent","DE","4","5","R.jpg","L.jpg","0","1","0","",""
"","feedback","","html-keyboard-response","484","1699930","0.0-1.0-672.0-0.0","0","0","49947","","null","","","null","74","","","","","","","","","","","","","","","",""
"","time_out","","html-keyboard-response","485","1701937","0.0-1.0-674.0-0.0","0","0","49947","","null","","","null","74","","","","","","","","","","","","","","","",""
"","ITI","","html-keyboard-response","486","1702946","0.0-1.0-675.0","0","0","49947","","203","","","75","74","","","","","","","","","","","","","","","k",""
"","S1","","html-keyboard-response","487","1703202","0.0-1.0-677.0","0","0","49947","","null","","","null","75","","","","","","","","","","","","","","","",""
"","ISI","","html-keyboard-response","488","1703706","0.0-1.0-678.0","0","0","49947","","59","","","75","75","k","","","","","","","","","","","","","","",""
"","S2","","html-keyboard-response","489","1703821","0.0-1.0-679.0","0","0","49947","","113","","","68","75","","d","2","75","training","adjacent","ED","5","4","L.jpg","R.jpg","0","0","1","",""
"","feedback","","html-keyboard-response","490","1704826","0.0-1.0-681.0-0.0","0","0","49947","","null","","","null","75","","","","","","","","","","","","","","","",""
"","ITI","","html-keyboard-response","491","1705833","0.0-1.0-684.0","0","0","49947","","13","","","75","75","","","","","","","","","","","","","","","k",""
"","S1","","html-keyboard-response","492","1706099","0.0-1.0-686.0","0","0","49947","","null","","","null","76","","","","","","","","","","","","","","","",""
"","ISI","","html-keyboard-response","493","1706603","0.0-1.0-687.0","0","0","49947","","122","","","68","76","d","","","","","","","","","","","","","","",""
"","S2","","html-keyboard-response","494","1706743","0.0-1.0-688.0","0","0","49947","","139","","","68","76","","d","2","76","training","adjacent","BC","2","3","Q.jpg","P.jpg","0","1","0","",""
"","feedback","","html-keyboard-response","495","1707747","0.0-1.0-690.0-0.0","0","0","49947","","null","","","null","76","","","","","","","","","","","","","","","",""
"","time_out","","html-keyboard-response","496","1709754","0.0-1.0-692.0-0.0","0","0","49947","","null","","","null","76","","","","","","","","","","","","","","","",""
"","ITI","","html-keyboard-response","497","1710763","0.0-1.0-693.0","0","0","49947","","47","","","75","76","","","","","","","","","","","","","","","k",""
"","S1","","html-keyboard-response","498","1711018","0.0-1.0-695.0","0","0","49947","","null","","","null","77","","","","","","","","","","","","","","","",""
"","ISI","","html-keyboard-response","499","1711521","0.0-1.0-696.0","0","0","49947","","42","","","68","77","d","","","","","","","","","","","","","","",""
"","S2","","html-keyboard-response","500","1711642","0.0-1.0-697.0","0","0","49947","","119","","","68","77","","d","2","77","training","adjacent","FE","6","5","M.jpg","L.jpg","0","0","1","",""
"","feedback","","html-keyboard-response","501","1712650","0.0-1.0-699.0-0.0","0","0","49947","","null","","","null","77","","","","","","","","","","","","","","","",""
"","ITI","","html-keyboard-response","502","1713658","0.0-1.0-702.0","0","0","49947","","130","","","68","77","","","","","","","","","","","","","","","d",""
"","S1","","html-keyboard-response","503","1713915","0.0-1.0-704.0","0","0","49947","","null","","","null","78","","","","","","","","","","","","","","","",""
"","ISI","","html-keyboard-response","504","1714418","0.0-1.0-705.0","0","0","49947","","7","","","75","78","k","","","","","","","","","","","","","","",""
"","S2","","html-keyboard-response","505","1714428","0.0-1.0-706.0","0","0","49947","","5","","","75","78","","k","2","78","training","adjacent","FG","6","7","M.jpg","O.jpg","1","1","1","",""
"","feedback","","html-keyboard-response","506","1715434","0.0-1.0-708.0-0.0","0","0","49947","","null","","","null","78","","","","","","","","","","","","","","","",""
"","ITI","","html-keyboard-response","507","1716441","0.0-1.0-711.0","0","0","49947","","66","","","68","78","","","","","","","","","","","","","","","d",""
"","S1","","html-keyboard-response","508","1716697","0.0-1.0-713.0","0","0","49947","","null","","","null","79","","","","","","","","","","","","","","","",""
"","ISI","","html-keyboard-response","509","1717203","0.0-1.0-714.0","0","0","49947","","163","","","68","79","d","","","","","","","","","","","","","","",""
"","S2","","html-keyboard-response","510","1717262","0.0-1.0-715.0","0","0","49947","","58","","","75","79","","k","2","79","training","adjacent","DE","4","5","R.jpg","L.jpg","1","1","1","",""
"","feedback","","html-keyboard-response","511","1718267","0.0-1.0-717.0-0.0","0","0","49947","","null","","","null","79","","","","","","","","","","","","","","","",""
"","ITI","","html-keyboard-response","512","1719313","0.0-1.0-720.0","0","0","49947","","33","","","68","79","","","","","","","","","","","","","","","d",""
"","S1","","html-keyboard-response","513","1719570","0.0-1.0-722.0","0","0","49947","","null","","","null","80","","","","","","","","","","","","","","","",""
"","ISI","","html-keyboard-response","514","1720075","0.0-1.0-723.0","0","0","49947","","30","","","75","80","k","","","","","","","","","","","","","","",""
"","S2","","html-keyboard-response","515","1720101","0.0-1.0-724.0","0","0","49947","","25","","","68","80","","d","2","80","training","adjacent","CB","3","2","P.jpg","Q.jpg","0","0","1","",""
"","feedback","","html-keyboard-response","516","1721112","0.0-1.0-726.0-0.0","0","0","49947","","null","","","null","80","","","","","","","","","","","","","","","",""
"","ITI","","html-keyboard-response","517","1722115","0.0-1.0-729.0","0","0","49947","","149","","","68","80","","","","","","","","","","","","","","","d",""
"","S1","","html-keyboard-response","518","1722371","0.0-1.0-731.0","0","0","49947","","null","","","null","81","","","","","","","","","","","","","","","",""
"","ISI","","html-keyboard-response","519","1722873","0.0-1.0-732.0","0","0","49947","","150","","","75","81","k","","","","","","","","","","","","","","",""
"","S2","","html-keyboard-response","520","1722982","0.0-1.0-733.0","0","0","49947","","107","","","68","81","","d","2","81","training","adjacent","GF","7","6","O.jpg","M.jpg","0","0","1","",""
"","feedback","","html-keyboard-response","521","1723986","0.0-1.0-735.0-0.0","0","0","49947","","null","","","null","81","","","","","","","","","","","","","","","",""
"","ITI","","html-keyboard-response","522","1724993","0.0-1.0-738.0","0","0","49947","","193","","","68","81","","","","","","","","","","","","","","","d",""
"","S1","","html-keyboard-response","523","1725250","0.0-1.0-740.0","0","0","49947","","null","","","null","82","","","","","","","","","","","","","","","",""
"","ISI","","html-keyboard-response","524","1725754","0.0-1.0-741.0","0","0","49947","","220","","","68","82","d","","","","","","","","","","","","","","",""
"","S2","","html-keyboard-response","525","1725823","0.0-1.0-742.0","0","0","49947","","67","","","75","82","","k","2","82","training","adjacent","AB","1","2","N.jpg","Q.jpg","1","1","1","",""
"","feedback","","html-keyboard-response","526","1726829","0.0-1.0-744.0-0.0","0","0","49947","","null","","","null","82","","","","","","","","","","","","","","","",""
"","ITI","","html-keyboard-response","527","1727834","0.0-1.0-747.0","0","0","49947","","91","","","68","82","","","","","","","","","","","","","","","d",""
"","S1","","html-keyboard-response","528","1728086","0.0-1.0-749.0","0","0","49947","","null","","","null","83","","","","","","","","","","","","","","","",""
"","ISI","","html-keyboard-response","529","1728587","0.0-1.0-750.0","0","0","49947","","115","","","75","83","k","","","","","","","","","","","","","","",""
"","S2","","html-keyboard-response","530","1728682","0.0-1.0-751.0","0","0","49947","","94","","","68","83","","d","2","83","training","adjacent","FE","6","5","M.jpg","L.jpg","0","0","1","",""
"","feedback","","html-keyboard-response","531","1729689","0.0-1.0-753.0-0.0","0","0","49947","","null","","","null","83","","","","","","","","","","","","","","","",""
"","ITI","","html-keyboard-response","532","1730697","0.0-1.0-756.0","0","0","49947","","131","","","68","83","","","","","","","","","","","","","","","d",""
"","S1","","html-keyboard-response","533","1730953","0.0-1.0-758.0","0","0","49947","","null","","","null","84","","","","","","","","","","","","","","","",""
"","ISI","","html-keyboard-response","534","1731458","0.0-1.0-759.0","0","0","49947","","106","","","68","84","d","","","","","","","","","","","","","","",""
"","S2","","html-keyboard-response","535","1731481","0.0-1.0-760.0","0","0","49947","","22","","","75","84","","k","2","84","training","adjacent","AB","1","2","N.jpg","Q.jpg","1","1","1","",""
"","feedback","","html-keyboard-response","536","1732493","0.0-1.0-762.0-0.0","0","0","49947","","null","","","null","84","","","","","","","","","","","","","","","",""
"","ITI","","html-keyboard-response","537","1733497","0.0-1.0-765.0","0","0","49947","","65","","","68","84","","","","","","","","","","","","","","","d",""
"","S1","","html-keyboard-response","538","1733754","0.0-1.0-767.0","0","0","49947","","null","","","null","85","","","","","","","","","","","","","","","",""
"","ISI","","html-keyboard-response","539","1734259","0.0-1.0-768.0","0","0","49947","","166","","","68","85","d","","","","","","","","","","","","","","",""
"","S2","","html-keyboard-response","540","1734382","0.0-1.0-769.0","0","0","49947","","121","","","75","85","","k","2","85","training","adjacent","FG","6","7","M.jpg","O.jpg","1","1","1","",""
"","feedback","","html-keyboard-response","541","1735386","0.0-1.0-771.0-0.0","0","0","49947","","null","","","null","85","","","","","","","","","","","","","","","",""
"","ITI","","html-keyboard-response","542","1736394","0.0-1.0-774.0","0","0","49947","","14","","","68","85","","","","","","","","","","","","","","","d",""
"","S1","","html-keyboard-response","543","1736649","0.0-1.0-776.0","0","0","49947","","null","","","null","86","","","","","","","","","","","","","","","",""
"","ISI","","html-keyboard-response","544","1737153","0.0-1.0-777.0","0","0","49947","","59","","","68","86","d","","","","","","","","","","","","","","",""
"","S2","","html-keyboard-response","545","1737322","0.0-1.0-778.0","0","0","49947","","167","","","68","86","","d","2","86","training","adjacent","FE","6","5","M.jpg","L.jpg","0","0","1","",""
"","feedback","","html-keyboard-response","546","1738331","0.0-1.0-780.0-0.0","0","0","49947","","null","","","null","86","","","","","","","","","","","","","","","",""
"","ITI","","html-keyboard-response","547","1739969","0.0-1.0-783.0","0","0","49947","","120","","","68","86","","","","","","","","","","","","","","","d",""
"","S1","","html-keyboard-response","548","1740811","0.0-1.0-785.0","0","0","49947","","null","","","null","87","","","","","","","","","","","","","","","",""
"","ISI","","html-keyboard-response","549","1741315","0.0-1.0-786.0","0","0","49947","","129","","","68","87","d","","","","","","","","","","","","","","",""
"","S2","","html-keyboard-response","550","1741422","0.0-1.0-787.0","0","0","49947","","105","","","68","87","","d","2","87","training","adjacent","DC","4","3","R.jpg","P.jpg","0","0","1","",""
"","feedback","","html-keyboard-response","551","1742453","0.0-1.0-789.0-0.0","0","0","49947","","null","","","null","87","","","","","","","","","","","","","","","",""
"","ITI","","html-keyboard-response","552","1743460","0.0-1.0-792.0","0","0","49947","","38","","","68","87","","","","","","","","","","","","","","","d",""
"","S1","","html-keyboard-response","553","1743714","0.0-1.0-794.0","0","0","49947","","null","","","null","88","","","","","","","","","","","","","","","",""
"","ISI","","html-keyboard-response","554","1744218","0.0-1.0-795.0","0","0","49947","","46","","","76","88","l","","","","","","","","","","","","","","",""
