"success","ttype","start_time","trial_type","trial_index","time_elapsed","internal_node_id","warning","missed_checkup","PID","view_history","rt","responses","repeat_instructions","key_press","index","keypress_isi","keypress_S2","block","trial_num","phase","group_type","pair_type","S1_stim","S2_stim","S1_img","S2_img","S1_chosen","S1_higher","accuracy","keypress_iti","total_bonus_tally"
"true","full_screen","d08052022hr1649","fullscreen","0","4684","0.0-0.0","0","0","62755","","","","","","","","","","","","","","","","","","","","","",""
"","instructions","","instructions","1","43241","0.0-1.0-0.0-0.0","0","0","62755","[{""page_index"":0,""viewing_time"":6152},{""page_index"":1,""viewing_time"":19798},{""page_index"":2,""viewing_time"":4518},{""page_index"":1,""viewing_time"":5359},{""page_index"":2,""viewing_time"":1558},{""page_index"":3,""viewing_time"":1170}]","38556","","","","","","","","","","","","","","","","","","","",""
"","comprehension_check","","survey-multi-choice","2","57884","0.0-1.0-0.0-1.0","0","0","62755","","14639","{""Q0"":""True"",""Q1"":""K"",""Q2"":""Only when the screen 'MAKE A CHOICE' is shown"",""Q3"":""Green mark"",""Q4"":""either D or K""}","1","","","","","","","","","","","","","","","","","",""
"","missed_instruction_checkup","","html-keyboard-response","3","59992","0.0-1.0-0.0-2.0-0.0","0","1","62755","","2106","","","32","","","","","","","","","","","","","","","","",""
"","instructions","","instructions","4","71664","0.0-1.0-0.1-0.1","0","0","62755","[{""page_index"":0,""viewing_time"":2371},{""page_index"":1,""viewing_time"":7712},{""page_index"":2,""viewing_time"":782},{""page_index"":3,""viewing_time"":805}]","11670","","","","","","","","","","","","","","","","","","","",""
"","comprehension_check","","survey-multi-choice","5","82729","0.0-1.0-0.1-1.1","0","0","62755","","11061","{""Q0"":""True"",""Q1"":""K"",""Q2"":""Once the second image appears and while the screen 'MAKE A CHOICE' is shown"",""Q3"":""Green mark"",""Q4"":""either D or K""}","0","","","","","","","","","","","","","","","","","",""
"","start_exp","","html-keyboard-response","6","83618","0.0-1.0-1.0","0","0","62755","","889","","","32","","","","","","","","","","","","","","","","",""
"","S1","","html-keyboard-response","7","83870","0.0-1.0-2.0","0","0","62755","","null","","","null","0","","","","","","","","","","","","","","","",""
"","ISI","","html-keyboard-response","8","85872","0.0-1.0-3.0","0","0","62755","","null","","","null","0","NaN","","","","","","","","","","","","","","",""
"","S2","","html-keyboard-response","9","86124","0.0-1.0-4.0","0","0","62755","","null","","","null","0","","NaN","","","","","","","","","","","","","",""
"","response","","html-keyboard-response","10","86555","0.0-1.0-5.0-0.0","0","0","62755","","429","","","75","0","","","1","0","training","adjacent","AB","1","2","O.jpg","N.jpg","1","1","1","",""
"","feedback","","html-keyboard-response","11","87572","0.0-1.0-6.0-0.0","0","0","62755","","null","","","null","0","","","","","","","","","","","","","","","",""
"","ITI","","html-keyboard-response","12","88573","0.0-1.0-9.0","0","0","62755","","null","","","null","0","","","","","","","","","","","","","","","NaN",""
"","S1","","html-keyboard-response","13","88841","0.0-1.0-11.0","0","0","62755","","null","","","null","1","","","","","","","","","","","","","","","",""
"","ISI","","html-keyboard-response","14","90842","0.0-1.0-12.0","0","0","62755","","null","","","null","1","NaN","","","","","","","","","","","","","","",""
"","S2","","html-keyboard-response","15","91095","0.0-1.0-13.0","0","0","62755","","null","","","null","1","","NaN","","","","","","","","","","","","","",""
"","response","","html-keyboard-response","16","91272","0.0-1.0-14.0-0.0","0","0","62755","","177","","","75","1","","","1","1","training","adjacent","EF","5","6","Q.jpg","L.jpg","1","1","1","",""
"","feedback","","html-keyboard-response","17","92274","0.0-1.0-15.0-0.0","0","0","62755","","null","","","null","1","","","","","","","","","","","","","","","",""
"","ITI","","html-keyboard-response","18","93277","0.0-1.0-18.0","0","0","62755","","null","","","null","1","","","","","","","","","","","","","","","NaN",""
"","S1","","html-keyboard-response","19","93529","0.0-1.0-20.0","0","0","62755","","null","","","null","2","","","","","","","","","","","","","","","",""
"","ISI","","html-keyboard-response","20","95531","0.0-1.0-21.0","0","0","62755","","null","","","null","2","NaN","","","","","","","","","","","","","","",""
"","S2","","html-keyboard-response","21","95783","0.0-1.0-22.0","0","0","62755","","null","","","null","2","","NaN","","","","","","","","","","","","","",""
"","response","","html-keyboard-response","22","96076","0.0-1.0-23.0-0.0","0","0","62755","","292","","","68","2","","","1","2","training","adjacent","GF","7","6","M.jpg","L.jpg","0","0","1","",""
"","feedback","","html-keyboard-response","23","97078","0.0-1.0-24.0-0.0","0","0","62755","","null","","","null","2","","","","","","","","","","","","","","","",""
"","ITI","","html-keyboard-response","24","98080","0.0-1.0-27.0","0","0","62755","","null","","","null","2","","","","","","","","","","","","","","","NaN",""
"","S1","","html-keyboard-response","25","98332","0.0-1.0-29.0","0","0","62755","","null","","","null","3","","","","","","","","","","","","","","","",""
"","ISI","","html-keyboard-response","26","100347","0.0-1.0-30.0","0","0","62755","","null","","","null","3","NaN","","","","","","","","","","","","","","",""
"","S2","","html-keyboard-response","27","100599","0.0-1.0-31.0","0","0","62755","","null","","","null","3","","NaN","","","","","","","","","","","","","",""
"","response","","html-keyboard-response","28","101053","0.0-1.0-32.0-0.0","0","0","62755","","452","","","68","3","","","1","3","training","adjacent","CD","3","4","R.jpg","P.jpg","0","1","0","",""
"","feedback","","html-keyboard-response","29","102056","0.0-1.0-33.0-0.0","0","0","62755","","null","","","null","3","","","","","","","","","","","","","","","",""
"","time_out","","html-keyboard-response","30","104057","0.0-1.0-35.0-0.0","0","0","62755","","null","","","null","3","","","","","","","","","","","","","","","",""
"","ITI","","html-keyboard-response","31","105060","0.0-1.0-36.0","0","0","62755","","null","","","null","3","","","","","","","","","","","","","","","NaN",""
"","S1","","html-keyboard-response","32","105312","0.0-1.0-38.0","0","0","62755","","null","","","null","4","","","","","","","","","","","","","","","",""
"","ISI","","html-keyboard-response","33","107314","0.0-1.0-39.0","0","0","62755","","null","","","null","4","NaN","","","","","","","","","","","","","","",""
"","S2","","html-keyboard-response","34","107572","0.0-1.0-40.0","0","0","62755","","null","","","null","4","","NaN","","","","","","","","","","","","","",""
"","response","","html-keyboard-response","35","107621","0.0-1.0-41.0-0.0","0","0","62755","","47","","","75","4","","","1","4","training","adjacent","BA","2","1","N.jpg","O.jpg","1","0","0","",""
"","feedback","","html-keyboard-response","36","108623","0.0-1.0-42.0-0.0","0","0","62755","","null","","","null","4","","","","","","","","","","","","","","","",""
"","time_out","","html-keyboard-response","37","110625","0.0-1.0-44.0-0.0","0","0","62755","","null","","","null","4","","","","","","","","","","","","","","","",""
"","ITI","","html-keyboard-response","38","111627","0.0-1.0-45.0","0","0","62755","","null","","","null","4","","","","","","","","","","","","","","","NaN",""
"","S1","","html-keyboard-response","39","111878","0.0-1.0-47.0","0","0","62755","","null","","","null","5","","","","","","","","","","","","","","","",""
"","ISI","","html-keyboard-response","40","113880","0.0-1.0-48.0","0","0","62755","","null","","","null","5","NaN","","","","","","","","","","","","","","",""
"","S2","","html-keyboard-response","41","114132","0.0-1.0-49.0","0","0","62755","","null","","","null","5","","NaN","","","","","","","","","","","","","",""
"","response","","html-keyboard-response","42","114421","0.0-1.0-50.0-0.0","0","0","62755","","287","","","75","5","","","1","5","training","adjacent","CD","3","4","R.jpg","P.jpg","1","1","1","",""
"","feedback","","html-keyboard-response","43","115423","0.0-1.0-51.0-0.0","0","0","62755","","null","","","null","5","","","","","","","","","","","","","","","",""
"","ITI","","html-keyboard-response","44","116425","0.0-1.0-54.0","0","0","62755","","null","","","null","5","","","","","","","","","","","","","","","NaN",""
"","S1","","html-keyboard-response","45","116677","0.0-1.0-56.0","0","0","62755","","null","","","null","6","","","","","","","","","","","","","","","",""
"","ISI","","html-keyboard-response","46","118678","0.0-1.0-57.0","0","0","62755","","null","","","null","6","NaN","","","","","","","","","","","","","","",""
"","S2","","html-keyboard-response","47","118931","0.0-1.0-58.0","0","0","62755","","null","","","null","6","","NaN","","","","","","","","","","","","","",""
"","response","","html-keyboard-response","48","119037","0.0-1.0-59.0-0.0","0","0","62755","","106","","","75","6","","","1","6","training","adjacent","BA","2","1","N.jpg","O.jpg","1","0","0","",""
"","feedback","","html-keyboard-response","49","120040","0.0-1.0-60.0-0.0","0","0","62755","","null","","","null","6","","","","","","","","","","","","","","","",""
"","time_out","","html-keyboard-response","50","122042","0.0-1.0-62.0-0.0","0","0","62755","","null","","","null","6","","","","","","","","","","","","","","","",""
"","ITI","","html-keyboard-response","51","123045","0.0-1.0-63.0","0","0","62755","","null","","","null","6","","","","","","","","","","","","","","","NaN",""
"","S1","","html-keyboard-response","52","123297","0.0-1.0-65.0","0","0","62755","","null","","","null","7","","","","","","","","","","","","","","","",""
"","ISI","","html-keyboard-response","53","125299","0.0-1.0-66.0","0","0","62755","","null","","","null","7","NaN","","","","","","","","","","","","","","",""
"","S2","","html-keyboard-response","54","125551","0.0-1.0-67.0","0","0","62755","","null","","","null","7","","NaN","","","","","","","","","","","","","",""
"","response","","html-keyboard-response","55","125567","0.0-1.0-68.0-0.0","0","0","62755","","16","","","68","7","","","1","7","training","adjacent","DE","4","5","P.jpg","Q.jpg","0","1","0","",""
"","feedback","","html-keyboard-response","56","126570","0.0-1.0-69.0-0.0","0","0","62755","","null","","","null","7","","","","","","","","","","","","","","","",""
"","time_out","","html-keyboard-response","57","128573","0.0-1.0-71.0-0.0","0","0","62755","","null","","","null","7","","","","","","","","","","","","","","","",""
"","ITI","","html-keyboard-response","58","129578","0.0-1.0-72.0","0","0","62755","","null","","","null","7","","","","","","","","","","","","","","","NaN",""
"","S1","","html-keyboard-response","59","129830","0.0-1.0-74.0","0","0","62755","","null","","","null","8","","","","","","","","","","","","","","","",""
"","ISI","","html-keyboard-response","60","131832","0.0-1.0-75.0","0","0","62755","","null","","","null","8","NaN","","","","","","","","","","","","","","",""
"","S2","","html-keyboard-response","61","132084","0.0-1.0-76.0","0","0","62755","","null","","","null","8","","NaN","","","","","","","","","","","","","",""
"","response","","html-keyboard-response","62","132338","0.0-1.0-77.0-0.0","0","0","62755","","252","","","75","8","","","1","8","training","adjacent","CD","3","4","R.jpg","P.jpg","1","1","1","",""
"","feedback","","html-keyboard-response","63","133340","0.0-1.0-78.0-0.0","0","0","62755","","null","","","null","8","","","","","","","","","","","","","","","",""
"","ITI","","html-keyboard-response","64","134342","0.0-1.0-81.0","0","0","62755","","null","","","null","8","","","","","","","","","","","","","","","NaN",""
"","S1","","html-keyboard-response","65","134594","0.0-1.0-83.0","0","0","62755","","null","","","null","9","","","","","","","","","","","","","","","",""
"","ISI","","html-keyboard-response","66","136597","0.0-1.0-84.0","0","0","62755","","null","","","null","9","NaN","","","","","","","","","","","","","","",""
"","S2","","html-keyboard-response","67","136848","0.0-1.0-85.0","0","0","62755","","null","","","null","9","","NaN","","","","","","","","","","","","","",""
"","response","","html-keyboard-response","68","137072","0.0-1.0-86.0-0.0","0","0","62755","","222","","","75","9","","","1","9","training","adjacent","BC","2","3","N.jpg","R.jpg","1","1","1","",""
"","feedback","","html-keyboard-response","69","138074","0.0-1.0-87.0-0.0","0","0","62755","","null","","","null","9","","","","","","","","","","","","","","","",""
"","ITI","","html-keyboard-response","70","139075","0.0-1.0-90.0","0","0","62755","","null","","","null","9","","","","","","","","","","","","","","","NaN",""
"","S1","","html-keyboard-response","71","139327","0.0-1.0-92.0","0","0","62755","","null","","","null","10","","","","","","","","","","","","","","","",""
"","ISI","","html-keyboard-response","72","141331","0.0-1.0-93.0","0","0","62755","","null","","","null","10","NaN","","","","","","","","","","","","","","",""
"","S2","","html-keyboard-response","73","141583","0.0-1.0-94.0","0","0","62755","","null","","","null","10","","NaN","","","","","","","","","","","","","",""
"","response","","html-keyboard-response","74","141818","0.0-1.0-95.0-0.0","0","0","62755","","233","","","75","10","","","1","10","training","adjacent","EF","5","6","Q.jpg","L.jpg","1","1","1","",""
"","feedback","","html-keyboard-response","75","142820","0.0-1.0-96.0-0.0","0","0","62755","","null","","","null","10","","","","","","","","","","","","","","","",""
"","ITI","","html-keyboard-response","76","143822","0.0-1.0-99.0","0","0","62755","","null","","","null","10","","","","","","","","","","","","","","","NaN",""
"","S1","","html-keyboard-response","77","144075","0.0-1.0-101.0","0","0","62755","","null","","","null","11","","","","","","","","","","","","","","","",""
"","ISI","","html-keyboard-response","78","146076","0.0-1.0-102.0","0","0","62755","","null","","","null","11","NaN","","","","","","","","","","","","","","",""
"","S2","","html-keyboard-response","79","146329","0.0-1.0-103.0","0","0","62755","","null","","","null","11","","NaN","","","","","","","","","","","","","",""
"","response","","html-keyboard-response","80","146525","0.0-1.0-104.0-0.0","0","0","62755","","195","","","75","11","","","1","11","training","adjacent","BA","2","1","N.jpg","O.jpg","1","0","0","",""
"","feedback","","html-keyboard-response","81","147528","0.0-1.0-105.0-0.0","0","0","62755","","null","","","null","11","","","","","","","","","","","","","","","",""
"","time_out","","html-keyboard-response","82","149529","0.0-1.0-107.0-0.0","0","0","62755","","null","","","null","11","","","","","","","","","","","","","","","",""
"","ITI","","html-keyboard-response","83","150532","0.0-1.0-108.0","0","0","62755","","null","","","null","11","","","","","","","","","","","","","","","NaN",""
"","S1","","html-keyboard-response","84","150784","0.0-1.0-110.0","0","0","62755","","null","","","null","12","","","","","","","","","","","","","","","",""
"","ISI","","html-keyboard-response","85","152785","0.0-1.0-111.0","0","0","62755","","null","","","null","12","NaN","","","","","","","","","","","","","","",""
"","S2","","html-keyboard-response","86","153037","0.0-1.0-112.0","0","0","62755","","null","","","null","12","","NaN","","","","","","","","","","","","","",""
"","response","","html-keyboard-response","87","153546","0.0-1.0-113.0-0.0","0","0","62755","","507","","","68","12","","","1","12","training","adjacent","ED","5","4","Q.jpg","P.jpg","0","0","1","",""
"","feedback","","html-keyboard-response","88","154549","0.0-1.0-114.0-0.0","0","0","62755","","null","","","null","12","","","","","","","","","","","","","","","",""
"","ITI","","html-keyboard-response","89","155551","0.0-1.0-117.0","0","0","62755","","null","","","null","12","","","","","","","","","","","","","","","NaN",""
"","S1","","html-keyboard-response","90","155802","0.0-1.0-119.0","0","0","62755","","null","","","null","13","","","","","","","","","","","","","","","",""
"","ISI","","html-keyboard-response","91","157804","0.0-1.0-120.0","0","0","62755","","null","","","null","13","NaN","","","","","","","","","","","","","","",""
"","S2","","html-keyboard-response","92","158056","0.0-1.0-121.0","0","0","62755","","null","","","null","13","","NaN","","","","","","","","","","","","","",""
"","response","","html-keyboard-response","93","158358","0.0-1.0-122.0-0.0","0","0","62755","","302","","","75","13","","","1","13","training","adjacent","DE","4","5","P.jpg","Q.jpg","1","1","1","",""
"","feedback","","html-keyboard-response","94","159361","0.0-1.0-123.0-0.0","0","0","62755","","null","","","null","13","","","","","","","","","","","","","","","",""
"","ITI","","html-keyboard-response","95","160363","0.0-1.0-126.0","0","0","62755","","null","","","null","13","","","","","","","","","","","","","","","NaN",""
"","S1","","html-keyboard-response","96","160616","0.0-1.0-128.0","0","0","62755","","null","","","null","14","","","","","","","","","","","","","","","",""
"","ISI","","html-keyboard-response","97","162617","0.0-1.0-129.0","0","0","62755","","null","","","null","14","NaN","","","","","","","","","","","","","","",""
"","S2","","html-keyboard-response","98","162869","0.0-1.0-130.0","0","0","62755","","null","","","null","14","","NaN","","","","","","","","","","","","","",""
"","response","","html-keyboard-response","99","163341","0.0-1.0-131.0-0.0","0","0","62755","","470","","","68","14","","","1","14","training","adjacent","BA","2","1","N.jpg","O.jpg","0","0","1","",""
"","feedback","","html-keyboard-response","100","164343","0.0-1.0-132.0-0.0","0","0","62755","","null","","","null","14","","","","","","","","","","","","","","","",""
"","ITI","","html-keyboard-response","101","165345","0.0-1.0-135.0","0","0","62755","","null","","","null","14","","","","","","","","","","","","","","","NaN",""
"","S1","","html-keyboard-response","102","165597","0.0-1.0-137.0","0","0","62755","","null","","","null","15","","","","","","","","","","","","","","","",""
"","ISI","","html-keyboard-response","103","167599","0.0-1.0-138.0","0","0","62755","","null","","","null","15","NaN","","","","","","","","","","","","","","",""
"","S2","","html-keyboard-response","104","167850","0.0-1.0-139.0","0","0","62755","","null","","","null","15","","NaN","","","","","","","","","","","","","",""
"","response","","html-keyboard-response","105","168147","0.0-1.0-140.0-0.0","0","0","62755","","295","","","75","15","","","1","15","training","adjacent","FE","6","5","L.jpg","Q.jpg","1","0","0","",""
"","feedback","","html-keyboard-response","106","169149","0.0-1.0-141.0-0.0","0","0","62755","","null","","","null","15","","","","","","","","","","","","","","","",""
"","time_out","","html-keyboard-response","107","171159","0.0-1.0-143.0-0.0","0","0","62755","","null","","","null","15","","","","","","","","","","","","","","","",""
"","ITI","","html-keyboard-response","108","172161","0.0-1.0-144.0","0","0","62755","","null","","","null","15","","","","","","","","","","","","","","","NaN",""
"","S1","","html-keyboard-response","109","172414","0.0-1.0-146.0","0","0","62755","","null","","","null","16","","","","","","","","","","","","","","","",""
"","ISI","","html-keyboard-response","110","174416","0.0-1.0-147.0","0","0","62755","","643","","","75","16","k","","","","","","","","","","","","","","",""
"","S2","","html-keyboard-response","111","174668","0.0-1.0-148.0","0","0","62755","","null","","","null","16","","NaN","","","","","","","","","","","","","",""
"","response","","html-keyboard-response","112","174747","0.0-1.0-149.0-0.0","0","0","62755","","77","","","75","16","","","1","16","training","adjacent","CD","3","4","R.jpg","P.jpg","1","1","1","",""
"","feedback","","html-keyboard-response","113","175748","0.0-1.0-150.0-0.0","0","0","62755","","null","","","null","16","","","","","","","","","","","","","","","",""
"","ITI","","html-keyboard-response","114","176750","0.0-1.0-153.0","0","0","62755","","null","","","null","16","","","","","","","","","","","","","","","NaN",""
"","S1","","html-keyboard-response","115","177001","0.0-1.0-155.0","0","0","62755","","null","","","null","17","","","","","","","","","","","","","","","",""
"","ISI","","html-keyboard-response","116","179003","0.0-1.0-156.0","0","0","62755","","null","","","null","17","NaN","","","","","","","","","","","","","","",""
"","S2","","html-keyboard-response","117","179255","0.0-1.0-157.0","0","0","62755","","null","","","null","17","","NaN","","","","","","","","","","","","","",""
"","response","","html-keyboard-response","118","179565","0.0-1.0-158.0-0.0","0","0","62755","","308","","","68","17","","","1","17","training","adjacent","CB","3","2","R.jpg","N.jpg","0","0","1","",""
"","feedback","","html-keyboard-response","119","180569","0.0-1.0-159.0-0.0","0","0","62755","","null","","","null","17","","","","","","","","","","","","","","","",""
"","ITI","","html-keyboard-response","120","181571","0.0-1.0-162.0","0","0","62755","","null","","","null","17","","","","","","","","","","","","","","","NaN",""
"","S1","","html-keyboard-response","121","181823","0.0-1.0-164.0","0","0","62755","","null","","","null","18","","","","","","","","","","","","","","","",""
"","ISI","","html-keyboard-response","122","183824","0.0-1.0-165.0","0","0","62755","","null","","","null","18","NaN","","","","","","","","","","","","","","",""
"","S2","","html-keyboard-response","123","184076","0.0-1.0-166.0","0","0","62755","","null","","","null","18","","NaN","","","","","","","","","","","","","",""
"","response","","html-keyboard-response","124","184456","0.0-1.0-167.0-0.0","0","0","62755","","378","","","68","18","","","1","18","training","adjacent","FG","6","7","L.jpg","M.jpg","0","1","0","",""
"","feedback","","html-keyboard-response","125","185458","0.0-1.0-168.0-0.0","0","0","62755","","null","","","null","18","","","","","","","","","","","","","","","",""
"","time_out","","html-keyboard-response","126","187460","0.0-1.0-170.0-0.0","0","0","62755","","null","","","null","18","","","","","","","","","","","","","","","",""
"","ITI","","html-keyboard-response","127","188462","0.0-1.0-171.0","0","0","62755","","null","","","null","18","","","","","","","","","","","","","","","NaN",""
"","S1","","html-keyboard-response","128","188715","0.0-1.0-173.0","0","0","62755","","null","","","null","19","","","","","","","","","","","","","","","",""
"","ISI","","html-keyboard-response","129","190717","0.0-1.0-174.0","0","0","62755","","null","","","null","19","NaN","","","","","","","","","","","","","","",""
"","S2","","html-keyboard-response","130","190970","0.0-1.0-175.0","0","0","62755","","null","","","null","19","","NaN","","","","","","","","","","","","","",""
"","response","","html-keyboard-response","131","191160","0.0-1.0-176.0-0.0","0","0","62755","","189","","","75","19","","","1","19","training","adjacent","GF","7","6","M.jpg","L.jpg","1","0","0","",""
"","feedback","","html-keyboard-response","132","192163","0.0-1.0-177.0-0.0","0","0","62755","","null","","","null","19","","","","","","","","","","","","","","","",""
"","time_out","","html-keyboard-response","133","194165","0.0-1.0-179.0-0.0","0","0","62755","","null","","","null","19","","","","","","","","","","","","","","","",""
"","ITI","","html-keyboard-response","134","195167","0.0-1.0-180.0","0","0","62755","","null","","","null","19","","","","","","","","","","","","","","","NaN",""
"","S1","","html-keyboard-response","135","195419","0.0-1.0-182.0","0","0","62755","","null","","","null","20","","","","","","","","","","","","","","","",""
"","ISI","","html-keyboard-response","136","197421","0.0-1.0-183.0","0","0","62755","","null","","","null","20","NaN","","","","","","","","","","","","","","",""
"","S2","","html-keyboard-response","137","197671","0.0-1.0-184.0","0","0","62755","","248","","","75","20","","k","1","20","training","adjacent","CB","3","2","R.jpg","N.jpg","1","0","0","",""
"","feedback","","html-keyboard-response","138","198673","0.0-1.0-186.0-0.0","0","0","62755","","null","","","null","20","","","","","","","","","","","","","","","",""
"","time_out","","html-keyboard-response","139","200676","0.0-1.0-188.0-0.0","0","0","62755","","null","","","null","20","","","","","","","","","","","","","","","",""
"","ITI","","html-keyboard-response","140","201678","0.0-1.0-189.0","0","0","62755","","null","","","null","20","","","","","","","","","","","","","","","NaN",""
"","S1","","html-keyboard-response","141","201931","0.0-1.0-191.0","0","0","62755","","null","","","null","21","","","","","","","","","","","","","","","",""
"","ISI","","html-keyboard-response","142","203941","0.0-1.0-192.0","0","0","62755","","null","","","null","21","NaN","","","","","","","","","","","","","","",""
"","S2","","html-keyboard-response","143","204183","0.0-1.0-193.0","0","0","62755","","240","","","68","21","","d","1","21","training","adjacent","ED","5","4","Q.jpg","P.jpg","0","0","1","",""
"","feedback","","html-keyboard-response","144","205185","0.0-1.0-195.0-0.0","0","0","62755","","null","","","null","21","","","","","","","","","","","","","","","",""
"","ITI","","html-keyboard-response","145","206187","0.0-1.0-198.0","0","0","62755","","null","","","null","21","","","","","","","","","","","","","","","NaN",""
"","S1","","html-keyboard-response","146","206439","0.0-1.0-200.0","0","0","62755","","null","","","null","22","","","","","","","","","","","","","","","",""
"","ISI","","html-keyboard-response","147","208441","0.0-1.0-201.0","0","0","62755","","null","","","null","22","NaN","","","","","","","","","","","","","","",""
"","S2","","html-keyboard-response","148","208693","0.0-1.0-202.0","0","0","62755","","null","","","null","22","","NaN","","","","","","","","","","","","","",""
"","response","","html-keyboard-response","149","209043","0.0-1.0-203.0-0.0","0","0","62755","","349","","","75","22","","","1","22","training","adjacent","DC","4","3","P.jpg","R.jpg","1","0","0","",""
"","feedback","","html-keyboard-response","150","210045","0.0-1.0-204.0-0.0","0","0","62755","","null","","","null","22","","","","","","","","","","","","","","","",""
"","time_out","","html-keyboard-response","151","212048","0.0-1.0-206.0-0.0","0","0","62755","","null","","","null","22","","","","","","","","","","","","","","","",""
"","ITI","","html-keyboard-response","152","213049","0.0-1.0-207.0","0","0","62755","","null","","","null","22","","","","","","","","","","","","","","","NaN",""
"","S1","","html-keyboard-response","153","213302","0.0-1.0-209.0","0","0","62755","","null","","","null","23","","","","","","","","","","","","","","","",""
"","ISI","","html-keyboard-response","154","215304","0.0-1.0-210.0","0","0","62755","","null","","","null","23","NaN","","","","","","","","","","","","","","",""
"","S2","","html-keyboard-response","155","215556","0.0-1.0-211.0","0","0","62755","","null","","","null","23","","NaN","","","","","","","","","","","","","",""
"","response","","html-keyboard-response","156","215618","0.0-1.0-212.0-0.0","0","0","62755","","61","","","75","23","","","1","23","training","adjacent","FG","6","7","L.jpg","M.jpg","1","1","1","",""
"","feedback","","html-keyboard-response","157","216620","0.0-1.0-213.0-0.0","0","0","62755","","null","","","null","23","","","","","","","","","","","","","","","",""
"","ITI","","html-keyboard-response","158","217622","0.0-1.0-216.0","0","0","62755","","null","","","null","23","","","","","","","","","","","","","","","NaN",""
"","S1","","html-keyboard-response","159","217874","0.0-1.0-218.0","0","0","62755","","null","","","null","24","","","","","","","","","","","","","","","",""
"","ISI","","html-keyboard-response","160","219875","0.0-1.0-219.0","0","0","62755","","null","","","null","24","NaN","","","","","","","","","","","","","","",""
"","S2","","html-keyboard-response","161","220128","0.0-1.0-220.0","0","0","62755","","null","","","null","24","","NaN","","","","","","","","","","","","","",""
"","response","","html-keyboard-response","162","220311","0.0-1.0-221.0-0.0","0","0","62755","","182","","","75","24","","","1","24","training","adjacent","DC","4","3","P.jpg","R.jpg","1","0","0","",""
"","feedback","","html-keyboard-response","163","221313","0.0-1.0-222.0-0.0","0","0","62755","","null","","","null","24","","","","","","","","","","","","","","","",""
"","time_out","","html-keyboard-response","164","223315","0.0-1.0-224.0-0.0","0","0","62755","","null","","","null","24","","","","","","","","","","","","","","","",""
"","ITI","","html-keyboard-response","165","224316","0.0-1.0-225.0","0","0","62755","","null","","","null","24","","","","","","","","","","","","","","","NaN",""
"","S1","","html-keyboard-response","166","224569","0.0-1.0-227.0","0","0","62755","","null","","","null","25","","","","","","","","","","","","","","","",""
"","ISI","","html-keyboard-response","167","226570","0.0-1.0-228.0","0","0","62755","","null","","","null","25","NaN","","","","","","","","","","","","","","",""
"","S2","","html-keyboard-response","168","226823","0.0-1.0-229.0","0","0","62755","","null","","","null","25","","NaN","","","","","","","","","","","","","",""
"","response","","html-keyboard-response","169","226869","0.0-1.0-230.0-0.0","0","0","62755","","43","","","68","25","","","1","25","training","adjacent","EF","5","6","Q.jpg","L.jpg","0","1","0","",""
"","feedback","","html-keyboard-response","170","227872","0.0-1.0-231.0-0.0","0","0","62755","","null","","","null","25","","","","","","","","","","","","","","","",""
"","time_out","","html-keyboard-response","171","229874","0.0-1.0-233.0-0.0","0","0","62755","","null","","","null","25","","","","","","","","","","","","","","","",""
"","ITI","","html-keyboard-response","172","230876","0.0-1.0-234.0","0","0","62755","","null","","","null","25","","","","","","","","","","","","","","","NaN",""
"","S1","","html-keyboard-response","173","231129","0.0-1.0-236.0","0","0","62755","","null","","","null","26","","","","","","","","","","","","","","","",""
"","ISI","","html-keyboard-response","174","233130","0.0-1.0-237.0","0","0","62755","","null","","","null","26","NaN","","","","","","","","","","","","","","",""
"","S2","","html-keyboard-response","175","233383","0.0-1.0-238.0","0","0","62755","","null","","","null","26","","NaN","","","","","","","","","","","","","",""
"","response","","html-keyboard-response","176","233386","0.0-1.0-239.0-0.0","0","0","62755","","3","","","75","26","","","1","26","training","adjacent","EF","5","6","Q.jpg","L.jpg","1","1","1","",""
"","feedback","","html-keyboard-response","177","234389","0.0-1.0-240.0-0.0","0","0","62755","","null","","","null","26","","","","","","","","","","","","","","","",""
"","ITI","","html-keyboard-response","178","235391","0.0-1.0-243.0","0","0","62755","","null","","","null","26","","","","","","","","","","","","","","","NaN",""
"","S1","","html-keyboard-response","179","235643","0.0-1.0-245.0","0","0","62755","","null","","","null","27","","","","","","","","","","","","","","","",""
"","ISI","","html-keyboard-response","180","237645","0.0-1.0-246.0","0","0","62755","","null","","","null","27","NaN","","","","","","","","","","","","","","",""
"","S2","","html-keyboard-response","181","237897","0.0-1.0-247.0","0","0","62755","","null","","","null","27","","NaN","","","","","","","","","","","","","",""
"","response","","html-keyboard-response","182","237969","0.0-1.0-248.0-0.0","0","0","62755","","70","","","68","27","","","1","27","training","adjacent","BC","2","3","N.jpg","R.jpg","0","1","0","",""
"","feedback","","html-keyboard-response","183","238972","0.0-1.0-249.0-0.0","0","0","62755","","null","","","null","27","","","","","","","","","","","","","","","",""
"","time_out","","html-keyboard-response","184","240974","0.0-1.0-251.0-0.0","0","0","62755","","null","","","null","27","","","","","","","","","","","","","","","",""
"","ITI","","html-keyboard-response","185","241991","0.0-1.0-252.0","0","0","62755","","null","","","null","27","","","","","","","","","","","","","","","NaN",""
"","S1","","html-keyboard-response","186","242243","0.0-1.0-254.0","0","0","62755","","null","","","null","28","","","","","","","","","","","","","","","",""
"","ISI","","html-keyboard-response","187","244245","0.0-1.0-255.0","0","0","62755","","null","","","null","28","NaN","","","","","","","","","","","","","","",""
"","S2","","html-keyboard-response","188","244497","0.0-1.0-256.0","0","0","62755","","null","","","null","28","","NaN","","","","","","","","","","","","","",""
"","response","","html-keyboard-response","189","244693","0.0-1.0-257.0-0.0","0","0","62755","","194","","","75","28","","","1","28","training","adjacent","AB","1","2","O.jpg","N.jpg","1","1","1","",""
"","feedback","","html-keyboard-response","190","245695","0.0-1.0-258.0-0.0","0","0","62755","","null","","","null","28","","","","","","","","","","","","","","","",""
"","ITI","","html-keyboard-response","191","246697","0.0-1.0-261.0","0","0","62755","","null","","","null","28","","","","","","","","","","","","","","","NaN",""
"","S1","","html-keyboard-response","192","246950","0.0-1.0-263.0","0","0","62755","","null","","","null","29","","","","","","","","","","","","","","","",""
"","ISI","","html-keyboard-response","193","248951","0.0-1.0-264.0","0","0","62755","","null","","","null","29","NaN","","","","","","","","","","","","","","",""
"","S2","","html-keyboard-response","194","249204","0.0-1.0-265.0","0","0","62755","","null","","","null","29","","NaN","","","","","","","","","","","","","",""
"","response","","html-keyboard-response","195","249226","0.0-1.0-266.0-0.0","0","0","62755","","20","","","68","29","","","1","29","training","adjacent","AB","1","2","O.jpg","N.jpg","0","1","0","",""
"","feedback","","html-keyboard-response","196","250228","0.0-1.0-267.0-0.0","0","0","62755","","null","","","null","29","","","","","","","","","","","","","","","",""
"","time_out","","html-keyboard-response","197","252230","0.0-1.0-269.0-0.0","0","0","62755","","null","","","null","29","","","","","","","","","","","","","","","",""
"","ITI","","html-keyboard-response","198","253233","0.0-1.0-270.0","0","0","62755","","null","","","null","29","","","","","","","","","","","","","","","NaN",""
"","S1","","html-keyboard-response","199","253485","0.0-1.0-272.0","0","0","62755","","null","","","null","30","","","","","","","","","","","","","","","",""
"","ISI","","html-keyboard-response","200","255486","0.0-1.0-273.0","0","0","62755","","null","","","null","30","NaN","","","","","","","","","","","","","","",""
"","S2","","html-keyboard-response","201","255738","0.0-1.0-274.0","0","0","62755","","null","","","null","30","","NaN","","","","","","","","","","","","","",""
"","response","","html-keyboard-response","202","255789","0.0-1.0-275.0-0.0","0","0","62755","","51","","","75","30","","","1","30","training","adjacent","BC","2","3","N.jpg","R.jpg","1","1","1","",""
"","feedback","","html-keyboard-response","203","256792","0.0-1.0-276.0-0.0","0","0","62755","","null","","","null","30","","","","","","","","","","","","","","","",""
"","ITI","","html-keyboard-response","204","257794","0.0-1.0-279.0","0","0","62755","","null","","","null","30","","","","","","","","","","","","","","","NaN",""
"","S1","","html-keyboard-response","205","258046","0.0-1.0-281.0","0","0","62755","","null","","","null","31","","","","","","","","","","","","","","","",""
"","ISI","","html-keyboard-response","206","260048","0.0-1.0-282.0","0","0","62755","","null","","","null","31","NaN","","","","","","","","","","","","","","",""
"","S2","","html-keyboard-response","207","260300","0.0-1.0-283.0","0","0","62755","","null","","","null","31","","NaN","","","","","","","","","","","","","",""
"","response","","html-keyboard-response","208","260362","0.0-1.0-284.0-0.0","0","0","62755","","60","","","68","31","","","1","31","training","adjacent","GF","7","6","M.jpg","L.jpg","0","0","1","",""
"","feedback","","html-keyboard-response","209","261364","0.0-1.0-285.0-0.0","0","0","62755","","null","","","null","31","","","","","","","","","","","","","","","",""
"","ITI","","html-keyboard-response","210","262366","0.0-1.0-288.0","0","0","62755","","null","","","null","31","","","","","","","","","","","","","","","NaN",""
"","S1","","html-keyboard-response","211","262618","0.0-1.0-290.0","0","0","62755","","null","","","null","32","","","","","","","","","","","","","","","",""
"","ISI","","html-keyboard-response","212","264621","0.0-1.0-291.0","0","0","62755","","null","","","null","32","NaN","","","","","","","","","","","","","","",""
"","S2","","html-keyboard-response","213","264872","0.0-1.0-292.0","0","0","62755","","null","","","null","32","","NaN","","","","","","","","","","","","","",""
"","response","","html-keyboard-response","214","264911","0.0-1.0-293.0-0.0","0","0","62755","","37","","","68","32","","","1","32","training","adjacent","DC","4","3","P.jpg","R.jpg","0","0","1","",""
"","feedback","","html-keyboard-response","215","265913","0.0-1.0-294.0-0.0","0","0","62755","","null","","","null","32","","","","","","","","","","","","","","","",""
"","ITI","","html-keyboard-response","216","266916","0.0-1.0-297.0","0","0","62755","","null","","","null","32","","","","","","","","","","","","","","","NaN",""
"","S1","","html-keyboard-response","217","267168","0.0-1.0-299.0","0","0","62755","","null","","","null","33","","","","","","","","","","","","","","","",""
"","ISI","","html-keyboard-response","218","269171","0.0-1.0-300.0","0","0","62755","","null","","","null","33","NaN","","","","","","","","","","","","","","",""
"","S2","","html-keyboard-response","219","269423","0.0-1.0-301.0","0","0","62755","","null","","","null","33","","NaN","","","","","","","","","","","","","",""
"","response","","html-keyboard-response","220","269514","0.0-1.0-302.0-0.0","0","0","62755","","90","","","68","33","","","1","33","training","adjacent","DE","4","5","P.jpg","Q.jpg","0","1","0","",""
"","feedback","","html-keyboard-response","221","270516","0.0-1.0-303.0-0.0","0","0","62755","","null","","","null","33","","","","","","","","","","","","","","","",""
"","time_out","","html-keyboard-response","222","272518","0.0-1.0-305.0-0.0","0","0","62755","","null","","","null","33","","","","","","","","","","","","","","","",""
"","ITI","","html-keyboard-response","223","273521","0.0-1.0-306.0","0","0","62755","","null","","","null","33","","","","","","","","","","","","","","","NaN",""
"","S1","","html-keyboard-response","224","273772","0.0-1.0-308.0","0","0","62755","","null","","","null","34","","","","","","","","","","","","","","","",""
"","ISI","","html-keyboard-response","225","275774","0.0-1.0-309.0","0","0","62755","","null","","","null","34","NaN","","","","","","","","","","","","","","",""
"","S2","","html-keyboard-response","226","276026","0.0-1.0-310.0","0","0","62755","","null","","","null","34","","NaN","","","","","","","","","","","","","",""
"","response","","html-keyboard-response","227","276435","0.0-1.0-311.0-0.0","0","0","62755","","407","","","75","34","","","1","34","training","adjacent","CB","3","2","R.jpg","N.jpg","1","0","0","",""
"","feedback","","html-keyboard-response","228","277450","0.0-1.0-312.0-0.0","0","0","62755","","null","","","null","34","","","","","","","","","","","","","","","",""
"","time_out","","html-keyboard-response","229","279451","0.0-1.0-314.0-0.0","0","0","62755","","null","","","null","34","","","","","","","","","","","","","","","",""
"","ITI","","html-keyboard-response","230","280452","0.0-1.0-315.0","0","0","62755","","null","","","null","34","","","","","","","","","","","","","","","NaN",""
"","S1","","html-keyboard-response","231","280705","0.0-1.0-317.0","0","0","62755","","null","","","null","35","","","","","","","","","","","","","","","",""
"","ISI","","html-keyboard-response","232","282707","0.0-1.0-318.0","0","0","62755","","null","","","null","35","NaN","","","","","","","","","","","","","","",""
"","S2","","html-keyboard-response","233","282960","0.0-1.0-319.0","0","0","62755","","null","","","null","35","","NaN","","","","","","","","","","","","","",""
"","response","","html-keyboard-response","234","283039","0.0-1.0-320.0-0.0","0","0","62755","","78","","","68","35","","","1","35","training","adjacent","FG","6","7","L.jpg","M.jpg","0","1","0","",""
"","feedback","","html-keyboard-response","235","284041","0.0-1.0-321.0-0.0","0","0","62755","","null","","","null","35","","","","","","","","","","","","","","","",""
"","time_out","","html-keyboard-response","236","286043","0.0-1.0-323.0-0.0","0","0","62755","","null","","","null","35","","","","","","","","","","","","","","","",""
"","ITI","","html-keyboard-response","237","287045","0.0-1.0-324.0","0","0","62755","","null","","","null","35","","","","","","","","","","","","","","","NaN",""
"","S1","","html-keyboard-response","238","287297","0.0-1.0-326.0","0","0","62755","","null","","","null","36","","","","","","","","","","","","","","","",""
"","ISI","","html-keyboard-response","239","289299","0.0-1.0-327.0","0","0","62755","","null","","","null","36","NaN","","","","","","","","","","","","","","",""
"","S2","","html-keyboard-response","240","289552","0.0-1.0-328.0","0","0","62755","","null","","","null","36","","NaN","","","","","","","","","","","","","",""
"","response","","html-keyboard-response","241","289737","0.0-1.0-329.0-0.0","0","0","62755","","185","","","75","36","","","1","36","training","adjacent","FE","6","5","L.jpg","Q.jpg","1","0","0","",""
"","feedback","","html-keyboard-response","242","290740","0.0-1.0-330.0-0.0","0","0","62755","","null","","","null","36","","","","","","","","","","","","","","","",""
"","time_out","","html-keyboard-response","243","292743","0.0-1.0-332.0-0.0","0","0","62755","","null","","","null","36","","","","","","","","","","","","","","","",""
"","ITI","","html-keyboard-response","244","293745","0.0-1.0-333.0","0","0","62755","","null","","","null","36","","","","","","","","","","","","","","","NaN",""
"","S1","","html-keyboard-response","245","293997","0.0-1.0-335.0","0","0","62755","","null","","","null","37","","","","","","","","","","","","","","","",""
"","ISI","","html-keyboard-response","246","295999","0.0-1.0-336.0","0","0","62755","","null","","","null","37","NaN","","","","","","","","","","","","","","",""
"","S2","","html-keyboard-response","247","296252","0.0-1.0-337.0","0","0","62755","","null","","","null","37","","NaN","","","","","","","","","","","","","",""
"","response","","html-keyboard-response","248","296281","0.0-1.0-338.0-0.0","0","0","62755","","28","","","68","37","","","1","37","training","adjacent","FG","6","7","L.jpg","M.jpg","0","1","0","",""
"","feedback","","html-keyboard-response","249","297284","0.0-1.0-339.0-0.0","0","0","62755","","null","","","null","37","","","","","","","","","","","","","","","",""
"","time_out","","html-keyboard-response","250","299286","0.0-1.0-341.0-0.0","0","0","62755","","null","","","null","37","","","","","","","","","","","","","","","",""
"","ITI","","html-keyboard-response","251","300289","0.0-1.0-342.0","0","0","62755","","null","","","null","37","","","","","","","","","","","","","","","NaN",""
"","S1","","html-keyboard-response","252","300541","0.0-1.0-344.0","0","0","62755","","null","","","null","38","","","","","","","","","","","","","","","",""
"","ISI","","html-keyboard-response","253","302543","0.0-1.0-345.0","0","0","62755","","null","","","null","38","NaN","","","","","","","","","","","","","","",""
"","S2","","html-keyboard-response","254","302795","0.0-1.0-346.0","0","0","62755","","null","","","null","38","","NaN","","","","","","","","","","","","","",""
"","response","","html-keyboard-response","255","302866","0.0-1.0-347.0-0.0","0","0","62755","","70","","","75","38","","","1","38","training","adjacent","FE","6","5","L.jpg","Q.jpg","1","0","0","",""
"","feedback","","html-keyboard-response","256","303868","0.0-1.0-348.0-0.0","0","0","62755","","null","","","null","38","","","","","","","","","","","","","","","",""
"","time_out","","html-keyboard-response","257","305870","0.0-1.0-350.0-0.0","0","0","62755","","null","","","null","38","","","","","","","","","","","","","","","",""
"","ITI","","html-keyboard-response","258","306871","0.0-1.0-351.0","0","0","62755","","null","","","null","38","","","","","","","","","","","","","","","NaN",""
"","S1","","html-keyboard-response","259","307123","0.0-1.0-353.0","0","0","62755","","null","","","null","39","","","","","","","","","","","","","","","",""
"","ISI","","html-keyboard-response","260","309126","0.0-1.0-354.0","0","0","62755","","null","","","null","39","NaN","","","","","","","","","","","","","","",""
"","S2","","html-keyboard-response","261","309378","0.0-1.0-355.0","0","0","62755","","null","","","null","39","","NaN","","","","","","","","","","","","","",""
"","response","","html-keyboard-response","262","309475","0.0-1.0-356.0-0.0","0","0","62755","","96","","","68","39","","","1","39","training","adjacent","DC","4","3","P.jpg","R.jpg","0","0","1","",""
"","feedback","","html-keyboard-response","263","310490","0.0-1.0-357.0-0.0","0","0","62755","","null","","","null","39","","","","","","","","","","","","","","","",""
"","ITI","","html-keyboard-response","264","311492","0.0-1.0-360.0","0","0","62755","","null","","","null","39","","","","","","","","","","","","","","","NaN",""
"","S1","","html-keyboard-response","265","311745","0.0-1.0-362.0","0","0","62755","","null","","","null","40","","","","","","","","","","","","","","","",""
"","ISI","","html-keyboard-response","266","313747","0.0-1.0-363.0","0","0","62755","","null","","","null","40","NaN","","","","","","","","","","","","","","",""
"","S2","","html-keyboard-response","267","314000","0.0-1.0-364.0","0","0","62755","","null","","","null","40","","NaN","","","","","","","","","","","","","",""
"","response","","html-keyboard-response","268","314181","0.0-1.0-365.0-0.0","0","0","62755","","181","","","68","40","","","1","40","training","adjacent","AB","1","2","O.jpg","N.jpg","0","1","0","",""
"","feedback","","html-keyboard-response","269","315184","0.0-1.0-366.0-0.0","0","0","62755","","null","","","null","40","","","","","","","","","","","","","","","",""
"","time_out","","html-keyboard-response","270","317186","0.0-1.0-368.0-0.0","0","0","62755","","null","","","null","40","","","","","","","","","","","","","","","",""
"","ITI","","html-keyboard-response","271","318187","0.0-1.0-369.0","0","0","62755","","null","","","null","40","","","","","","","","","","","","","","","NaN",""
"","S1","","html-keyboard-response","272","318440","0.0-1.0-371.0","0","0","62755","","null","","","null","41","","","","","","","","","","","","","","","",""
"","ISI","","html-keyboard-response","273","320443","0.0-1.0-372.0","0","0","62755","","null","","","null","41","NaN","","","","","","","","","","","","","","",""
"","S2","","html-keyboard-response","274","320695","0.0-1.0-373.0","0","0","62755","","null","","","null","41","","NaN","","","","","","","","","","","","","",""
"","response","","html-keyboard-response","275","320754","0.0-1.0-374.0-0.0","0","0","62755","","59","","","75","41","","","1","41","training","adjacent","FE","6","5","L.jpg","Q.jpg","1","0","0","",""
"","feedback","","html-keyboard-response","276","321757","0.0-1.0-375.0-0.0","0","0","62755","","null","","","null","41","","","","","","","","","","","","","","","",""
"","time_out","","html-keyboard-response","277","323759","0.0-1.0-377.0-0.0","0","0","62755","","null","","","null","41","","","","","","","","","","","","","","","",""
"","ITI","","html-keyboard-response","278","324761","0.0-1.0-378.0","0","0","62755","","null","","","null","41","","","","","","","","","","","","","","","NaN",""
"","S1","","html-keyboard-response","279","325013","0.0-1.0-380.0","0","0","62755","","null","","","null","42","","","","","","","","","","","","","","","",""
"","ISI","","html-keyboard-response","280","327027","0.0-1.0-381.0","0","0","62755","","null","","","null","42","NaN","","","","","","","","","","","","","","",""
"","S2","","html-keyboard-response","281","327279","0.0-1.0-382.0","0","0","62755","","null","","","null","42","","NaN","","","","","","","","","","","","","",""
"","response","","html-keyboard-response","282","327371","0.0-1.0-383.0-0.0","0","0","62755","","91","","","68","42","","","1","42","training","adjacent","BC","2","3","N.jpg","R.jpg","0","1","0","",""
"","feedback","","html-keyboard-response","283","328374","0.0-1.0-384.0-0.0","0","0","62755","","null","","","null","42","","","","","","","","","","","","","","","",""
"","time_out","","html-keyboard-response","284","330376","0.0-1.0-386.0-0.0","0","0","62755","","null","","","null","42","","","","","","","","","","","","","","","",""
"","ITI","","html-keyboard-response","285","331378","0.0-1.0-387.0","0","0","62755","","null","","","null","42","","","","","","","","","","","","","","","NaN",""
"","S1","","html-keyboard-response","286","331630","0.0-1.0-389.0","0","0","62755","","null","","","null","43","","","","","","","","","","","","","","","",""
"","ISI","","html-keyboard-response","287","333632","0.0-1.0-390.0","0","0","62755","","null","","","null","43","NaN","","","","","","","","","","","","","","",""
"","S2","","html-keyboard-response","288","333884","0.0-1.0-391.0","0","0","62755","","null","","","null","43","","NaN","","","","","","","","","","","","","",""
"","response","","html-keyboard-response","289","334131","0.0-1.0-392.0-0.0","0","0","62755","","246","","","75","43","","","1","43","training","adjacent","ED","5","4","Q.jpg","P.jpg","1","0","0","",""
"","feedback","","html-keyboard-response","290","335133","0.0-1.0-393.0-0.0","0","0","62755","","null","","","null","43","","","","","","","","","","","","","","","",""
"","time_out","","html-keyboard-response","291","337135","0.0-1.0-395.0-0.0","0","0","62755","","null","","","null","43","","","","","","","","","","","","","","","",""
"","ITI","","html-keyboard-response","292","338137","0.0-1.0-396.0","0","0","62755","","null","","","null","43","","","","","","","","","","","","","","","NaN",""
"","S1","","html-keyboard-response","293","338389","0.0-1.0-398.0","0","0","62755","","null","","","null","44","","","","","","","","","","","","","","","",""
"","ISI","","html-keyboard-response","294","340391","0.0-1.0-399.0","0","0","62755","","null","","","null","44","NaN","","","","","","","","","","","","","","",""
"","S2","","html-keyboard-response","295","340644","0.0-1.0-400.0","0","0","62755","","null","","","null","44","","NaN","","","","","","","","","","","","","",""
"","response","","html-keyboard-response","296","340910","0.0-1.0-401.0-0.0","0","0","62755","","265","","","68","44","","","1","44","training","adjacent","DE","4","5","P.jpg","Q.jpg","0","1","0","",""
"","feedback","","html-keyboard-response","297","341911","0.0-1.0-402.0-0.0","0","0","62755","","null","","","null","44","","","","","","","","","","","","","","","",""
"","time_out","","html-keyboard-response","298","343913","0.0-1.0-404.0-0.0","0","0","62755","","null","","","null","44","","","","","","","","","","","","","","","",""
"","ITI","","html-keyboard-response","299","344914","0.0-1.0-405.0","0","0","62755","","null","","","null","44","","","","","","","","","","","","","","","NaN",""
"","S1","","html-keyboard-response","300","345173","0.0-1.0-407.0","0","0","62755","","null","","","null","45","","","","","","","","","","","","","","","",""
"","ISI","","html-keyboard-response","301","347174","0.0-1.0-408.0","0","0","62755","","null","","","null","45","NaN","","","","","","","","","","","","","","",""
"","S2","","html-keyboard-response","302","347429","0.0-1.0-409.0","0","0","62755","","null","","","null","45","","NaN","","","","","","","","","","","","","",""
"","response","","html-keyboard-response","303","347505","0.0-1.0-410.0-0.0","0","0","62755","","75","","","75","45","","","1","45","training","adjacent","GF","7","6","M.jpg","L.jpg","1","0","0","",""
"","feedback","","html-keyboard-response","304","348520","0.0-1.0-411.0-0.0","0","0","62755","","null","","","null","45","","","","","","","","","","","","","","","",""
"","time_out","","html-keyboard-response","305","350522","0.0-1.0-413.0-0.0","0","0","62755","","null","","","null","45","","","","","","","","","","","","","","","",""
"","ITI","","html-keyboard-response","306","351524","0.0-1.0-414.0","0","0","62755","","null","","","null","45","","","","","","","","","","","","","","","NaN",""
"","S1","","html-keyboard-response","307","351775","0.0-1.0-416.0","0","0","62755","","null","","","null","46","","","","","","","","","","","","","","","",""
"","ISI","","html-keyboard-response","308","353778","0.0-1.0-417.0","0","0","62755","","null","","","null","46","NaN","","","","","","","","","","","","","","",""
"","S2","","html-keyboard-response","309","354029","0.0-1.0-418.0","0","0","62755","","null","","","null","46","","NaN","","","","","","","","","","","","","",""
"","response","","html-keyboard-response","310","354063","0.0-1.0-419.0-0.0","0","0","62755","","33","","","75","46","","","1","46","training","adjacent","ED","5","4","Q.jpg","P.jpg","1","0","0","",""
"","feedback","","html-keyboard-response","311","355066","0.0-1.0-420.0-0.0","0","0","62755","","null","","","null","46","","","","","","","","","","","","","","","",""
"","time_out","","html-keyboard-response","312","357068","0.0-1.0-422.0-0.0","0","0","62755","","null","","","null","46","","","","","","","","","","","","","","","",""
"","ITI","","html-keyboard-response","313","358075","0.0-1.0-423.0","0","0","62755","","null","","","null","46","","","","","","","","","","","","","","","NaN",""
"","S1","","html-keyboard-response","314","358327","0.0-1.0-425.0","0","0","62755","","null","","","null","47","","","","","","","","","","","","","","","",""
"","ISI","","html-keyboard-response","315","360330","0.0-1.0-426.0","0","0","62755","","null","","","null","47","NaN","","","","","","","","","","","","","","",""
"","S2","","html-keyboard-response","316","360582","0.0-1.0-427.0","0","0","62755","","null","","","null","47","","NaN","","","","","","","","","","","","","",""
"","response","","html-keyboard-response","317","360833","0.0-1.0-428.0-0.0","0","0","62755","","251","","","68","47","","","1","47","training","adjacent","CB","3","2","R.jpg","N.jpg","0","0","1","",""
"","feedback","","html-keyboard-response","318","361835","0.0-1.0-429.0-0.0","0","0","62755","","null","","","null","47","","","","","","","","","","","","","","","",""
"","ITI","","html-keyboard-response","319","362837","0.0-1.0-432.0","0","0","62755","","null","","","null","47","","","","","","","","","","","","","","","NaN",""
"","block_over","","html-keyboard-response","320","370204","0.0-1.0-433.0-0.0","0","0","62755","","7365","","","32","47","","","","","","","","","","","","","","","",""
"","S1","","html-keyboard-response","321","370455","0.0-1.0-434.0","0","0","62755","","null","","","null","48","","","","","","","","","","","","","","","",""
"","ISI","","html-keyboard-response","322","372457","0.0-1.0-435.0","0","0","62755","","null","","","null","48","NaN","","","","","","","","","","","","","","",""
"","S2","","html-keyboard-response","323","372708","0.0-1.0-436.0","0","0","62755","","null","","","null","48","","NaN","","","","","","","","","","","","","",""
"","response","","html-keyboard-response","324","372880","0.0-1.0-437.0-0.0","0","0","62755","","170","","","68","48","","","2","48","training","adjacent","EF","5","6","Q.jpg","L.jpg","0","1","0","",""
"","feedback","","html-keyboard-response","325","373881","0.0-1.0-438.0-0.0","0","0","62755","","null","","","null","48","","","","","","","","","","","","","","","",""
"","time_out","","html-keyboard-response","326","375883","0.0-1.0-440.0-0.0","0","0","62755","","null","","","null","48","","","","","","","","","","","","","","","",""
"","ITI","","html-keyboard-response","327","376884","0.0-1.0-441.0","0","0","62755","","null","","","null","48","","","","","","","","","","","","","","","NaN",""
"","S1","","html-keyboard-response","328","377136","0.0-1.0-443.0","0","0","62755","","null","","","null","49","","","","","","","","","","","","","","","",""
"","ISI","","html-keyboard-response","329","379138","0.0-1.0-444.0","0","0","62755","","null","","","null","49","NaN","","","","","","","","","","","","","","",""
"","S2","","html-keyboard-response","330","379392","0.0-1.0-445.0","0","0","62755","","null","","","null","49","","NaN","","","","","","","","","","","","","",""
"","response","","html-keyboard-response","331","379450","0.0-1.0-446.0-0.0","0","0","62755","","58","","","68","49","","","2","49","training","adjacent","FG","6","7","L.jpg","M.jpg","0","1","0","",""
"","feedback","","html-keyboard-response","332","380453","0.0-1.0-447.0-0.0","0","0","62755","","null","","","null","49","","","","","","","","","","","","","","","",""
"","time_out","","html-keyboard-response","333","382455","0.0-1.0-449.0-0.0","0","0","62755","","null","","","null","49","","","","","","","","","","","","","","","",""
"","ITI","","html-keyboard-response","334","383458","0.0-1.0-450.0","0","0","62755","","null","","","null","49","","","","","","","","","","","","","","","NaN",""
"","S1","","html-keyboard-response","335","383709","0.0-1.0-452.0","0","0","62755","","null","","","null","50","","","","","","","","","","","","","","","",""
"","ISI","","html-keyboard-response","336","385711","0.0-1.0-453.0","0","0","62755","","null","","","null","50","NaN","","","","","","","","","","","","","","",""
"","S2","","html-keyboard-response","337","385962","0.0-1.0-454.0","0","0","62755","","null","","","null","50","","NaN","","","","","","","","","","","","","",""
"","response","","html-keyboard-response","338","386008","0.0-1.0-455.0-0.0","0","0","62755","","45","","","75","50","","","2","50","training","adjacent","GF","7","6","M.jpg","L.jpg","1","0","0","",""
"","feedback","","html-keyboard-response","339","387010","0.0-1.0-456.0-0.0","0","0","62755","","null","","","null","50","","","","","","","","","","","","","","","",""
"","time_out","","html-keyboard-response","340","389012","0.0-1.0-458.0-0.0","0","0","62755","","null","","","null","50","","","","","","","","","","","","","","","",""
"","ITI","","html-keyboard-response","341","390014","0.0-1.0-459.0","0","0","62755","","null","","","null","50","","","","","","","","","","","","","","","NaN",""
"","S1","","html-keyboard-response","342","390266","0.0-1.0-461.0","0","0","62755","","null","","","null","51","","","","","","","","","","","","","","","",""
"","ISI","","html-keyboard-response","343","392269","0.0-1.0-462.0","0","0","62755","","85","","","75","51","k","","","","","","","","","","","","","","",""
"","S2","","html-keyboard-response","344","392520","0.0-1.0-463.0","0","0","62755","","null","","","null","51","","NaN","","","","","","","","","","","","","",""
"","response","","html-keyboard-response","345","392631","0.0-1.0-464.0-0.0","0","0","62755","","109","","","75","51","","","2","51","training","adjacent","EF","5","6","Q.jpg","L.jpg","1","1","1","",""
"","feedback","","html-keyboard-response","346","393633","0.0-1.0-465.0-0.0","0","0","62755","","null","","","null","51","","","","","","","","","","","","","","","",""
"","ITI","","html-keyboard-response","347","394635","0.0-1.0-468.0","0","0","62755","","null","","","null","51","","","","","","","","","","","","","","","NaN",""
"","S1","","html-keyboard-response","348","394887","0.0-1.0-470.0","0","0","62755","","null","","","null","52","","","","","","","","","","","","","","","",""
"","ISI","","html-keyboard-response","349","396889","0.0-1.0-471.0","0","0","62755","","null","","","null","52","NaN","","","","","","","","","","","","","","",""
"","S2","","html-keyboard-response","350","397140","0.0-1.0-472.0","0","0","62755","","null","","","null","52","","NaN","","","","","","","","","","","","","",""
"","response","","html-keyboard-response","351","397388","0.0-1.0-473.0-0.0","0","0","62755","","247","","","68","52","","","2","52","training","adjacent","CB","3","2","R.jpg","N.jpg","0","0","1","",""
"","feedback","","html-keyboard-response","352","398391","0.0-1.0-474.0-0.0","0","0","62755","","null","","","null","52","","","","","","","","","","","","","","","",""
"","ITI","","html-keyboard-response","353","399393","0.0-1.0-477.0","0","0","62755","","null","","","null","52","","","","","","","","","","","","","","","NaN",""
"","S1","","html-keyboard-response","354","399645","0.0-1.0-479.0","0","0","62755","","null","","","null","53","","","","","","","","","","","","","","","",""
"","ISI","","html-keyboard-response","355","401648","0.0-1.0-480.0","0","0","62755","","null","","","null","53","NaN","","","","","","","","","","","","","","",""
"","S2","","html-keyboard-response","356","401900","0.0-1.0-481.0","0","0","62755","","null","","","null","53","","NaN","","","","","","","","","","","","","",""
"","response","","html-keyboard-response","357","401983","0.0-1.0-482.0-0.0","0","0","62755","","82","","","68","53","","","2","53","training","adjacent","FE","6","5","L.jpg","Q.jpg","0","0","1","",""
"","feedback","","html-keyboard-response","358","402985","0.0-1.0-483.0-0.0","0","0","62755","","null","","","null","53","","","","","","","","","","","","","","","",""
"","ITI","","html-keyboard-response","359","403987","0.0-1.0-486.0","0","0","62755","","null","","","null","53","","","","","","","","","","","","","","","NaN",""
"","S1","","html-keyboard-response","360","404239","0.0-1.0-488.0","0","0","62755","","null","","","null","54","","","","","","","","","","","","","","","",""
"","ISI","","html-keyboard-response","361","406241","0.0-1.0-489.0","0","0","62755","","null","","","null","54","NaN","","","","","","","","","","","","","","",""
"","S2","","html-keyboard-response","362","406493","0.0-1.0-490.0","0","0","62755","","null","","","null","54","","NaN","","","","","","","","","","","","","",""
"","response","","html-keyboard-response","363","406547","0.0-1.0-491.0-0.0","0","0","62755","","53","","","68","54","","","2","54","training","adjacent","EF","5","6","Q.jpg","L.jpg","0","1","0","",""
"","feedback","","html-keyboard-response","364","407550","0.0-1.0-492.0-0.0","0","0","62755","","null","","","null","54","","","","","","","","","","","","","","","",""
"","time_out","","html-keyboard-response","365","409552","0.0-1.0-494.0-0.0","0","0","62755","","null","","","null","54","","","","","","","","","","","","","","","",""
"","ITI","","html-keyboard-response","366","410554","0.0-1.0-495.0","0","0","62755","","null","","","null","54","","","","","","","","","","","","","","","NaN",""
"","S1","","html-keyboard-response","367","410812","0.0-1.0-497.0","0","0","62755","","null","","","null","55","","","","","","","","","","","","","","","",""
"","ISI","","html-keyboard-response","368","412815","0.0-1.0-498.0","0","0","62755","","null","","","null","55","NaN","","","","","","","","","","","","","","",""
"","S2","","html-keyboard-response","369","413067","0.0-1.0-499.0","0","0","62755","","null","","","null","55","","NaN","","","","","","","","","","","","","",""
"","response","","html-keyboard-response","370","413091","0.0-1.0-500.0-0.0","0","0","62755","","24","","","68","55","","","2","55","training","adjacent","BC","2","3","N.jpg","R.jpg","0","1","0","",""
"","feedback","","html-keyboard-response","371","414093","0.0-1.0-501.0-0.0","0","0","62755","","null","","","null","55","","","","","","","","","","","","","","","",""
"","time_out","","html-keyboard-response","372","416095","0.0-1.0-503.0-0.0","0","0","62755","","null","","","null","55","","","","","","","","","","","","","","","",""
"","ITI","","html-keyboard-response","373","417097","0.0-1.0-504.0","0","0","62755","","null","","","null","55","","","","","","","","","","","","","","","NaN",""
"","S1","","html-keyboard-response","374","417350","0.0-1.0-506.0","0","0","62755","","null","","","null","56","","","","","","","","","","","","","","","",""
"","ISI","","html-keyboard-response","375","419352","0.0-1.0-507.0","0","0","62755","","null","","","null","56","NaN","","","","","","","","","","","","","","",""
"","S2","","html-keyboard-response","376","419605","0.0-1.0-508.0","0","0","62755","","null","","","null","56","","NaN","","","","","","","","","","","","","",""
"","response","","html-keyboard-response","377","419708","0.0-1.0-509.0-0.0","0","0","62755","","102","","","75","56","","","2","56","training","adjacent","FE","6","5","L.jpg","Q.jpg","1","0","0","",""
"","feedback","","html-keyboard-response","378","420711","0.0-1.0-510.0-0.0","0","0","62755","","null","","","null","56","","","","","","","","","","","","","","","",""
"","time_out","","html-keyboard-response","379","422713","0.0-1.0-512.0-0.0","0","0","62755","","null","","","null","56","","","","","","","","","","","","","","","",""
"","ITI","","html-keyboard-response","380","423715","0.0-1.0-513.0","0","0","62755","","null","","","null","56","","","","","","","","","","","","","","","NaN",""
"","S1","","html-keyboard-response","381","423966","0.0-1.0-515.0","0","0","62755","","null","","","null","57","","","","","","","","","","","","","","","",""
"","ISI","","html-keyboard-response","382","425968","0.0-1.0-516.0","0","0","62755","","168","","","68","57","d","","","","","","","","","","","","","","",""
"","S2","","html-keyboard-response","383","426220","0.0-1.0-517.0","0","0","62755","","null","","","null","57","","NaN","","","","","","","","","","","","","",""
"","response","","html-keyboard-response","384","426377","0.0-1.0-518.0-0.0","0","0","62755","","156","","","68","57","","","2","57","training","adjacent","DC","4","3","P.jpg","R.jpg","0","0","1","",""
"","feedback","","html-keyboard-response","385","427380","0.0-1.0-519.0-0.0","0","0","62755","","null","","","null","57","","","","","","","","","","","","","","","",""
"","ITI","","html-keyboard-response","386","428382","0.0-1.0-522.0","0","0","62755","","null","","","null","57","","","","","","","","","","","","","","","NaN",""
"","S1","","html-keyboard-response","387","428634","0.0-1.0-524.0","0","0","62755","","null","","","null","58","","","","","","","","","","","","","","","",""
"","ISI","","html-keyboard-response","388","430637","0.0-1.0-525.0","0","0","62755","","null","","","null","58","NaN","","","","","","","","","","","","","","",""
"","S2","","html-keyboard-response","389","430889","0.0-1.0-526.0","0","0","62755","","null","","","null","58","","NaN","","","","","","","","","","","","","",""
"","response","","html-keyboard-response","390","431131","0.0-1.0-527.0-0.0","0","0","62755","","241","","","68","58","","","2","58","training","adjacent","GF","7","6","M.jpg","L.jpg","0","0","1","",""
"","feedback","","html-keyboard-response","391","432134","0.0-1.0-528.0-0.0","0","0","62755","","null","","","null","58","","","","","","","","","","","","","","","",""
"","ITI","","html-keyboard-response","392","433136","0.0-1.0-531.0","0","0","62755","","null","","","null","58","","","","","","","","","","","","","","","NaN",""
"","S1","","html-keyboard-response","393","433388","0.0-1.0-533.0","0","0","62755","","null","","","null","59","","","","","","","","","","","","","","","",""
"","ISI","","html-keyboard-response","394","435390","0.0-1.0-534.0","0","0","62755","","null","","","null","59","NaN","","","","","","","","","","","","","","",""
"","S2","","html-keyboard-response","395","435642","0.0-1.0-535.0","0","0","62755","","null","","","null","59","","NaN","","","","","","","","","","","","","",""
"","response","","html-keyboard-response","396","435872","0.0-1.0-536.0-0.0","0","0","62755","","228","","","75","59","","","2","59","training","adjacent","FE","6","5","L.jpg","Q.jpg","1","0","0","",""
"","feedback","","html-keyboard-response","397","436875","0.0-1.0-537.0-0.0","0","0","62755","","null","","","null","59","","","","","","","","","","","","","","","",""
"","time_out","","html-keyboard-response","398","438877","0.0-1.0-539.0-0.0","0","0","62755","","null","","","null","59","","","","","","","","","","","","","","","",""
"","ITI","","html-keyboard-response","399","439879","0.0-1.0-540.0","0","0","62755","","null","","","null","59","","","","","","","","","","","","","","","NaN",""
"","S1","","html-keyboard-response","400","440131","0.0-1.0-542.0","0","0","62755","","null","","","null","60","","","","","","","","","","","","","","","",""
"","ISI","","html-keyboard-response","401","442133","0.0-1.0-543.0","0","0","62755","","128","","","68","60","d","","","","","","","","","","","","","","",""
"","S2","","html-keyboard-response","402","442386","0.0-1.0-544.0","0","0","62755","","null","","","null","60","","NaN","","","","","","","","","","","","","",""
"","response","","html-keyboard-response","403","442656","0.0-1.0-545.0-0.0","0","0","62755","","269","","","68","60","","","2","60","training","adjacent","BA","2","1","N.jpg","O.jpg","0","0","1","",""
"","feedback","","html-keyboard-response","404","443658","0.0-1.0-546.0-0.0","0","0","62755","","null","","","null","60","","","","","","","","","","","","","","","",""
"","ITI","","html-keyboard-response","405","444660","0.0-1.0-549.0","0","0","62755","","null","","","null","60","","","","","","","","","","","","","","","NaN",""
"","S1","","html-keyboard-response","406","444912","0.0-1.0-551.0","0","0","62755","","null","","","null","61","","","","","","","","","","","","","","","",""
"","ISI","","html-keyboard-response","407","446921","0.0-1.0-552.0","0","0","62755","","null","","","null","61","NaN","","","","","","","","","","","","","","",""
"","S2","","html-keyboard-response","408","447173","0.0-1.0-553.0","0","0","62755","","null","","","null","61","","NaN","","","","","","","","","","","","","",""
"","response","","html-keyboard-response","409","447294","0.0-1.0-554.0-0.0","0","0","62755","","120","","","75","61","","","2","61","training","adjacent","BC","2","3","N.jpg","R.jpg","1","1","1","",""
"","feedback","","html-keyboard-response","410","448297","0.0-1.0-555.0-0.0","0","0","62755","","null","","","null","61","","","","","","","","","","","","","","","",""
"","ITI","","html-keyboard-response","411","449299","0.0-1.0-558.0","0","0","62755","","null","","","null","61","","","","","","","","","","","","","","","NaN",""
"","S1","","html-keyboard-response","412","449551","0.0-1.0-560.0","0","0","62755","","null","","","null","62","","","","","","","","","","","","","","","",""
"","ISI","","html-keyboard-response","413","451553","0.0-1.0-561.0","0","0","62755","","null","","","null","62","NaN","","","","","","","","","","","","","","",""
"","S2","","html-keyboard-response","414","451806","0.0-1.0-562.0","0","0","62755","","null","","","null","62","","NaN","","","","","","","","","","","","","",""
"","response","","html-keyboard-response","415","451896","0.0-1.0-563.0-0.0","0","0","62755","","89","","","68","62","","","2","62","training","adjacent","FG","6","7","L.jpg","M.jpg","0","1","0","",""
"","feedback","","html-keyboard-response","416","452899","0.0-1.0-564.0-0.0","0","0","62755","","null","","","null","62","","","","","","","","","","","","","","","",""
"","time_out","","html-keyboard-response","417","454900","0.0-1.0-566.0-0.0","0","0","62755","","null","","","null","62","","","","","","","","","","","","","","","",""
"","ITI","","html-keyboard-response","418","455903","0.0-1.0-567.0","0","0","62755","","null","","","null","62","","","","","","","","","","","","","","","NaN",""
"","S1","","html-keyboard-response","419","456156","0.0-1.0-569.0","0","0","62755","","null","","","null","63","","","","","","","","","","","","","","","",""
"","ISI","","html-keyboard-response","420","458157","0.0-1.0-570.0","0","0","62755","","null","","","null","63","NaN","","","","","","","","","","","","","","",""
"","S2","","html-keyboard-response","421","458410","0.0-1.0-571.0","0","0","62755","","null","","","null","63","","NaN","","","","","","","","","","","","","",""
"","response","","html-keyboard-response","422","458467","0.0-1.0-572.0-0.0","0","0","62755","","56","","","75","63","","","2","63","training","adjacent","DE","4","5","P.jpg","Q.jpg","1","1","1","",""
"","feedback","","html-keyboard-response","423","459471","0.0-1.0-573.0-0.0","0","0","62755","","null","","","null","63","","","","","","","","","","","","","","","",""
"","ITI","","html-keyboard-response","424","460472","0.0-1.0-576.0","0","0","62755","","null","","","null","63","","","","","","","","","","","","","","","NaN",""
"","S1","","html-keyboard-response","425","460724","0.0-1.0-578.0","0","0","62755","","null","","","null","64","","","","","","","","","","","","","","","",""
"","ISI","","html-keyboard-response","426","462726","0.0-1.0-579.0","0","0","62755","","null","","","null","64","NaN","","","","","","","","","","","","","","",""
"","S2","","html-keyboard-response","427","462978","0.0-1.0-580.0","0","0","62755","","null","","","null","64","","NaN","","","","","","","","","","","","","",""
"","response","","html-keyboard-response","428","463100","0.0-1.0-581.0-0.0","0","0","62755","","120","","","75","64","","","2","64","training","adjacent","CB","3","2","R.jpg","N.jpg","1","0","0","",""
"","feedback","","html-keyboard-response","429","464104","0.0-1.0-582.0-0.0","0","0","62755","","null","","","null","64","","","","","","","","","","","","","","","",""
"","time_out","","html-keyboard-response","430","466112","0.0-1.0-584.0-0.0","0","0","62755","","null","","","null","64","","","","","","","","","","","","","","","",""
"","ITI","","html-keyboard-response","431","467115","0.0-1.0-585.0","0","0","62755","","null","","","null","64","","","","","","","","","","","","","","","NaN",""
"","S1","","html-keyboard-response","432","467372","0.0-1.0-587.0","0","0","62755","","null","","","null","65","","","","","","","","","","","","","","","",""
"","ISI","","html-keyboard-response","433","469375","0.0-1.0-588.0","0","0","62755","","null","","","null","65","NaN","","","","","","","","","","","","","","",""
"","S2","","html-keyboard-response","434","469627","0.0-1.0-589.0","0","0","62755","","null","","","null","65","","NaN","","","","","","","","","","","","","",""
"","response","","html-keyboard-response","435","469690","0.0-1.0-590.0-0.0","0","0","62755","","62","","","68","65","","","2","65","training","adjacent","CD","3","4","R.jpg","P.jpg","0","1","0","",""
"","feedback","","html-keyboard-response","436","470692","0.0-1.0-591.0-0.0","0","0","62755","","null","","","null","65","","","","","","","","","","","","","","","",""
"","time_out","","html-keyboard-response","437","472693","0.0-1.0-593.0-0.0","0","0","62755","","null","","","null","65","","","","","","","","","","","","","","","",""
"","ITI","","html-keyboard-response","438","473696","0.0-1.0-594.0","0","0","62755","","null","","","null","65","","","","","","","","","","","","","","","NaN",""
"","S1","","html-keyboard-response","439","473948","0.0-1.0-596.0","0","0","62755","","null","","","null","66","","","","","","","","","","","","","","","",""
"","ISI","","html-keyboard-response","440","475949","0.0-1.0-597.0","0","0","62755","","null","","","null","66","NaN","","","","","","","","","","","","","","",""
"","S2","","html-keyboard-response","441","476202","0.0-1.0-598.0","0","0","62755","","null","","","null","66","","NaN","","","","","","","","","","","","","",""
"","response","","html-keyboard-response","442","476538","0.0-1.0-599.0-0.0","0","0","62755","","336","","","75","66","","","2","66","training","adjacent","CD","3","4","R.jpg","P.jpg","1","1","1","",""
"","feedback","","html-keyboard-response","443","477540","0.0-1.0-600.0-0.0","0","0","62755","","null","","","null","66","","","","","","","","","","","","","","","",""
"","ITI","","html-keyboard-response","444","478543","0.0-1.0-603.0","0","0","62755","","null","","","null","66","","","","","","","","","","","","","","","NaN",""
"","S1","","html-keyboard-response","445","478795","0.0-1.0-605.0","0","0","62755","","null","","","null","67","","","","","","","","","","","","","","","",""
"","ISI","","html-keyboard-response","446","480797","0.0-1.0-606.0","0","0","62755","","null","","","null","67","NaN","","","","","","","","","","","","","","",""
"","S2","","html-keyboard-response","447","481050","0.0-1.0-607.0","0","0","62755","","null","","","null","67","","NaN","","","","","","","","","","","","","",""
"","response","","html-keyboard-response","448","481130","0.0-1.0-608.0-0.0","0","0","62755","","79","","","75","67","","","2","67","training","adjacent","ED","5","4","Q.jpg","P.jpg","1","0","0","",""
"","feedback","","html-keyboard-response","449","482132","0.0-1.0-609.0-0.0","0","0","62755","","null","","","null","67","","","","","","","","","","","","","","","",""
"","time_out","","html-keyboard-response","450","484134","0.0-1.0-611.0-0.0","0","0","62755","","null","","","null","67","","","","","","","","","","","","","","","",""
"","ITI","","html-keyboard-response","451","485136","0.0-1.0-612.0","0","0","62755","","null","","","null","67","","","","","","","","","","","","","","","NaN",""
"","S1","","html-keyboard-response","452","485388","0.0-1.0-614.0","0","0","62755","","null","","","null","68","","","","","","","","","","","","","","","",""
"","ISI","","html-keyboard-response","453","487390","0.0-1.0-615.0","0","0","62755","","null","","","null","68","NaN","","","","","","","","","","","","","","",""
"","S2","","html-keyboard-response","454","487642","0.0-1.0-616.0","0","0","62755","","null","","","null","68","","NaN","","","","","","","","","","","","","",""
"","response","","html-keyboard-response","455","487666","0.0-1.0-617.0-0.0","0","0","62755","","22","","","68","68","","","2","68","training","adjacent","CB","3","2","R.jpg","N.jpg","0","0","1","",""
"","feedback","","html-keyboard-response","456","488669","0.0-1.0-618.0-0.0","0","0","62755","","null","","","null","68","","","","","","","","","","","","","","","",""
"","ITI","","html-keyboard-response","457","489672","0.0-1.0-621.0","0","0","62755","","null","","","null","68","","","","","","","","","","","","","","","NaN",""
"","S1","","html-keyboard-response","458","489936","0.0-1.0-623.0","0","0","62755","","null","","","null","69","","","","","","","","","","","","","","","",""
"","ISI","","html-keyboard-response","459","491938","0.0-1.0-624.0","0","0","62755","","null","","","null","69","NaN","","","","","","","","","","","","","","",""
"","S2","","html-keyboard-response","460","492190","0.0-1.0-625.0","0","0","62755","","null","","","null","69","","NaN","","","","","","","","","","","","","",""
"","response","","html-keyboard-response","461","492429","0.0-1.0-626.0-0.0","0","0","62755","","239","","","68","69","","","2","69","training","adjacent","BA","2","1","N.jpg","O.jpg","0","0","1","",""
"","feedback","","html-keyboard-response","462","493432","0.0-1.0-627.0-0.0","0","0","62755","","null","","","null","69","","","","","","","","","","","","","","","",""
"","ITI","","html-keyboard-response","463","494434","0.0-1.0-630.0","0","0","62755","","null","","","null","69","","","","","","","","","","","","","","","NaN",""
"","S1","","html-keyboard-response","464","494699","0.0-1.0-632.0","0","0","62755","","null","","","null","70","","","","","","","","","","","","","","","",""
"","ISI","","html-keyboard-response","465","496700","0.0-1.0-633.0","0","0","62755","","null","","","null","70","NaN","","","","","","","","","","","","","","",""
"","S2","","html-keyboard-response","466","496926","0.0-1.0-634.0","0","0","62755","","224","","","68","70","","d","2","70","training","adjacent","DC","4","3","P.jpg","R.jpg","0","0","1","",""
"","feedback","","html-keyboard-response","467","497928","0.0-1.0-636.0-0.0","0","0","62755","","null","","","null","70","","","","","","","","","","","","","","","",""
"","ITI","","html-keyboard-response","468","498930","0.0-1.0-639.0","0","0","62755","","null","","","null","70","","","","","","","","","","","","","","","NaN",""
"","S1","","html-keyboard-response","469","499182","0.0-1.0-641.0","0","0","62755","","null","","","null","71","","","","","","","","","","","","","","","",""
"","ISI","","html-keyboard-response","470","501184","0.0-1.0-642.0","0","0","62755","","null","","","null","71","NaN","","","","","","","","","","","","","","",""
"","S2","","html-keyboard-response","471","501436","0.0-1.0-643.0","0","0","62755","","null","","","null","71","","NaN","","","","","","","","","","","","","",""
"","response","","html-keyboard-response","472","501705","0.0-1.0-644.0-0.0","0","0","62755","","268","","","68","71","","","2","71","training","adjacent","AB","1","2","O.jpg","N.jpg","0","1","0","",""
"","feedback","","html-keyboard-response","473","502707","0.0-1.0-645.0-0.0","0","0","62755","","null","","","null","71","","","","","","","","","","","","","","","",""
"","time_out","","html-keyboard-response","474","504710","0.0-1.0-647.0-0.0","0","0","62755","","null","","","null","71","","","","","","","","","","","","","","","",""
"","ITI","","html-keyboard-response","475","505711","0.0-1.0-648.0","0","0","62755","","null","","","null","71","","","","","","","","","","","","","","","NaN",""
"","S1","","html-keyboard-response","476","505963","0.0-1.0-650.0","0","0","62755","","null","","","null","72","","","","","","","","","","","","","","","",""
"","ISI","","html-keyboard-response","477","507965","0.0-1.0-651.0","0","0","62755","","null","","","null","72","NaN","","","","","","","","","","","","","","",""
"","S2","","html-keyboard-response","478","508217","0.0-1.0-652.0","0","0","62755","","null","","","null","72","","NaN","","","","","","","","","","","","","",""
"","response","","html-keyboard-response","479","508464","0.0-1.0-653.0-0.0","0","0","62755","","246","","","68","72","","","2","72","training","adjacent","ED","5","4","Q.jpg","P.jpg","0","0","1","",""
"","feedback","","html-keyboard-response","480","509470","0.0-1.0-654.0-0.0","0","0","62755","","null","","","null","72","","","","","","","","","","","","","","","",""
"","ITI","","html-keyboard-response","481","510472","0.0-1.0-657.0","0","0","62755","","null","","","null","72","","","","","","","","","","","","","","","NaN",""
"","S1","","html-keyboard-response","482","510724","0.0-1.0-659.0","0","0","62755","","null","","","null","73","","","","","","","","","","","","","","","",""
"","ISI","","html-keyboard-response","483","512727","0.0-1.0-660.0","0","0","62755","","null","","","null","73","NaN","","","","","","","","","","","","","","",""
"","S2","","html-keyboard-response","484","512980","0.0-1.0-661.0","0","0","62755","","null","","","null","73","","NaN","","","","","","","","","","","","","",""
"","response","","html-keyboard-response","485","513287","0.0-1.0-662.0-0.0","0","0","62755","","306","","","68","73","","","2","73","training","adjacent","BC","2","3","N.jpg","R.jpg","0","1","0","",""
"","feedback","","html-keyboard-response","486","514291","0.0-1.0-663.0-0.0","0","0","62755","","null","","","null","73","","","","","","","","","","","","","","","",""
"","time_out","","html-keyboard-response","487","516293","0.0-1.0-665.0-0.0","0","0","62755","","null","","","null","73","","","","","","","","","","","","","","","",""
"","ITI","","html-keyboard-response","488","517295","0.0-1.0-666.0","0","0","62755","","null","","","null","73","","","","","","","","","","","","","","","NaN",""
"","S1","","html-keyboard-response","489","517547","0.0-1.0-668.0","0","0","62755","","null","","","null","74","","","","","","","","","","","","","","","",""
"","ISI","","html-keyboard-response","490","519548","0.0-1.0-669.0","0","0","62755","","null","","","null","74","NaN","","","","","","","","","","","","","","",""
"","S2","","html-keyboard-response","491","519801","0.0-1.0-670.0","0","0","62755","","null","","","null","74","","NaN","","","","","","","","","","","","","",""
"","response","","html-keyboard-response","492","520089","0.0-1.0-671.0-0.0","0","0","62755","","287","","","75","74","","","2","74","training","adjacent","DE","4","5","P.jpg","Q.jpg","1","1","1","",""
"","feedback","","html-keyboard-response","493","521091","0.0-1.0-672.0-0.0","0","0","62755","","null","","","null","74","","","","","","","","","","","","","","","",""
"","ITI","","html-keyboard-response","494","522093","0.0-1.0-675.0","0","0","62755","","null","","","null","74","","","","","","","","","","","","","","","NaN",""
"","S1","","html-keyboard-response","495","522344","0.0-1.0-677.0","0","0","62755","","null","","","null","75","","","","","","","","","","","","","","","",""
"","ISI","","html-keyboard-response","496","524346","0.0-1.0-678.0","0","0","62755","","null","","","null","75","NaN","","","","","","","","","","","","","","",""
"","S2","","html-keyboard-response","497","524599","0.0-1.0-679.0","0","0","62755","","null","","","null","75","","NaN","","","","","","","","","","","","","",""
"","response","","html-keyboard-response","498","525078","0.0-1.0-680.0-0.0","0","0","62755","","478","","","75","75","","","2","75","training","adjacent","ED","5","4","Q.jpg","P.jpg","1","0","0","",""
"","feedback","","html-keyboard-response","499","526080","0.0-1.0-681.0-0.0","0","0","62755","","null","","","null","75","","","","","","","","","","","","","","","",""
"","time_out","","html-keyboard-response","500","528082","0.0-1.0-683.0-0.0","0","0","62755","","null","","","null","75","","","","","","","","","","","","","","","",""
"","ITI","","html-keyboard-response","501","529085","0.0-1.0-684.0","0","0","62755","","null","","","null","75","","","","","","","","","","","","","","","NaN",""
"","S1","","html-keyboard-response","502","529337","0.0-1.0-686.0","0","0","62755","","null","","","null","76","","","","","","","","","","","","","","","",""
"","ISI","","html-keyboard-response","503","531348","0.0-1.0-687.0","0","0","62755","","null","","","null","76","NaN","","","","","","","","","","","","","","",""
"","S2","","html-keyboard-response","504","531600","0.0-1.0-688.0","0","0","62755","","null","","","null","76","","NaN","","","","","","","","","","","","","",""
"","response","","html-keyboard-response","505","531622","0.0-1.0-689.0-0.0","0","0","62755","","21","","","68","76","","","2","76","training","adjacent","CB","3","2","R.jpg","N.jpg","0","0","1","",""
"","feedback","","html-keyboard-response","506","532625","0.0-1.0-690.0-0.0","0","0","62755","","null","","","null","76","","","","","","","","","","","","","","","",""
"","ITI","","html-keyboard-response","507","533627","0.0-1.0-693.0","0","0","62755","","null","","","null","76","","","","","","","","","","","","","","","NaN",""
"","S1","","html-keyboard-response","508","533879","0.0-1.0-695.0","0","0","62755","","null","","","null","77","","","","","","","","","","","","","","","",""
"","ISI","","html-keyboard-response","509","535892","0.0-1.0-696.0","0","0","62755","","null","","","null","77","NaN","","","","","","","","","","","","","","",""
"","S2","","html-keyboard-response","510","536144","0.0-1.0-697.0","0","0","62755","","null","","","null","77","","NaN","","","","","","","","","","","","","",""
"","response","","html-keyboard-response","511","536360","0.0-1.0-698.0-0.0","0","0","62755","","214","","","68","77","","","2","77","training","adjacent","DC","4","3","P.jpg","R.jpg","0","0","1","",""
"","feedback","","html-keyboard-response","512","537362","0.0-1.0-699.0-0.0","0","0","62755","","null","","","null","77","","","","","","","","","","","","","","","",""
"","ITI","","html-keyboard-response","513","538365","0.0-1.0-702.0","0","0","62755","","null","","","null","77","","","","","","","","","","","","","","","NaN",""
"","S1","","html-keyboard-response","514","538617","0.0-1.0-704.0","0","0","62755","","null","","","null","78","","","","","","","","","","","","","","","",""
"","ISI","","html-keyboard-response","515","540619","0.0-1.0-705.0","0","0","62755","","null","","","null","78","NaN","","","","","","","","","","","","","","",""
"","S2","","html-keyboard-response","516","540871","0.0-1.0-706.0","0","0","62755","","null","","","null","78","","NaN","","","","","","","","","","","","","",""
"","response","","html-keyboard-response","517","540877","0.0-1.0-707.0-0.0","0","0","62755","","4","","","68","78","","","2","78","training","adjacent","FE","6","5","L.jpg","Q.jpg","0","0","1","",""
"","feedback","","html-keyboard-response","518","541880","0.0-1.0-708.0-0.0","0","0","62755","","null","","","null","78","","","","","","","","","","","","","","","",""
"","ITI","","html-keyboard-response","519","542882","0.0-1.0-711.0","0","0","62755","","null","","","null","78","","","","","","","","","","","","","","","NaN",""
"","S1","","html-keyboard-response","520","543134","0.0-1.0-713.0","0","0","62755","","null","","","null","79","","","","","","","","","","","","","","","",""
"","ISI","","html-keyboard-response","521","545137","0.0-1.0-714.0","0","0","62755","","null","","","null","79","NaN","","","","","","","","","","","","","","",""
"","S2","","html-keyboard-response","522","545389","0.0-1.0-715.0","0","0","62755","","null","","","null","79","","NaN","","","","","","","","","","","","","",""
"","response","","html-keyboard-response","523","545698","0.0-1.0-716.0-0.0","0","0","62755","","307","","","68","79","","","2","79","training","adjacent","AB","1","2","O.jpg","N.jpg","0","1","0","",""
"","feedback","","html-keyboard-response","524","546700","0.0-1.0-717.0-0.0","0","0","62755","","null","","","null","79","","","","","","","","","","","","","","","",""
"","time_out","","html-keyboard-response","525","548703","0.0-1.0-719.0-0.0","0","0","62755","","null","","","null","79","","","","","","","","","","","","","","","",""
"","ITI","","html-keyboard-response","526","549705","0.0-1.0-720.0","0","0","62755","","null","","","null","79","","","","","","","","","","","","","","","NaN",""
"","S1","","html-keyboard-response","527","549957","0.0-1.0-722.0","0","0","62755","","null","","","null","80","","","","","","","","","","","","","","","",""
"","ISI","","html-keyboard-response","528","551959","0.0-1.0-723.0","0","0","62755","","307","","","68","80","d","","","","","","","","","","","","","","",""
"","S2","","html-keyboard-response","529","552211","0.0-1.0-724.0","0","0","62755","","null","","","null","80","","NaN","","","","","","","","","","","","","",""
"","response","","html-keyboard-response","530","552330","0.0-1.0-725.0-0.0","0","0","62755","","117","","","68","80","","","2","80","training","adjacent","BA","2","1","N.jpg","O.jpg","0","0","1","",""
"","feedback","","html-keyboard-response","531","553332","0.0-1.0-726.0-0.0","0","0","62755","","null","","","null","80","","","","","","","","","","","","","","","",""
"","ITI","","html-keyboard-response","532","554335","0.0-1.0-729.0","0","0","62755","","null","","","null","80","","","","","","","","","","","","","","","NaN",""
"","S1","","html-keyboard-response","533","554587","0.0-1.0-731.0","0","0","62755","","null","","","null","81","","","","","","","","","","","","","","","",""
"","ISI","","html-keyboard-response","534","556589","0.0-1.0-732.0","0","0","62755","","null","","","null","81","NaN","","","","","","","","","","","","","","",""
"","S2","","html-keyboard-response","535","556841","0.0-1.0-733.0","0","0","62755","","null","","","null","81","","NaN","","","","","","","","","","","","","",""
"","response","","html-keyboard-response","536","556946","0.0-1.0-734.0-0.0","0","0","62755","","103","","","75","81","","","2","81","training","adjacent","AB","1","2","O.jpg","N.jpg","1","1","1","",""
"","feedback","","html-keyboard-response","537","557949","0.0-1.0-735.0-0.0","0","0","62755","","null","","","null","81","","","","","","","","","","","","","","","",""
"","ITI","","html-keyboard-response","538","558950","0.0-1.0-738.0","0","0","62755","","null","","","null","81","","","","","","","","","","","","","","","NaN",""
"","S1","","html-keyboard-response","539","559203","0.0-1.0-740.0","0","0","62755","","null","","","null","82","","","","","","","","","","","","","","","",""
"","ISI","","html-keyboard-response","540","561204","0.0-1.0-741.0","0","0","62755","","null","","","null","82","NaN","","","","","","","","","","","","","","",""
"","S2","","html-keyboard-response","541","561463","0.0-1.0-742.0","0","0","62755","","null","","","null","82","","NaN","","","","","","","","","","","","","",""
"","response","","html-keyboard-response","542","561602","0.0-1.0-743.0-0.0","0","0","62755","","137","","","68","82","","","2","82","training","adjacent","BC","2","3","N.jpg","R.jpg","0","1","0","",""
"","feedback","","html-keyboard-response","543","562605","0.0-1.0-744.0-0.0","0","0","62755","","null","","","null","82","","","","","","","","","","","","","","","",""
"","time_out","","html-keyboard-response","544","564607","0.0-1.0-746.0-0.0","0","0","62755","","null","","","null","82","","","","","","","","","","","","","","","",""
"","ITI","","html-keyboard-response","545","565608","0.0-1.0-747.0","0","0","62755","","null","","","null","82","","","","","","","","","","","","","","","NaN",""
"","S1","","html-keyboard-response","546","565859","0.0-1.0-749.0","0","0","62755","","null","","","null","83","","","","","","","","","","","","","","","",""
"","ISI","","html-keyboard-response","547","567862","0.0-1.0-750.0","0","0","62755","","null","","","null","83","NaN","","","","","","","","","","","","","","",""
"","S2","","html-keyboard-response","548","568113","0.0-1.0-751.0","0","0","62755","","null","","","null","83","","NaN","","","","","","","","","","","","","",""
"","response","","html-keyboard-response","549","568213","0.0-1.0-752.0-0.0","0","0","62755","","98","","","75","83","","","2","83","training","adjacent","GF","7","6","M.jpg","L.jpg","1","0","0","",""
"","feedback","","html-keyboard-response","550","569216","0.0-1.0-753.0-0.0","0","0","62755","","null","","","null","83","","","","","","","","","","","","","","","",""
"","time_out","","html-keyboard-response","551","571218","0.0-1.0-755.0-0.0","0","0","62755","","null","","","null","83","","","","","","","","","","","","","","","",""
"","ITI","","html-keyboard-response","552","572220","0.0-1.0-756.0","0","0","62755","","null","","","null","83","","","","","","","","","","","","","","","NaN",""
"","S1","","html-keyboard-response","553","572471","0.0-1.0-758.0","0","0","62755","","null","","","null","84","","","","","","","","","","","","","","","",""
"","ISI","","html-keyboard-response","554","574473","0.0-1.0-759.0","0","0","62755","","null","","","null","84","NaN","","","","","","","","","","","","","","",""
"","S2","","html-keyboard-response","555","574725","0.0-1.0-760.0","0","0","62755","","null","","","null","84","","NaN","","","","","","","","","","","","","",""
"","response","","html-keyboard-response","556","574765","0.0-1.0-761.0-0.0","0","0","62755","","39","","","68","84","","","2","84","training","adjacent","ED","5","4","Q.jpg","P.jpg","0","0","1","",""
"","feedback","","html-keyboard-response","557","575768","0.0-1.0-762.0-0.0","0","0","62755","","null","","","null","84","","","","","","","","","","","","","","","",""
"","ITI","","html-keyboard-response","558","576770","0.0-1.0-765.0","0","0","62755","","null","","","null","84","","","","","","","","","","","","","","","NaN",""
"","S1","","html-keyboard-response","559","577023","0.0-1.0-767.0","0","0","62755","","null","","","null","85","","","","","","","","","","","","","","","",""
"","ISI","","html-keyboard-response","560","579026","0.0-1.0-768.0","0","0","62755","","null","","","null","85","NaN","","","","","","","","","","","","","","",""
"","S2","","html-keyboard-response","561","579279","0.0-1.0-769.0","0","0","62755","","null","","","null","85","","NaN","","","","","","","","","","","","","",""
"","response","","html-keyboard-response","562","579618","0.0-1.0-770.0-0.0","0","0","62755","","338","","","68","85","","","2","85","training","adjacent","DC","4","3","P.jpg","R.jpg","0","0","1","",""
"","feedback","","html-keyboard-response","563","580620","0.0-1.0-771.0-0.0","0","0","62755","","null","","","null","85","","","","","","","","","","","","","","","",""
"","ITI","","html-keyboard-response","564","581622","0.0-1.0-774.0","0","0","62755","","null","","","null","85","","","","","","","","","","","","","","","NaN",""
"","S1","","html-keyboard-response","565","581874","0.0-1.0-776.0","0","0","62755","","null","","","null","86","","","","","","","","","","","","","","","",""
"","ISI","","html-keyboard-response","566","583876","0.0-1.0-777.0","0","0","62755","","null","","","null","86","NaN","","","","","","","","","","","","","","",""
"","S2","","html-keyboard-response","567","584129","0.0-1.0-778.0","0","0","62755","","null","","","null","86","","NaN","","","","","","","","","","","","","",""
"","response","","html-keyboard-response","568","584610","0.0-1.0-779.0-0.0","0","0","62755","","480","","","75","86","","","2","86","training","adjacent","FG","6","7","L.jpg","M.jpg","1","1","1","",""
"","feedback","","html-keyboard-response","569","585612","0.0-1.0-780.0-0.0","0","0","62755","","null","","","null","86","","","","","","","","","","","","","","","",""
"","ITI","","html-keyboard-response","570","586614","0.0-1.0-783.0","0","0","62755","","null","","","null","86","","","","","","","","","","","","","","","NaN",""
"","S1","","html-keyboard-response","571","586867","0.0-1.0-785.0","0","0","62755","","null","","","null","87","","","","","","","","","","","","","","","",""
"","ISI","","html-keyboard-response","572","588869","0.0-1.0-786.0","0","0","62755","","null","","","null","87","NaN","","","","","","","","","","","","","","",""
"","S2","","html-keyboard-response","573","589121","0.0-1.0-787.0","0","0","62755","","null","","","null","87","","NaN","","","","","","","","","","","","","",""
"","response","","html-keyboard-response","574","589540","0.0-1.0-788.0-0.0","0","0","62755","","417","","","68","87","","","2","87","training","adjacent","CD","3","4","R.jpg","P.jpg","0","1","0","",""
"","feedback","","html-keyboard-response","575","590542","0.0-1.0-789.0-0.0","0","0","62755","","null","","","null","87","","","","","","","","","","","","","","","",""
"","time_out","","html-keyboard-response","576","592544","0.0-1.0-791.0-0.0","0","0","62755","","null","","","null","87","","","","","","","","","","","","","","","",""
"","ITI","","html-keyboard-response","577","593546","0.0-1.0-792.0","0","0","62755","","null","","","null","87","","","","","","","","","","","","","","","NaN",""
"","S1","","html-keyboard-response","578","593798","0.0-1.0-794.0","0","0","62755","","null","","","null","88","","","","","","","","","","","","","","","",""
"","ISI","","html-keyboard-response","579","595800","0.0-1.0-795.0","0","0","62755","","273","","","75","88","k","","","","","","","","","","","","","","",""
"","S2","","html-keyboard-response","580","596053","0.0-1.0-796.0","0","0","62755","","null","","","null","88","","NaN","","","","","","","","","","","","","",""
