"success","ttype","start_time","trial_type","trial_index","time_elapsed","internal_node_id","warning","missed_checkup","PID","view_history","rt","responses","repeat_instructions","key_press","index","keypress_isi","keypress_S2","block","trial_num","phase","group_type","pair_type","S1_stim","S2_stim","S1_img","S2_img","S1_chosen","S1_higher","accuracy","keypress_iti","total_bonus_tally"
"true","full_screen","d08012022hr1501","fullscreen","0","5331","0.0-0.0","0","0","34566","","","","","","","","","","","","","","","","","","","","","",""
"","instructions","","instructions","1","35439","0.0-1.0-0.0-0.0","0","0","34566","[{""page_index"":0,""viewing_time"":3809},{""page_index"":1,""viewing_time"":4978},{""page_index"":2,""viewing_time"":11999},{""page_index"":1,""viewing_time"":5688},{""page_index"":2,""viewing_time"":1479},{""page_index"":3,""viewing_time"":2144}]","30098","","","","","","","","","","","","","","","","","","","",""
"","comprehension_check","","survey-multi-choice","2","62333","0.0-1.0-0.0-1.0","0","0","34566","","26877","{""Q0"":""False"",""Q1"":""D"",""Q2"":""While the images are shown"",""Q3"":""Green mark"",""Q4"":""either D or K""}","1","","","","","","","","","","","","","","","","","",""
"","missed_instruction_checkup","","html-keyboard-response","3","65059","0.0-1.0-0.0-2.0-0.0","0","1","34566","","2718","","","32","","","","","","","","","","","","","","","","",""
"","instructions","","instructions","4","82037","0.0-1.0-0.1-0.1","0","0","34566","[{""page_index"":0,""viewing_time"":2963},{""page_index"":1,""viewing_time"":6648},{""page_index"":2,""viewing_time"":5441},{""page_index"":3,""viewing_time"":1919}]","16971","","","","","","","","","","","","","","","","","","","",""
"","comprehension_check","","survey-multi-choice","5","92321","0.0-1.0-0.1-1.1","0","0","34566","","10269","{""Q0"":""True"",""Q1"":""D"",""Q2"":""When you see the prompt 'MAKE A CHOICE' after the second image was presented"",""Q3"":""Green mark"",""Q4"":""either D or K""}","0","","","","","","","","","","","","","","","","","",""
"","start_exp","","html-keyboard-response","6","95391","0.0-1.0-1.0","0","0","34566","","3061","","","32","","","","","","","","","","","","","","","","",""
"","S1","","html-keyboard-response","7","95653","0.0-1.0-2.0","0","0","34566","","null","","","null","0","","","","","","","","","","","","","","","",""
"","ISI","","html-keyboard-response","8","97659","0.0-1.0-3.0","0","0","34566","","null","","","null","0","NaN","","","","","","","","","","","","","","",""
"","S2","","html-keyboard-response","9","97916","0.0-1.0-4.0","0","0","34566","","24","","","75","0","","k","","","","","","","","","","","","","",""
"","response","","html-keyboard-response","10","98596","0.0-1.0-5.0","0","0","34566","","672","","","75","0","","","1","0","training","adjacent","ED","5","4","R.jpg","O.jpg","0","0","1","",""
"","feedback","","html-keyboard-response","11","99603","0.0-1.0-6.0-0.0","0","0","34566","","null","","","null","0","","","","","","","","","","","","","","","",""
"","ITI","","html-keyboard-response","12","100611","0.0-1.0-9.0","0","0","34566","","null","","","null","0","","","","","","","","","","","","","","","NaN",""
"","S1","","html-keyboard-response","13","100869","0.0-1.0-11.0","0","0","34566","","null","","","null","1","","","","","","","","","","","","","","","",""
"","ISI","","html-keyboard-response","14","102875","0.0-1.0-12.0","0","0","34566","","null","","","null","1","NaN","","","","","","","","","","","","","","",""
"","S2","","html-keyboard-response","15","103131","0.0-1.0-13.0","0","0","34566","","null","","","null","1","","NaN","","","","","","","","","","","","","",""
"","response","","html-keyboard-response","16","103447","0.0-1.0-14.0","0","0","34566","","308","","","75","1","","","1","1","training","adjacent","FG","6","7","N.jpg","P.jpg","0","1","0","",""
"","feedback","","html-keyboard-response","17","104454","0.0-1.0-15.0-0.0","0","0","34566","","null","","","null","1","","","","","","","","","","","","","","","",""
"","time_out","","html-keyboard-response","18","106465","0.0-1.0-17.0-0.0","0","0","34566","","null","","","null","1","","","","","","","","","","","","","","","",""
"","ITI","","html-keyboard-response","19","107475","0.0-1.0-18.0","0","0","34566","","null","","","null","1","","","","","","","","","","","","","","","NaN",""
"","S1","","html-keyboard-response","20","107732","0.0-1.0-20.0","0","0","34566","","null","","","null","2","","","","","","","","","","","","","","","",""
"","ISI","","html-keyboard-response","21","109738","0.0-1.0-21.0","0","0","34566","","null","","","null","2","NaN","","","","","","","","","","","","","","",""
"","S2","","html-keyboard-response","22","109994","0.0-1.0-22.0","0","0","34566","","null","","","null","2","","NaN","","","","","","","","","","","","","",""
"","response","","html-keyboard-response","23","110409","0.0-1.0-23.0","0","0","34566","","408","","","68","2","","","1","2","training","adjacent","CB","3","2","Q.jpg","L.jpg","1","0","0","",""
"","feedback","","html-keyboard-response","24","111418","0.0-1.0-24.0-0.0","0","0","34566","","null","","","null","2","","","","","","","","","","","","","","","",""
"","time_out","","html-keyboard-response","25","113424","0.0-1.0-26.0-0.0","0","0","34566","","null","","","null","2","","","","","","","","","","","","","","","",""
"","ITI","","html-keyboard-response","26","114430","0.0-1.0-27.0","0","0","34566","","null","","","null","2","","","","","","","","","","","","","","","NaN",""
"","S1","","html-keyboard-response","27","114686","0.0-1.0-29.0","0","0","34566","","null","","","null","3","","","","","","","","","","","","","","","",""
"","ISI","","html-keyboard-response","28","116694","0.0-1.0-30.0","0","0","34566","","null","","","null","3","NaN","","","","","","","","","","","","","","",""
"","S2","","html-keyboard-response","29","116951","0.0-1.0-31.0","0","0","34566","","null","","","null","3","","NaN","","","","","","","","","","","","","",""
"","response","","html-keyboard-response","30","117719","0.0-1.0-32.0","0","0","34566","","762","","","75","3","","","1","3","training","adjacent","DC","4","3","O.jpg","Q.jpg","0","0","1","",""
"","feedback","","html-keyboard-response","31","118725","0.0-1.0-33.0-0.0","0","0","34566","","null","","","null","3","","","","","","","","","","","","","","","",""
"","ITI","","html-keyboard-response","32","119731","0.0-1.0-36.0","0","0","34566","","null","","","null","3","","","","","","","","","","","","","","","NaN",""
"","S1","","html-keyboard-response","33","119988","0.0-1.0-38.0","0","0","34566","","null","","","null","4","","","","","","","","","","","","","","","",""
"","ISI","","html-keyboard-response","34","121995","0.0-1.0-39.0","0","0","34566","","null","","","null","4","NaN","","","","","","","","","","","","","","",""
"","S2","","html-keyboard-response","35","122252","0.0-1.0-40.0","0","0","34566","","null","","","null","4","","NaN","","","","","","","","","","","","","",""
"","response","","html-keyboard-response","36","123266","0.0-1.0-41.0","0","0","34566","","1009","","","68","4","","","1","4","training","adjacent","CD","3","4","Q.jpg","O.jpg","1","1","1","",""
"","feedback","","html-keyboard-response","37","124274","0.0-1.0-42.0-0.0","0","0","34566","","null","","","null","4","","","","","","","","","","","","","","","",""
"","ITI","","html-keyboard-response","38","125283","0.0-1.0-45.0","0","0","34566","","null","","","null","4","","","","","","","","","","","","","","","NaN",""
"","S1","","html-keyboard-response","39","125540","0.0-1.0-47.0","0","0","34566","","null","","","null","5","","","","","","","","","","","","","","","",""
"","ISI","","html-keyboard-response","40","127546","0.0-1.0-48.0","0","0","34566","","null","","","null","5","NaN","","","","","","","","","","","","","","",""
"","S2","","html-keyboard-response","41","127803","0.0-1.0-49.0","0","0","34566","","null","","","null","5","","NaN","","","","","","","","","","","","","",""
"","response","","html-keyboard-response","42","128558","0.0-1.0-50.0","0","0","34566","","750","","","75","5","","","1","5","training","adjacent","BC","2","3","L.jpg","Q.jpg","0","1","0","",""
"","feedback","","html-keyboard-response","43","129567","0.0-1.0-51.0-0.0","0","0","34566","","null","","","null","5","","","","","","","","","","","","","","","",""
"","time_out","","html-keyboard-response","44","131574","0.0-1.0-53.0-0.0","0","0","34566","","null","","","null","5","","","","","","","","","","","","","","","",""
"","ITI","","html-keyboard-response","45","132580","0.0-1.0-54.0","0","0","34566","","null","","","null","5","","","","","","","","","","","","","","","NaN",""
"","S1","","html-keyboard-response","46","132836","0.0-1.0-56.0","0","0","34566","","null","","","null","6","","","","","","","","","","","","","","","",""
"","ISI","","html-keyboard-response","47","134843","0.0-1.0-57.0","0","0","34566","","null","","","null","6","NaN","","","","","","","","","","","","","","",""
"","S2","","html-keyboard-response","48","135101","0.0-1.0-58.0","0","0","34566","","null","","","null","6","","NaN","","","","","","","","","","","","","",""
"","response","","html-keyboard-response","49","136534","0.0-1.0-59.0","0","0","34566","","1428","","","68","6","","","1","6","training","adjacent","AB","1","2","M.jpg","L.jpg","1","1","1","",""
"","feedback","","html-keyboard-response","50","137541","0.0-1.0-60.0-0.0","0","0","34566","","null","","","null","6","","","","","","","","","","","","","","","",""
"","ITI","","html-keyboard-response","51","138548","0.0-1.0-63.0","0","0","34566","","null","","","null","6","","","","","","","","","","","","","","","NaN",""
"","S1","","html-keyboard-response","52","138804","0.0-1.0-65.0","0","0","34566","","null","","","null","7","","","","","","","","","","","","","","","",""
"","ISI","","html-keyboard-response","53","140811","0.0-1.0-66.0","0","0","34566","","null","","","null","7","NaN","","","","","","","","","","","","","","",""
"","S2","","html-keyboard-response","54","141068","0.0-1.0-67.0","0","0","34566","","null","","","null","7","","NaN","","","","","","","","","","","","","",""
"","response","","html-keyboard-response","55","142092","0.0-1.0-68.0","0","0","34566","","1018","","","75","7","","","1","7","training","adjacent","DE","4","5","O.jpg","R.jpg","0","1","0","",""
"","feedback","","html-keyboard-response","56","143099","0.0-1.0-69.0-0.0","0","0","34566","","null","","","null","7","","","","","","","","","","","","","","","",""
"","time_out","","html-keyboard-response","57","145104","0.0-1.0-71.0-0.0","0","0","34566","","null","","","null","7","","","","","","","","","","","","","","","",""
"","ITI","","html-keyboard-response","58","146110","0.0-1.0-72.0","0","0","34566","","null","","","null","7","","","","","","","","","","","","","","","NaN",""
"","S1","","html-keyboard-response","59","146366","0.0-1.0-74.0","0","0","34566","","null","","","null","8","","","","","","","","","","","","","","","",""
"","ISI","","html-keyboard-response","60","148373","0.0-1.0-75.0","0","0","34566","","null","","","null","8","NaN","","","","","","","","","","","","","","",""
"","S2","","html-keyboard-response","61","148629","0.0-1.0-76.0","0","0","34566","","null","","","null","8","","NaN","","","","","","","","","","","","","",""
"","response","","html-keyboard-response","62","149869","0.0-1.0-77.0","0","0","34566","","1235","","","75","8","","","1","8","training","adjacent","FE","6","5","N.jpg","R.jpg","0","0","1","",""
"","feedback","","html-keyboard-response","63","150877","0.0-1.0-78.0-0.0","0","0","34566","","null","","","null","8","","","","","","","","","","","","","","","",""
"","ITI","","html-keyboard-response","64","151884","0.0-1.0-81.0","0","0","34566","","null","","","null","8","","","","","","","","","","","","","","","NaN",""
"","S1","","html-keyboard-response","65","152141","0.0-1.0-83.0","0","0","34566","","null","","","null","9","","","","","","","","","","","","","","","",""
"","ISI","","html-keyboard-response","66","154147","0.0-1.0-84.0","0","0","34566","","null","","","null","9","NaN","","","","","","","","","","","","","","",""
"","S2","","html-keyboard-response","67","154405","0.0-1.0-85.0","0","0","34566","","null","","","null","9","","NaN","","","","","","","","","","","","","",""
"","response","","html-keyboard-response","68","155206","0.0-1.0-86.0","0","0","34566","","794","","","68","9","","","1","9","training","adjacent","CD","3","4","Q.jpg","O.jpg","1","1","1","",""
"","feedback","","html-keyboard-response","69","156212","0.0-1.0-87.0-0.0","0","0","34566","","null","","","null","9","","","","","","","","","","","","","","","",""
"","ITI","","html-keyboard-response","70","157220","0.0-1.0-90.0","0","0","34566","","null","","","null","9","","","","","","","","","","","","","","","NaN",""
"","S1","","html-keyboard-response","71","157477","0.0-1.0-92.0","0","0","34566","","null","","","null","10","","","","","","","","","","","","","","","",""
"","ISI","","html-keyboard-response","72","159483","0.0-1.0-93.0","0","0","34566","","null","","","null","10","NaN","","","","","","","","","","","","","","",""
"","S2","","html-keyboard-response","73","159741","0.0-1.0-94.0","0","0","34566","","null","","","null","10","","NaN","","","","","","","","","","","","","",""
"","response","","html-keyboard-response","74","160337","0.0-1.0-95.0","0","0","34566","","590","","","68","10","","","1","10","training","adjacent","FE","6","5","N.jpg","R.jpg","1","0","0","",""
"","feedback","","html-keyboard-response","75","161343","0.0-1.0-96.0-0.0","0","0","34566","","null","","","null","10","","","","","","","","","","","","","","","",""
"","time_out","","html-keyboard-response","76","163350","0.0-1.0-98.0-0.0","0","0","34566","","null","","","null","10","","","","","","","","","","","","","","","",""
"","ITI","","html-keyboard-response","77","164356","0.0-1.0-99.0","0","0","34566","","null","","","null","10","","","","","","","","","","","","","","","NaN",""
"","S1","","html-keyboard-response","78","164613","0.0-1.0-101.0","0","0","34566","","null","","","null","11","","","","","","","","","","","","","","","",""
"","ISI","","html-keyboard-response","79","166619","0.0-1.0-102.0","0","0","34566","","null","","","null","11","NaN","","","","","","","","","","","","","","",""
"","S2","","html-keyboard-response","80","166875","0.0-1.0-103.0","0","0","34566","","null","","","null","11","","NaN","","","","","","","","","","","","","",""
"","response","","html-keyboard-response","81","168169","0.0-1.0-104.0","0","0","34566","","1288","","","68","11","","","1","11","training","adjacent","DC","4","3","O.jpg","Q.jpg","1","0","0","",""
"","feedback","","html-keyboard-response","82","169177","0.0-1.0-105.0-0.0","0","0","34566","","null","","","null","11","","","","","","","","","","","","","","","",""
"","time_out","","html-keyboard-response","83","171183","0.0-1.0-107.0-0.0","0","0","34566","","null","","","null","11","","","","","","","","","","","","","","","",""
"","ITI","","html-keyboard-response","84","172189","0.0-1.0-108.0","0","0","34566","","null","","","null","11","","","","","","","","","","","","","","","NaN",""
"","S1","","html-keyboard-response","85","172446","0.0-1.0-110.0","0","0","34566","","null","","","null","12","","","","","","","","","","","","","","","",""
"","ISI","","html-keyboard-response","86","174452","0.0-1.0-111.0","0","0","34566","","null","","","null","12","NaN","","","","","","","","","","","","","","",""
"","S2","","html-keyboard-response","87","174709","0.0-1.0-112.0","0","0","34566","","null","","","null","12","","NaN","","","","","","","","","","","","","",""
"","response","","html-keyboard-response","88","175533","0.0-1.0-113.0","0","0","34566","","818","","","68","12","","","1","12","training","adjacent","GF","7","6","P.jpg","N.jpg","1","0","0","",""
"","feedback","","html-keyboard-response","89","176539","0.0-1.0-114.0-0.0","0","0","34566","","null","","","null","12","","","","","","","","","","","","","","","",""
"","time_out","","html-keyboard-response","90","178547","0.0-1.0-116.0-0.0","0","0","34566","","null","","","null","12","","","","","","","","","","","","","","","",""
"","ITI","","html-keyboard-response","91","179554","0.0-1.0-117.0","0","0","34566","","null","","","null","12","","","","","","","","","","","","","","","NaN",""
"","S1","","html-keyboard-response","92","179811","0.0-1.0-119.0","0","0","34566","","null","","","null","13","","","","","","","","","","","","","","","",""
"","ISI","","html-keyboard-response","93","181818","0.0-1.0-120.0","0","0","34566","","null","","","null","13","NaN","","","","","","","","","","","","","","",""
"","S2","","html-keyboard-response","94","182075","0.0-1.0-121.0","0","0","34566","","null","","","null","13","","NaN","","","","","","","","","","","","","",""
"","response","","html-keyboard-response","95","182189","0.0-1.0-122.0","0","0","34566","","110","","","75","13","","","1","13","training","adjacent","DE","4","5","O.jpg","R.jpg","0","1","0","",""
"","feedback","","html-keyboard-response","96","183196","0.0-1.0-123.0-0.0","0","0","34566","","null","","","null","13","","","","","","","","","","","","","","","",""
"","time_out","","html-keyboard-response","97","185202","0.0-1.0-125.0-0.0","0","0","34566","","null","","","null","13","","","","","","","","","","","","","","","",""
"","ITI","","html-keyboard-response","98","186208","0.0-1.0-126.0","0","0","34566","","null","","","null","13","","","","","","","","","","","","","","","NaN",""
"","S1","","html-keyboard-response","99","186466","0.0-1.0-128.0","0","0","34566","","null","","","null","14","","","","","","","","","","","","","","","",""
"","ISI","","html-keyboard-response","100","188473","0.0-1.0-129.0","0","0","34566","","null","","","null","14","NaN","","","","","","","","","","","","","","",""
"","S2","","html-keyboard-response","101","188729","0.0-1.0-130.0","0","0","34566","","null","","","null","14","","NaN","","","","","","","","","","","","","",""
"","response","","html-keyboard-response","102","190735","0.0-1.0-131.0","0","0","34566","","null","","","null","14","","","1","14","training","adjacent","CB","3","2","Q.jpg","L.jpg","NaN","0","0","",""
"","too_slow_prompt","","html-keyboard-response","103","191742","0.0-1.0-133.0-0.0","1","0","34566","","null","","","null","","","","","","","","","","","","","","","","",""
"","time_out","","html-keyboard-response","104","193748","0.0-1.0-134.0-0.0","0","0","34566","","null","","","null","14","","","","","","","","","","","","","","","",""
"","ITI","","html-keyboard-response","105","194753","0.0-1.0-135.0","0","0","34566","","null","","","null","14","","","","","","","","","","","","","","","NaN",""
"","S1","","html-keyboard-response","106","195009","0.0-1.0-137.0","0","0","34566","","null","","","null","15","","","","","","","","","","","","","","","",""
"","ISI","","html-keyboard-response","107","197016","0.0-1.0-138.0","0","0","34566","","null","","","null","15","NaN","","","","","","","","","","","","","","",""
"","S2","","html-keyboard-response","108","197274","0.0-1.0-139.0","0","0","34566","","null","","","null","15","","NaN","","","","","","","","","","","","","",""
"","response","","html-keyboard-response","109","198589","0.0-1.0-140.0","0","0","34566","","1310","","","68","15","","","1","15","training","adjacent","FG","6","7","N.jpg","P.jpg","1","1","1","",""
"","feedback","","html-keyboard-response","110","199595","0.0-1.0-141.0-0.0","0","0","34566","","null","","","null","15","","","","","","","","","","","","","","","",""
"","ITI","","html-keyboard-response","111","200603","0.0-1.0-144.0","0","0","34566","","null","","","null","15","","","","","","","","","","","","","","","NaN",""
"","S1","","html-keyboard-response","112","200860","0.0-1.0-146.0","0","0","34566","","null","","","null","16","","","","","","","","","","","","","","","",""
"","ISI","","html-keyboard-response","113","202866","0.0-1.0-147.0","0","0","34566","","null","","","null","16","NaN","","","","","","","","","","","","","","",""
"","S2","","html-keyboard-response","114","203123","0.0-1.0-148.0","0","0","34566","","null","","","null","16","","NaN","","","","","","","","","","","","","",""
"","response","","html-keyboard-response","115","205129","0.0-1.0-149.0","0","0","34566","","null","","","null","16","","","1","16","training","adjacent","BA","2","1","L.jpg","M.jpg","NaN","0","0","",""
"","too_slow_prompt","","html-keyboard-response","116","206136","0.0-1.0-151.0-0.0","1","0","34566","","null","","","null","","","","","","","","","","","","","","","","",""
"","time_out","","html-keyboard-response","117","208142","0.0-1.0-152.0-0.0","0","0","34566","","null","","","null","16","","","","","","","","","","","","","","","",""
"","ITI","","html-keyboard-response","118","209149","0.0-1.0-153.0","0","0","34566","","null","","","null","16","","","","","","","","","","","","","","","NaN",""
"","S1","","html-keyboard-response","119","209406","0.0-1.0-155.0","0","0","34566","","null","","","null","17","","","","","","","","","","","","","","","",""
"","ISI","","html-keyboard-response","120","211412","0.0-1.0-156.0","0","0","34566","","1728","","","75","17","k","","","","","","","","","","","","","","",""
"","S2","","html-keyboard-response","121","211669","0.0-1.0-157.0","0","0","34566","","204","","","75","17","","k","","","","","","","","","","","","","",""
"","response","","html-keyboard-response","122","211742","0.0-1.0-158.0","0","0","34566","","68","","","68","17","","","1","17","training","adjacent","BC","2","3","L.jpg","Q.jpg","1","1","1","",""
"","feedback","","html-keyboard-response","123","212751","0.0-1.0-159.0-0.0","0","0","34566","","null","","","null","17","","","","","","","","","","","","","","","",""
"","ITI","","html-keyboard-response","124","213756","0.0-1.0-162.0","0","0","34566","","null","","","null","17","","","","","","","","","","","","","","","NaN",""
"","S1","","html-keyboard-response","125","214012","0.0-1.0-164.0","0","0","34566","","null","","","null","18","","","","","","","","","","","","","","","",""
"","ISI","","html-keyboard-response","126","216021","0.0-1.0-165.0","0","0","34566","","null","","","null","18","NaN","","","","","","","","","","","","","","",""
"","S2","","html-keyboard-response","127","216277","0.0-1.0-166.0","0","0","34566","","null","","","null","18","","NaN","","","","","","","","","","","","","",""
"","response","","html-keyboard-response","128","216814","0.0-1.0-167.0","0","0","34566","","531","","","75","18","","","1","18","training","adjacent","BA","2","1","L.jpg","M.jpg","0","0","1","",""
"","feedback","","html-keyboard-response","129","217821","0.0-1.0-168.0-0.0","0","0","34566","","null","","","null","18","","","","","","","","","","","","","","","",""
"","ITI","","html-keyboard-response","130","218827","0.0-1.0-171.0","0","0","34566","","null","","","null","18","","","","","","","","","","","","","","","NaN",""
"","S1","","html-keyboard-response","131","219084","0.0-1.0-173.0","0","0","34566","","null","","","null","19","","","","","","","","","","","","","","","",""
"","ISI","","html-keyboard-response","132","221091","0.0-1.0-174.0","0","0","34566","","null","","","null","19","NaN","","","","","","","","","","","","","","",""
"","S2","","html-keyboard-response","133","221347","0.0-1.0-175.0","0","0","34566","","null","","","null","19","","NaN","","","","","","","","","","","","","",""
"","response","","html-keyboard-response","134","221856","0.0-1.0-176.0","0","0","34566","","501","","","75","19","","","1","19","training","adjacent","FG","6","7","N.jpg","P.jpg","0","1","0","",""
"","feedback","","html-keyboard-response","135","222862","0.0-1.0-177.0-0.0","0","0","34566","","null","","","null","19","","","","","","","","","","","","","","","",""
"","time_out","","html-keyboard-response","136","224869","0.0-1.0-179.0-0.0","0","0","34566","","null","","","null","19","","","","","","","","","","","","","","","",""
"","ITI","","html-keyboard-response","137","225876","0.0-1.0-180.0","0","0","34566","","null","","","null","19","","","","","","","","","","","","","","","NaN",""
"","S1","","html-keyboard-response","138","226132","0.0-1.0-182.0","0","0","34566","","null","","","null","20","","","","","","","","","","","","","","","",""
"","ISI","","html-keyboard-response","139","228137","0.0-1.0-183.0","0","0","34566","","null","","","null","20","NaN","","","","","","","","","","","","","","",""
"","S2","","html-keyboard-response","140","228395","0.0-1.0-184.0","0","0","34566","","null","","","null","20","","NaN","","","","","","","","","","","","","",""
"","response","","html-keyboard-response","141","228811","0.0-1.0-185.0","0","0","34566","","410","","","68","20","","","1","20","training","adjacent","DC","4","3","O.jpg","Q.jpg","1","0","0","",""
"","feedback","","html-keyboard-response","142","229817","0.0-1.0-186.0-0.0","0","0","34566","","null","","","null","20","","","","","","","","","","","","","","","",""
"","time_out","","html-keyboard-response","143","231823","0.0-1.0-188.0-0.0","0","0","34566","","null","","","null","20","","","","","","","","","","","","","","","",""
"","ITI","","html-keyboard-response","144","232831","0.0-1.0-189.0","0","0","34566","","null","","","null","20","","","","","","","","","","","","","","","NaN",""
"","S1","","html-keyboard-response","145","233087","0.0-1.0-191.0","0","0","34566","","null","","","null","21","","","","","","","","","","","","","","","",""
"","ISI","","html-keyboard-response","146","235093","0.0-1.0-192.0","0","0","34566","","null","","","null","21","NaN","","","","","","","","","","","","","","",""
"","S2","","html-keyboard-response","147","235351","0.0-1.0-193.0","0","0","34566","","null","","","null","21","","NaN","","","","","","","","","","","","","",""
"","response","","html-keyboard-response","148","236040","0.0-1.0-194.0","0","0","34566","","683","","","68","21","","","1","21","training","adjacent","CB","3","2","Q.jpg","L.jpg","1","0","0","",""
"","feedback","","html-keyboard-response","149","237047","0.0-1.0-195.0-0.0","0","0","34566","","null","","","null","21","","","","","","","","","","","","","","","",""
"","time_out","","html-keyboard-response","150","239052","0.0-1.0-197.0-0.0","0","0","34566","","null","","","null","21","","","","","","","","","","","","","","","",""
"","ITI","","html-keyboard-response","151","240058","0.0-1.0-198.0","0","0","34566","","null","","","null","21","","","","","","","","","","","","","","","NaN",""
"","S1","","html-keyboard-response","152","240315","0.0-1.0-200.0","0","0","34566","","null","","","null","22","","","","","","","","","","","","","","","",""
"","ISI","","html-keyboard-response","153","242321","0.0-1.0-201.0","0","0","34566","","45","","","75","22","k","","","","","","","","","","","","","","",""
"","S2","","html-keyboard-response","154","242577","0.0-1.0-202.0","0","0","34566","","null","","","null","22","","NaN","","","","","","","","","","","","","",""
"","response","","html-keyboard-response","155","243225","0.0-1.0-203.0","0","0","34566","","640","","","75","22","","","1","22","training","adjacent","FG","6","7","N.jpg","P.jpg","0","1","0","",""
"","feedback","","html-keyboard-response","156","244232","0.0-1.0-204.0-0.0","0","0","34566","","null","","","null","22","","","","","","","","","","","","","","","",""
"","time_out","","html-keyboard-response","157","246238","0.0-1.0-206.0-0.0","0","0","34566","","null","","","null","22","","","","","","","","","","","","","","","",""
"","ITI","","html-keyboard-response","158","247243","0.0-1.0-207.0","0","0","34566","","null","","","null","22","","","","","","","","","","","","","","","NaN",""
"","S1","","html-keyboard-response","159","247502","0.0-1.0-209.0","0","0","34566","","null","","","null","23","","","","","","","","","","","","","","","",""
"","ISI","","html-keyboard-response","160","249508","0.0-1.0-210.0","0","0","34566","","35","","","68","23","d","","","","","","","","","","","","","","",""
"","S2","","html-keyboard-response","161","249766","0.0-1.0-211.0","0","0","34566","","null","","","null","23","","NaN","","","","","","","","","","","","","",""
"","response","","html-keyboard-response","162","250622","0.0-1.0-212.0","0","0","34566","","849","","","75","23","","","1","23","training","adjacent","DE","4","5","O.jpg","R.jpg","0","1","0","",""
"","feedback","","html-keyboard-response","163","251630","0.0-1.0-213.0-0.0","0","0","34566","","null","","","null","23","","","","","","","","","","","","","","","",""
"","time_out","","html-keyboard-response","164","253634","0.0-1.0-215.0-0.0","0","0","34566","","null","","","null","23","","","","","","","","","","","","","","","",""
"","ITI","","html-keyboard-response","165","254640","0.0-1.0-216.0","0","0","34566","","null","","","null","23","","","","","","","","","","","","","","","NaN",""
"","S1","","html-keyboard-response","166","254898","0.0-1.0-218.0","0","0","34566","","null","","","null","24","","","","","","","","","","","","","","","",""
"","ISI","","html-keyboard-response","167","256905","0.0-1.0-219.0","0","0","34566","","null","","","null","24","NaN","","","","","","","","","","","","","","",""
"","S2","","html-keyboard-response","168","257161","0.0-1.0-220.0","0","0","34566","","null","","","null","24","","NaN","","","","","","","","","","","","","",""
"","response","","html-keyboard-response","169","257971","0.0-1.0-221.0","0","0","34566","","803","","","68","24","","","1","24","training","adjacent","DC","4","3","O.jpg","Q.jpg","1","0","0","",""
"","feedback","","html-keyboard-response","170","258977","0.0-1.0-222.0-0.0","0","0","34566","","null","","","null","24","","","","","","","","","","","","","","","",""
"","time_out","","html-keyboard-response","171","260982","0.0-1.0-224.0-0.0","0","0","34566","","null","","","null","24","","","","","","","","","","","","","","","",""
"","ITI","","html-keyboard-response","172","261989","0.0-1.0-225.0","0","0","34566","","null","","","null","24","","","","","","","","","","","","","","","NaN",""
"","S1","","html-keyboard-response","173","262246","0.0-1.0-227.0","0","0","34566","","null","","","null","25","","","","","","","","","","","","","","","",""
"","ISI","","html-keyboard-response","174","264253","0.0-1.0-228.0","0","0","34566","","null","","","null","25","NaN","","","","","","","","","","","","","","",""
"","S2","","html-keyboard-response","175","264510","0.0-1.0-229.0","0","0","34566","","null","","","null","25","","NaN","","","","","","","","","","","","","",""
"","response","","html-keyboard-response","176","265179","0.0-1.0-230.0","0","0","34566","","662","","","75","25","","","1","25","training","adjacent","BC","2","3","L.jpg","Q.jpg","0","1","0","",""
"","feedback","","html-keyboard-response","177","266185","0.0-1.0-231.0-0.0","0","0","34566","","null","","","null","25","","","","","","","","","","","","","","","",""
"","time_out","","html-keyboard-response","178","268192","0.0-1.0-233.0-0.0","0","0","34566","","null","","","null","25","","","","","","","","","","","","","","","",""
"","ITI","","html-keyboard-response","179","269198","0.0-1.0-234.0","0","0","34566","","null","","","null","25","","","","","","","","","","","","","","","NaN",""
"","S1","","html-keyboard-response","180","269456","0.0-1.0-236.0","0","0","34566","","null","","","null","26","","","","","","","","","","","","","","","",""
"","ISI","","html-keyboard-response","181","271462","0.0-1.0-237.0","0","0","34566","","null","","","null","26","NaN","","","","","","","","","","","","","","",""
"","S2","","html-keyboard-response","182","271718","0.0-1.0-238.0","0","0","34566","","null","","","null","26","","NaN","","","","","","","","","","","","","",""
"","response","","html-keyboard-response","183","272405","0.0-1.0-239.0","0","0","34566","","681","","","75","26","","","1","26","training","adjacent","GF","7","6","P.jpg","N.jpg","0","0","1","",""
"","feedback","","html-keyboard-response","184","273411","0.0-1.0-240.0-0.0","0","0","34566","","null","","","null","26","","","","","","","","","","","","","","","",""
"","ITI","","html-keyboard-response","185","274418","0.0-1.0-243.0","0","0","34566","","null","","","null","26","","","","","","","","","","","","","","","NaN",""
"","S1","","html-keyboard-response","186","274674","0.0-1.0-245.0","0","0","34566","","null","","","null","27","","","","","","","","","","","","","","","",""
"","ISI","","html-keyboard-response","187","276681","0.0-1.0-246.0","0","0","34566","","null","","","null","27","NaN","","","","","","","","","","","","","","",""
"","S2","","html-keyboard-response","188","276937","0.0-1.0-247.0","0","0","34566","","null","","","null","27","","NaN","","","","","","","","","","","","","",""
"","response","","html-keyboard-response","189","277791","0.0-1.0-248.0","0","0","34566","","848","","","68","27","","","1","27","training","adjacent","CD","3","4","Q.jpg","O.jpg","1","1","1","",""
"","feedback","","html-keyboard-response","190","278798","0.0-1.0-249.0-0.0","0","0","34566","","null","","","null","27","","","","","","","","","","","","","","","",""
"","ITI","","html-keyboard-response","191","279805","0.0-1.0-252.0","0","0","34566","","null","","","null","27","","","","","","","","","","","","","","","NaN",""
"","S1","","html-keyboard-response","192","280065","0.0-1.0-254.0","0","0","34566","","null","","","null","28","","","","","","","","","","","","","","","",""
"","ISI","","html-keyboard-response","193","282072","0.0-1.0-255.0","0","0","34566","","null","","","null","28","NaN","","","","","","","","","","","","","","",""
"","S2","","html-keyboard-response","194","282329","0.0-1.0-256.0","0","0","34566","","null","","","null","28","","NaN","","","","","","","","","","","","","",""
"","response","","html-keyboard-response","195","283585","0.0-1.0-257.0","0","0","34566","","1252","","","68","28","","","1","28","training","adjacent","ED","5","4","R.jpg","O.jpg","1","0","0","",""
"","feedback","","html-keyboard-response","196","284591","0.0-1.0-258.0-0.0","0","0","34566","","null","","","null","28","","","","","","","","","","","","","","","",""
"","time_out","","html-keyboard-response","197","286597","0.0-1.0-260.0-0.0","0","0","34566","","null","","","null","28","","","","","","","","","","","","","","","",""
"","ITI","","html-keyboard-response","198","287603","0.0-1.0-261.0","0","0","34566","","null","","","null","28","","","","","","","","","","","","","","","NaN",""
"","S1","","html-keyboard-response","199","287859","0.0-1.0-263.0","0","0","34566","","null","","","null","29","","","","","","","","","","","","","","","",""
"","ISI","","html-keyboard-response","200","289865","0.0-1.0-264.0","0","0","34566","","null","","","null","29","NaN","","","","","","","","","","","","","","",""
"","S2","","html-keyboard-response","201","290122","0.0-1.0-265.0","0","0","34566","","null","","","null","29","","NaN","","","","","","","","","","","","","",""
"","response","","html-keyboard-response","202","290701","0.0-1.0-266.0","0","0","34566","","573","","","75","29","","","1","29","training","adjacent","ED","5","4","R.jpg","O.jpg","0","0","1","",""
"","feedback","","html-keyboard-response","203","291709","0.0-1.0-267.0-0.0","0","0","34566","","null","","","null","29","","","","","","","","","","","","","","","",""
"","ITI","","html-keyboard-response","204","292716","0.0-1.0-270.0","0","0","34566","","null","","","null","29","","","","","","","","","","","","","","","NaN",""
"","S1","","html-keyboard-response","205","292972","0.0-1.0-272.0","0","0","34566","","null","","","null","30","","","","","","","","","","","","","","","",""
"","ISI","","html-keyboard-response","206","294980","0.0-1.0-273.0","0","0","34566","","null","","","null","30","NaN","","","","","","","","","","","","","","",""
"","S2","","html-keyboard-response","207","295236","0.0-1.0-274.0","0","0","34566","","200","","","75","30","","k","","","","","","","","","","","","","",""
"","response","","html-keyboard-response","208","295912","0.0-1.0-275.0","0","0","34566","","670","","","75","30","","","1","30","training","adjacent","EF","5","6","R.jpg","N.jpg","0","1","0","",""
"","feedback","","html-keyboard-response","209","296922","0.0-1.0-276.0-0.0","0","0","34566","","null","","","null","30","","","","","","","","","","","","","","","",""
"","time_out","","html-keyboard-response","210","298928","0.0-1.0-278.0-0.0","0","0","34566","","null","","","null","30","","","","","","","","","","","","","","","",""
"","ITI","","html-keyboard-response","211","299933","0.0-1.0-279.0","0","0","34566","","null","","","null","30","","","","","","","","","","","","","","","NaN",""
"","S1","","html-keyboard-response","212","300190","0.0-1.0-281.0","0","0","34566","","null","","","null","31","","","","","","","","","","","","","","","",""
"","ISI","","html-keyboard-response","213","302195","0.0-1.0-282.0","0","0","34566","","3","","","68","31","d","","","","","","","","","","","","","","",""
"","S2","","html-keyboard-response","214","302452","0.0-1.0-283.0","0","0","34566","","null","","","null","31","","NaN","","","","","","","","","","","","","",""
"","response","","html-keyboard-response","215","302482","0.0-1.0-284.0","0","0","34566","","22","","","75","31","","","1","31","training","adjacent","AB","1","2","M.jpg","L.jpg","0","1","0","",""
"","feedback","","html-keyboard-response","216","303488","0.0-1.0-285.0-0.0","0","0","34566","","null","","","null","31","","","","","","","","","","","","","","","",""
"","time_out","","html-keyboard-response","217","305495","0.0-1.0-287.0-0.0","0","0","34566","","null","","","null","31","","","","","","","","","","","","","","","",""
"","ITI","","html-keyboard-response","218","306500","0.0-1.0-288.0","0","0","34566","","null","","","null","31","","","","","","","","","","","","","","","NaN",""
"","S1","","html-keyboard-response","219","306757","0.0-1.0-290.0","0","0","34566","","null","","","null","32","","","","","","","","","","","","","","","",""
"","ISI","","html-keyboard-response","220","308764","0.0-1.0-291.0","0","0","34566","","10","","","75","32","k","","","","","","","","","","","","","","",""
"","S2","","html-keyboard-response","221","309022","0.0-1.0-292.0","0","0","34566","","null","","","null","32","","NaN","","","","","","","","","","","","","",""
"","response","","html-keyboard-response","222","309134","0.0-1.0-293.0","0","0","34566","","107","","","68","32","","","1","32","training","adjacent","BA","2","1","L.jpg","M.jpg","1","0","0","",""
"","feedback","","html-keyboard-response","223","310140","0.0-1.0-294.0-0.0","0","0","34566","","null","","","null","32","","","","","","","","","","","","","","","",""
"","time_out","","html-keyboard-response","224","312146","0.0-1.0-296.0-0.0","0","0","34566","","null","","","null","32","","","","","","","","","","","","","","","",""
"","ITI","","html-keyboard-response","225","313152","0.0-1.0-297.0","0","0","34566","","null","","","null","32","","","","","","","","","","","","","","","NaN",""
"","S1","","html-keyboard-response","226","313408","0.0-1.0-299.0","0","0","34566","","null","","","null","33","","","","","","","","","","","","","","","",""
"","ISI","","html-keyboard-response","227","315414","0.0-1.0-300.0","0","0","34566","","36","","","68","33","d","","","","","","","","","","","","","","",""
"","S2","","html-keyboard-response","228","315670","0.0-1.0-301.0","0","0","34566","","null","","","null","33","","NaN","","","","","","","","","","","","","",""
"","response","","html-keyboard-response","229","316029","0.0-1.0-302.0","0","0","34566","","353","","","75","33","","","1","33","training","adjacent","BA","2","1","L.jpg","M.jpg","0","0","1","",""
"","feedback","","html-keyboard-response","230","317035","0.0-1.0-303.0-0.0","0","0","34566","","null","","","null","33","","","","","","","","","","","","","","","",""
"","ITI","","html-keyboard-response","231","318043","0.0-1.0-306.0","0","0","34566","","null","","","null","33","","","","","","","","","","","","","","","NaN",""
"","S1","","html-keyboard-response","232","318300","0.0-1.0-308.0","0","0","34566","","null","","","null","34","","","","","","","","","","","","","","","",""
"","ISI","","html-keyboard-response","233","320308","0.0-1.0-309.0","0","0","34566","","null","","","null","34","NaN","","","","","","","","","","","","","","",""
"","S2","","html-keyboard-response","234","320566","0.0-1.0-310.0","0","0","34566","","null","","","null","34","","NaN","","","","","","","","","","","","","",""
"","response","","html-keyboard-response","235","320977","0.0-1.0-311.0","0","0","34566","","405","","","75","34","","","1","34","training","adjacent","EF","5","6","R.jpg","N.jpg","0","1","0","",""
"","feedback","","html-keyboard-response","236","321984","0.0-1.0-312.0-0.0","0","0","34566","","null","","","null","34","","","","","","","","","","","","","","","",""
"","time_out","","html-keyboard-response","237","323992","0.0-1.0-314.0-0.0","0","0","34566","","null","","","null","34","","","","","","","","","","","","","","","",""
"","ITI","","html-keyboard-response","238","324998","0.0-1.0-315.0","0","0","34566","","null","","","null","34","","","","","","","","","","","","","","","NaN",""
"","S1","","html-keyboard-response","239","325253","0.0-1.0-317.0","0","0","34566","","null","","","null","35","","","","","","","","","","","","","","","",""
"","ISI","","html-keyboard-response","240","327260","0.0-1.0-318.0","0","0","34566","","null","","","null","35","NaN","","","","","","","","","","","","","","",""
"","S2","","html-keyboard-response","241","327517","0.0-1.0-319.0","0","0","34566","","null","","","null","35","","NaN","","","","","","","","","","","","","",""
"","response","","html-keyboard-response","242","328001","0.0-1.0-320.0","0","0","34566","","480","","","68","35","","","1","35","training","adjacent","BC","2","3","L.jpg","Q.jpg","1","1","1","",""
"","feedback","","html-keyboard-response","243","329008","0.0-1.0-321.0-0.0","0","0","34566","","null","","","null","35","","","","","","","","","","","","","","","",""
"","ITI","","html-keyboard-response","244","330016","0.0-1.0-324.0","0","0","34566","","null","","","null","35","","","","","","","","","","","","","","","NaN",""
"","S1","","html-keyboard-response","245","330273","0.0-1.0-326.0","0","0","34566","","null","","","null","36","","","","","","","","","","","","","","","",""
"","ISI","","html-keyboard-response","246","332281","0.0-1.0-327.0","0","0","34566","","null","","","null","36","NaN","","","","","","","","","","","","","","",""
"","S2","","html-keyboard-response","247","332539","0.0-1.0-328.0","0","0","34566","","null","","","null","36","","NaN","","","","","","","","","","","","","",""
"","response","","html-keyboard-response","248","333497","0.0-1.0-329.0","0","0","34566","","952","","","68","36","","","1","36","training","adjacent","EF","5","6","R.jpg","N.jpg","1","1","1","",""
"","feedback","","html-keyboard-response","249","334504","0.0-1.0-330.0-0.0","0","0","34566","","null","","","null","36","","","","","","","","","","","","","","","",""
"","ITI","","html-keyboard-response","250","335510","0.0-1.0-333.0","0","0","34566","","null","","","null","36","","","","","","","","","","","","","","","NaN",""
"","S1","","html-keyboard-response","251","335767","0.0-1.0-335.0","0","0","34566","","null","","","null","37","","","","","","","","","","","","","","","",""
"","ISI","","html-keyboard-response","252","337772","0.0-1.0-336.0","0","0","34566","","null","","","null","37","NaN","","","","","","","","","","","","","","",""
"","S2","","html-keyboard-response","253","338030","0.0-1.0-337.0","0","0","34566","","null","","","null","37","","NaN","","","","","","","","","","","","","",""
"","response","","html-keyboard-response","254","338558","0.0-1.0-338.0","0","0","34566","","522","","","68","37","","","1","37","training","adjacent","DE","4","5","O.jpg","R.jpg","1","1","1","",""
"","feedback","","html-keyboard-response","255","339566","0.0-1.0-339.0-0.0","0","0","34566","","null","","","null","37","","","","","","","","","","","","","","","",""
"","ITI","","html-keyboard-response","256","340573","0.0-1.0-342.0","0","0","34566","","null","","","null","37","","","","","","","","","","","","","","","NaN",""
"","S1","","html-keyboard-response","257","340828","0.0-1.0-344.0","0","0","34566","","null","","","null","38","","","","","","","","","","","","","","","",""
"","ISI","","html-keyboard-response","258","342835","0.0-1.0-345.0","0","0","34566","","null","","","null","38","NaN","","","","","","","","","","","","","","",""
"","S2","","html-keyboard-response","259","343092","0.0-1.0-346.0","0","0","34566","","null","","","null","38","","NaN","","","","","","","","","","","","","",""
"","response","","html-keyboard-response","260","343464","0.0-1.0-347.0","0","0","34566","","365","","","68","38","","","1","38","training","adjacent","AB","1","2","M.jpg","L.jpg","1","1","1","",""
"","feedback","","html-keyboard-response","261","344470","0.0-1.0-348.0-0.0","0","0","34566","","null","","","null","38","","","","","","","","","","","","","","","",""
"","ITI","","html-keyboard-response","262","345476","0.0-1.0-351.0","0","0","34566","","null","","","null","38","","","","","","","","","","","","","","","NaN",""
"","S1","","html-keyboard-response","263","345733","0.0-1.0-353.0","0","0","34566","","null","","","null","39","","","","","","","","","","","","","","","",""
"","ISI","","html-keyboard-response","264","347739","0.0-1.0-354.0","0","0","34566","","null","","","null","39","NaN","","","","","","","","","","","","","","",""
"","S2","","html-keyboard-response","265","347996","0.0-1.0-355.0","0","0","34566","","null","","","null","39","","NaN","","","","","","","","","","","","","",""
"","response","","html-keyboard-response","266","348465","0.0-1.0-356.0","0","0","34566","","463","","","68","39","","","1","39","training","adjacent","FE","6","5","N.jpg","R.jpg","1","0","0","",""
"","feedback","","html-keyboard-response","267","349471","0.0-1.0-357.0-0.0","0","0","34566","","null","","","null","39","","","","","","","","","","","","","","","",""
"","time_out","","html-keyboard-response","268","351478","0.0-1.0-359.0-0.0","0","0","34566","","null","","","null","39","","","","","","","","","","","","","","","",""
"","ITI","","html-keyboard-response","269","352484","0.0-1.0-360.0","0","0","34566","","null","","","null","39","","","","","","","","","","","","","","","NaN",""
"","S1","","html-keyboard-response","270","352740","0.0-1.0-362.0","0","0","34566","","null","","","null","40","","","","","","","","","","","","","","","",""
"","ISI","","html-keyboard-response","271","354746","0.0-1.0-363.0","0","0","34566","","56","","","75","40","k","","","","","","","","","","","","","","",""
"","S2","","html-keyboard-response","272","355004","0.0-1.0-364.0","0","0","34566","","null","","","null","40","","NaN","","","","","","","","","","","","","",""
"","response","","html-keyboard-response","273","355936","0.0-1.0-365.0","0","0","34566","","928","","","75","40","","","1","40","training","adjacent","EF","5","6","R.jpg","N.jpg","0","1","0","",""
"","feedback","","html-keyboard-response","274","356945","0.0-1.0-366.0-0.0","0","0","34566","","null","","","null","40","","","","","","","","","","","","","","","",""
"","time_out","","html-keyboard-response","275","358951","0.0-1.0-368.0-0.0","0","0","34566","","null","","","null","40","","","","","","","","","","","","","","","",""
"","ITI","","html-keyboard-response","276","359957","0.0-1.0-369.0","0","0","34566","","null","","","null","40","","","","","","","","","","","","","","","NaN",""
"","S1","","html-keyboard-response","277","360214","0.0-1.0-371.0","0","0","34566","","null","","","null","41","","","","","","","","","","","","","","","",""
"","ISI","","html-keyboard-response","278","362219","0.0-1.0-372.0","0","0","34566","","null","","","null","41","NaN","","","","","","","","","","","","","","",""
"","S2","","html-keyboard-response","279","362476","0.0-1.0-373.0","0","0","34566","","null","","","null","41","","NaN","","","","","","","","","","","","","",""
"","response","","html-keyboard-response","280","362955","0.0-1.0-374.0","0","0","34566","","473","","","68","41","","","1","41","training","adjacent","ED","5","4","R.jpg","O.jpg","1","0","0","",""
"","feedback","","html-keyboard-response","281","363961","0.0-1.0-375.0-0.0","0","0","34566","","null","","","null","41","","","","","","","","","","","","","","","",""
"","time_out","","html-keyboard-response","282","365967","0.0-1.0-377.0-0.0","0","0","34566","","null","","","null","41","","","","","","","","","","","","","","","",""
"","ITI","","html-keyboard-response","283","366973","0.0-1.0-378.0","0","0","34566","","null","","","null","41","","","","","","","","","","","","","","","NaN",""
"","S1","","html-keyboard-response","284","367229","0.0-1.0-380.0","0","0","34566","","null","","","null","42","","","","","","","","","","","","","","","",""
"","ISI","","html-keyboard-response","285","369235","0.0-1.0-381.0","0","0","34566","","null","","","null","42","NaN","","","","","","","","","","","","","","",""
"","S2","","html-keyboard-response","286","369491","0.0-1.0-382.0","0","0","34566","","31","","","75","42","","k","","","","","","","","","","","","","",""
"","response","","html-keyboard-response","287","369696","0.0-1.0-383.0","0","0","34566","","198","","","75","42","","","1","42","training","adjacent","GF","7","6","P.jpg","N.jpg","0","0","1","",""
"","feedback","","html-keyboard-response","288","370704","0.0-1.0-384.0-0.0","0","0","34566","","null","","","null","42","","","","","","","","","","","","","","","",""
"","ITI","","html-keyboard-response","289","371710","0.0-1.0-387.0","0","0","34566","","null","","","null","42","","","","","","","","","","","","","","","NaN",""
"","S1","","html-keyboard-response","290","371967","0.0-1.0-389.0","0","0","34566","","null","","","null","43","","","","","","","","","","","","","","","",""
"","ISI","","html-keyboard-response","291","373973","0.0-1.0-390.0","0","0","34566","","null","","","null","43","NaN","","","","","","","","","","","","","","",""
"","S2","","html-keyboard-response","292","374232","0.0-1.0-391.0","0","0","34566","","null","","","null","43","","NaN","","","","","","","","","","","","","",""
"","response","","html-keyboard-response","293","374465","0.0-1.0-392.0","0","0","34566","","226","","","75","43","","","1","43","training","adjacent","FE","6","5","N.jpg","R.jpg","0","0","1","",""
"","feedback","","html-keyboard-response","294","375471","0.0-1.0-393.0-0.0","0","0","34566","","null","","","null","43","","","","","","","","","","","","","","","",""
"","ITI","","html-keyboard-response","295","376476","0.0-1.0-396.0","0","0","34566","","null","","","null","43","","","","","","","","","","","","","","","NaN",""
"","S1","","html-keyboard-response","296","376733","0.0-1.0-398.0","0","0","34566","","null","","","null","44","","","","","","","","","","","","","","","",""
"","ISI","","html-keyboard-response","297","378740","0.0-1.0-399.0","0","0","34566","","null","","","null","44","NaN","","","","","","","","","","","","","","",""
"","S2","","html-keyboard-response","298","378998","0.0-1.0-400.0","0","0","34566","","null","","","null","44","","NaN","","","","","","","","","","","","","",""
"","response","","html-keyboard-response","299","379371","0.0-1.0-401.0","0","0","34566","","365","","","68","44","","","1","44","training","adjacent","GF","7","6","P.jpg","N.jpg","1","0","0","",""
"","feedback","","html-keyboard-response","300","380377","0.0-1.0-402.0-0.0","0","0","34566","","null","","","null","44","","","","","","","","","","","","","","","",""
"","time_out","","html-keyboard-response","301","382384","0.0-1.0-404.0-0.0","0","0","34566","","null","","","null","44","","","","","","","","","","","","","","","",""
"","ITI","","html-keyboard-response","302","383394","0.0-1.0-405.0","0","0","34566","","null","","","null","44","","","","","","","","","","","","","","","NaN",""
"","S1","","html-keyboard-response","303","383651","0.0-1.0-407.0","0","0","34566","","null","","","null","45","","","","","","","","","","","","","","","",""
"","ISI","","html-keyboard-response","304","385656","0.0-1.0-408.0","0","0","34566","","null","","","null","45","NaN","","","","","","","","","","","","","","",""
"","S2","","html-keyboard-response","305","385913","0.0-1.0-409.0","0","0","34566","","null","","","null","45","","NaN","","","","","","","","","","","","","",""
"","response","","html-keyboard-response","306","387919","0.0-1.0-410.0","0","0","34566","","null","","","null","45","","","1","45","training","adjacent","CB","3","2","Q.jpg","L.jpg","NaN","0","0","",""
"","too_slow_prompt","","html-keyboard-response","307","388925","0.0-1.0-412.0-0.0","1","0","34566","","null","","","null","","","","","","","","","","","","","","","","",""
"","time_out","","html-keyboard-response","308","390931","0.0-1.0-413.0-0.0","0","0","34566","","null","","","null","45","","","","","","","","","","","","","","","",""
"","ITI","","html-keyboard-response","309","391936","0.0-1.0-414.0","0","0","34566","","null","","","null","45","","","","","","","","","","","","","","","NaN",""
"","S1","","html-keyboard-response","310","392193","0.0-1.0-416.0","0","0","34566","","null","","","null","46","","","","","","","","","","","","","","","",""
"","ISI","","html-keyboard-response","311","394200","0.0-1.0-417.0","0","0","34566","","null","","","null","46","NaN","","","","","","","","","","","","","","",""
"","S2","","html-keyboard-response","312","394457","0.0-1.0-418.0","0","0","34566","","null","","","null","46","","NaN","","","","","","","","","","","","","",""
"","response","","html-keyboard-response","313","396464","0.0-1.0-419.0","0","0","34566","","null","","","null","46","","","1","46","training","adjacent","CD","3","4","Q.jpg","O.jpg","NaN","1","0","",""
"","too_slow_prompt","","html-keyboard-response","314","397469","0.0-1.0-421.0-0.0","1","0","34566","","null","","","null","","","","","","","","","","","","","","","","",""
"","time_out","","html-keyboard-response","315","399476","0.0-1.0-422.0-0.0","0","0","34566","","null","","","null","46","","","","","","","","","","","","","","","",""
"","ITI","","html-keyboard-response","316","400482","0.0-1.0-423.0","0","0","34566","","null","","","null","46","","","","","","","","","","","","","","","NaN",""
"","S1","","html-keyboard-response","317","400740","0.0-1.0-425.0","0","0","34566","","null","","","null","47","","","","","","","","","","","","","","","",""
"","ISI","","html-keyboard-response","318","402746","0.0-1.0-426.0","0","0","34566","","null","","","null","47","NaN","","","","","","","","","","","","","","",""
"","S2","","html-keyboard-response","319","403002","0.0-1.0-427.0","0","0","34566","","null","","","null","47","","NaN","","","","","","","","","","","","","",""
"","response","","html-keyboard-response","320","403020","0.0-1.0-428.0","0","0","34566","","12","","","68","47","","","1","47","training","adjacent","AB","1","2","M.jpg","L.jpg","1","1","1","",""
"","feedback","","html-keyboard-response","321","404027","0.0-1.0-429.0-0.0","0","0","34566","","null","","","null","47","","","","","","","","","","","","","","","",""
"","ITI","","html-keyboard-response","322","405033","0.0-1.0-432.0","0","0","34566","","null","","","null","47","","","","","","","","","","","","","","","NaN",""
"","block_over","","html-keyboard-response","323","443291","0.0-1.0-433.0-0.0","0","0","34566","","38249","","","32","47","","","","","","","","","","","","","","","",""
"","S1","","html-keyboard-response","324","443547","0.0-1.0-434.0","0","0","34566","","null","","","null","48","","","","","","","","","","","","","","","",""
"","ISI","","html-keyboard-response","325","445555","0.0-1.0-435.0","0","0","34566","","null","","","null","48","NaN","","","","","","","","","","","","","","",""
"","S2","","html-keyboard-response","326","445810","0.0-1.0-436.0","0","0","34566","","null","","","null","48","","NaN","","","","","","","","","","","","","",""
"","response","","html-keyboard-response","327","446327","0.0-1.0-437.0","0","0","34566","","511","","","68","48","","","2","48","training","adjacent","GF","7","6","P.jpg","N.jpg","1","0","0","",""
"","feedback","","html-keyboard-response","328","447336","0.0-1.0-438.0-0.0","0","0","34566","","null","","","null","48","","","","","","","","","","","","","","","",""
"","time_out","","html-keyboard-response","329","449343","0.0-1.0-440.0-0.0","0","0","34566","","null","","","null","48","","","","","","","","","","","","","","","",""
"","ITI","","html-keyboard-response","330","450349","0.0-1.0-441.0","0","0","34566","","null","","","null","48","","","","","","","","","","","","","","","NaN",""
"","S1","","html-keyboard-response","331","450604","0.0-1.0-443.0","0","0","34566","","null","","","null","49","","","","","","","","","","","","","","","",""
"","ISI","","html-keyboard-response","332","452611","0.0-1.0-444.0","0","0","34566","","null","","","null","49","NaN","","","","","","","","","","","","","","",""
"","S2","","html-keyboard-response","333","452869","0.0-1.0-445.0","0","0","34566","","null","","","null","49","","NaN","","","","","","","","","","","","","",""
"","response","","html-keyboard-response","334","452967","0.0-1.0-446.0","0","0","34566","","91","","","75","49","","","2","49","training","adjacent","EF","5","6","R.jpg","N.jpg","0","1","0","",""
"","feedback","","html-keyboard-response","335","453975","0.0-1.0-447.0-0.0","0","0","34566","","null","","","null","49","","","","","","","","","","","","","","","",""
"","time_out","","html-keyboard-response","336","455981","0.0-1.0-449.0-0.0","0","0","34566","","null","","","null","49","","","","","","","","","","","","","","","",""
"","ITI","","html-keyboard-response","337","456986","0.0-1.0-450.0","0","0","34566","","null","","","null","49","","","","","","","","","","","","","","","NaN",""
"","S1","","html-keyboard-response","338","457244","0.0-1.0-452.0","0","0","34566","","null","","","null","50","","","","","","","","","","","","","","","",""
"","ISI","","html-keyboard-response","339","459249","0.0-1.0-453.0","0","0","34566","","132","","","75","50","k","","","","","","","","","","","","","","",""
"","S2","","html-keyboard-response","340","459506","0.0-1.0-454.0","0","0","34566","","null","","","null","50","","NaN","","","","","","","","","","","","","",""
"","response","","html-keyboard-response","341","459532","0.0-1.0-455.0","0","0","34566","","18","","","75","50","","","2","50","training","adjacent","FE","6","5","N.jpg","R.jpg","0","0","1","",""
"","feedback","","html-keyboard-response","342","460539","0.0-1.0-456.0-0.0","0","0","34566","","null","","","null","50","","","","","","","","","","","","","","","",""
"","ITI","","html-keyboard-response","343","461548","0.0-1.0-459.0","0","0","34566","","null","","","null","50","","","","","","","","","","","","","","","NaN",""
"","S1","","html-keyboard-response","344","461804","0.0-1.0-461.0","0","0","34566","","null","","","null","51","","","","","","","","","","","","","","","",""
"","ISI","","html-keyboard-response","345","463810","0.0-1.0-462.0","0","0","34566","","null","","","null","51","NaN","","","","","","","","","","","","","","",""
"","S2","","html-keyboard-response","346","464067","0.0-1.0-463.0","0","0","34566","","null","","","null","51","","NaN","","","","","","","","","","","","","",""
"","response","","html-keyboard-response","347","464722","0.0-1.0-464.0","0","0","34566","","649","","","75","51","","","2","51","training","adjacent","FG","6","7","N.jpg","P.jpg","0","1","0","",""
"","feedback","","html-keyboard-response","348","465731","0.0-1.0-465.0-0.0","0","0","34566","","null","","","null","51","","","","","","","","","","","","","","","",""
"","time_out","","html-keyboard-response","349","467737","0.0-1.0-467.0-0.0","0","0","34566","","null","","","null","51","","","","","","","","","","","","","","","",""
"","ITI","","html-keyboard-response","350","468743","0.0-1.0-468.0","0","0","34566","","null","","","null","51","","","","","","","","","","","","","","","NaN",""
"","S1","","html-keyboard-response","351","468999","0.0-1.0-470.0","0","0","34566","","null","","","null","52","","","","","","","","","","","","","","","",""
"","ISI","","html-keyboard-response","352","471007","0.0-1.0-471.0","0","0","34566","","21","","","83","52","s","","","","","","","","","","","","","","",""
"","S2","","html-keyboard-response","353","471264","0.0-1.0-472.0","0","0","34566","","null","","","null","52","","NaN","","","","","","","","","","","","","",""
"","response","","html-keyboard-response","354","471826","0.0-1.0-473.0","0","0","34566","","557","","","75","52","","","2","52","training","adjacent","AB","1","2","M.jpg","L.jpg","0","1","0","",""
"","feedback","","html-keyboard-response","355","472833","0.0-1.0-474.0-0.0","0","0","34566","","null","","","null","52","","","","","","","","","","","","","","","",""
"","time_out","","html-keyboard-response","356","474839","0.0-1.0-476.0-0.0","0","0","34566","","null","","","null","52","","","","","","","","","","","","","","","",""
"","ITI","","html-keyboard-response","357","475844","0.0-1.0-477.0","0","0","34566","","null","","","null","52","","","","","","","","","","","","","","","NaN",""
"","S1","","html-keyboard-response","358","476100","0.0-1.0-479.0","0","0","34566","","null","","","null","53","","","","","","","","","","","","","","","",""
"","ISI","","html-keyboard-response","359","478106","0.0-1.0-480.0","0","0","34566","","null","","","null","53","NaN","","","","","","","","","","","","","","",""
"","S2","","html-keyboard-response","360","478362","0.0-1.0-481.0","0","0","34566","","null","","","null","53","","NaN","","","","","","","","","","","","","",""
"","response","","html-keyboard-response","361","479935","0.0-1.0-482.0","0","0","34566","","1567","","","68","53","","","2","53","training","adjacent","AB","1","2","M.jpg","L.jpg","1","1","1","",""
"","feedback","","html-keyboard-response","362","480943","0.0-1.0-483.0-0.0","0","0","34566","","null","","","null","53","","","","","","","","","","","","","","","",""
"","ITI","","html-keyboard-response","363","481950","0.0-1.0-486.0","0","0","34566","","null","","","null","53","","","","","","","","","","","","","","","NaN",""
"","S1","","html-keyboard-response","364","482206","0.0-1.0-488.0","0","0","34566","","null","","","null","54","","","","","","","","","","","","","","","",""
"","ISI","","html-keyboard-response","365","484212","0.0-1.0-489.0","0","0","34566","","514","","","68","54","d","","","","","","","","","","","","","","",""
"","S2","","html-keyboard-response","366","484468","0.0-1.0-490.0","0","0","34566","","null","","","null","54","","NaN","","","","","","","","","","","","","",""
"","response","","html-keyboard-response","367","485072","0.0-1.0-491.0","0","0","34566","","599","","","75","54","","","2","54","training","adjacent","FE","6","5","N.jpg","R.jpg","0","0","1","",""
"","feedback","","html-keyboard-response","368","486080","0.0-1.0-492.0-0.0","0","0","34566","","null","","","null","54","","","","","","","","","","","","","","","",""
"","ITI","","html-keyboard-response","369","487086","0.0-1.0-495.0","0","0","34566","","null","","","null","54","","","","","","","","","","","","","","","NaN",""
"","S1","","html-keyboard-response","370","487343","0.0-1.0-497.0","0","0","34566","","null","","","null","55","","","","","","","","","","","","","","","",""
"","ISI","","html-keyboard-response","371","489350","0.0-1.0-498.0","0","0","34566","","null","","","null","55","NaN","","","","","","","","","","","","","","",""
"","S2","","html-keyboard-response","372","489607","0.0-1.0-499.0","0","0","34566","","null","","","null","55","","NaN","","","","","","","","","","","","","",""
"","response","","html-keyboard-response","373","490280","0.0-1.0-500.0","0","0","34566","","667","","","75","55","","","2","55","training","adjacent","FE","6","5","N.jpg","R.jpg","0","0","1","",""
"","feedback","","html-keyboard-response","374","491287","0.0-1.0-501.0-0.0","0","0","34566","","null","","","null","55","","","","","","","","","","","","","","","",""
"","ITI","","html-keyboard-response","375","492293","0.0-1.0-504.0","0","0","34566","","null","","","null","55","","","","","","","","","","","","","","","NaN",""
"","S1","","html-keyboard-response","376","492551","0.0-1.0-506.0","0","0","34566","","null","","","null","56","","","","","","","","","","","","","","","",""
"","ISI","","html-keyboard-response","377","494556","0.0-1.0-507.0","0","0","34566","","null","","","null","56","NaN","","","","","","","","","","","","","","",""
"","S2","","html-keyboard-response","378","494814","0.0-1.0-508.0","0","0","34566","","null","","","null","56","","NaN","","","","","","","","","","","","","",""
"","response","","html-keyboard-response","379","495231","0.0-1.0-509.0","0","0","34566","","412","","","75","56","","","2","56","training","adjacent","DE","4","5","O.jpg","R.jpg","0","1","0","",""
"","feedback","","html-keyboard-response","380","496239","0.0-1.0-510.0-0.0","0","0","34566","","null","","","null","56","","","","","","","","","","","","","","","",""
"","time_out","","html-keyboard-response","381","498245","0.0-1.0-512.0-0.0","0","0","34566","","null","","","null","56","","","","","","","","","","","","","","","",""
"","ITI","","html-keyboard-response","382","499253","0.0-1.0-513.0","0","0","34566","","null","","","null","56","","","","","","","","","","","","","","","NaN",""
"","S1","","html-keyboard-response","383","499510","0.0-1.0-515.0","0","0","34566","","null","","","null","57","","","","","","","","","","","","","","","",""
"","ISI","","html-keyboard-response","384","501515","0.0-1.0-516.0","0","0","34566","","null","","","null","57","NaN","","","","","","","","","","","","","","",""
"","S2","","html-keyboard-response","385","501771","0.0-1.0-517.0","0","0","34566","","null","","","null","57","","NaN","","","","","","","","","","","","","",""
"","response","","html-keyboard-response","386","502405","0.0-1.0-518.0","0","0","34566","","628","","","75","57","","","2","57","training","adjacent","FG","6","7","N.jpg","P.jpg","0","1","0","",""
"","feedback","","html-keyboard-response","387","503412","0.0-1.0-519.0-0.0","0","0","34566","","null","","","null","57","","","","","","","","","","","","","","","",""
"","time_out","","html-keyboard-response","388","505420","0.0-1.0-521.0-0.0","0","0","34566","","null","","","null","57","","","","","","","","","","","","","","","",""
"","ITI","","html-keyboard-response","389","506426","0.0-1.0-522.0","0","0","34566","","null","","","null","57","","","","","","","","","","","","","","","NaN",""
"","S1","","html-keyboard-response","390","506682","0.0-1.0-524.0","0","0","34566","","null","","","null","58","","","","","","","","","","","","","","","",""
"","ISI","","html-keyboard-response","391","508689","0.0-1.0-525.0","0","0","34566","","null","","","null","58","NaN","","","","","","","","","","","","","","",""
"","S2","","html-keyboard-response","392","508947","0.0-1.0-526.0","0","0","34566","","null","","","null","58","","NaN","","","","","","","","","","","","","",""
"","response","","html-keyboard-response","393","509473","0.0-1.0-527.0","0","0","34566","","520","","","68","58","","","2","58","training","adjacent","EF","5","6","R.jpg","N.jpg","1","1","1","",""
"","feedback","","html-keyboard-response","394","510481","0.0-1.0-528.0-0.0","0","0","34566","","null","","","null","58","","","","","","","","","","","","","","","",""
"","ITI","","html-keyboard-response","395","511488","0.0-1.0-531.0","0","0","34566","","null","","","null","58","","","","","","","","","","","","","","","NaN",""
"","S1","","html-keyboard-response","396","511745","0.0-1.0-533.0","0","0","34566","","null","","","null","59","","","","","","","","","","","","","","","",""
"","ISI","","html-keyboard-response","397","513750","0.0-1.0-534.0","0","0","34566","","null","","","null","59","NaN","","","","","","","","","","","","","","",""
"","S2","","html-keyboard-response","398","514007","0.0-1.0-535.0","0","0","34566","","null","","","null","59","","NaN","","","","","","","","","","","","","",""
"","response","","html-keyboard-response","399","514558","0.0-1.0-536.0","0","0","34566","","545","","","75","59","","","2","59","training","adjacent","CD","3","4","Q.jpg","O.jpg","0","1","0","",""
"","feedback","","html-keyboard-response","400","515566","0.0-1.0-537.0-0.0","0","0","34566","","null","","","null","59","","","","","","","","","","","","","","","",""
"","time_out","","html-keyboard-response","401","517572","0.0-1.0-539.0-0.0","0","0","34566","","null","","","null","59","","","","","","","","","","","","","","","",""
"","ITI","","html-keyboard-response","402","518578","0.0-1.0-540.0","0","0","34566","","null","","","null","59","","","","","","","","","","","","","","","NaN",""
"","S1","","html-keyboard-response","403","518835","0.0-1.0-542.0","0","0","34566","","null","","","null","60","","","","","","","","","","","","","","","",""
"","ISI","","html-keyboard-response","404","520840","0.0-1.0-543.0","0","0","34566","","null","","","null","60","NaN","","","","","","","","","","","","","","",""
"","S2","","html-keyboard-response","405","521097","0.0-1.0-544.0","0","0","34566","","null","","","null","60","","NaN","","","","","","","","","","","","","",""
"","response","","html-keyboard-response","406","521522","0.0-1.0-545.0","0","0","34566","","419","","","68","60","","","2","60","training","adjacent","BC","2","3","L.jpg","Q.jpg","1","1","1","",""
"","feedback","","html-keyboard-response","407","522530","0.0-1.0-546.0-0.0","0","0","34566","","null","","","null","60","","","","","","","","","","","","","","","",""
"","ITI","","html-keyboard-response","408","523536","0.0-1.0-549.0","0","0","34566","","null","","","null","60","","","","","","","","","","","","","","","NaN",""
"","S1","","html-keyboard-response","409","523793","0.0-1.0-551.0","0","0","34566","","null","","","null","61","","","","","","","","","","","","","","","",""
"","ISI","","html-keyboard-response","410","525799","0.0-1.0-552.0","0","0","34566","","null","","","null","61","NaN","","","","","","","","","","","","","","",""
"","S2","","html-keyboard-response","411","526055","0.0-1.0-553.0","0","0","34566","","null","","","null","61","","NaN","","","","","","","","","","","","","",""
"","response","","html-keyboard-response","412","526936","0.0-1.0-554.0","0","0","34566","","873","","","75","61","","","2","61","training","adjacent","FG","6","7","N.jpg","P.jpg","0","1","0","",""
"","feedback","","html-keyboard-response","413","527943","0.0-1.0-555.0-0.0","0","0","34566","","null","","","null","61","","","","","","","","","","","","","","","",""
"","time_out","","html-keyboard-response","414","529950","0.0-1.0-557.0-0.0","0","0","34566","","null","","","null","61","","","","","","","","","","","","","","","",""
"","ITI","","html-keyboard-response","415","530956","0.0-1.0-558.0","0","0","34566","","null","","","null","61","","","","","","","","","","","","","","","NaN",""
"","S1","","html-keyboard-response","416","531212","0.0-1.0-560.0","0","0","34566","","null","","","null","62","","","","","","","","","","","","","","","",""
"","ISI","","html-keyboard-response","417","533219","0.0-1.0-561.0","0","0","34566","","null","","","null","62","NaN","","","","","","","","","","","","","","",""
"","S2","","html-keyboard-response","418","533476","0.0-1.0-562.0","0","0","34566","","230","","","75","62","","k","","","","","","","","","","","","","",""
"","response","","html-keyboard-response","419","534055","0.0-1.0-563.0","0","0","34566","","570","","","75","62","","","2","62","training","adjacent","DC","4","3","O.jpg","Q.jpg","0","0","1","",""
"","feedback","","html-keyboard-response","420","535062","0.0-1.0-564.0-0.0","0","0","34566","","null","","","null","62","","","","","","","","","","","","","","","",""
"","ITI","","html-keyboard-response","421","536067","0.0-1.0-567.0","0","0","34566","","null","","","null","62","","","","","","","","","","","","","","","NaN",""
"","S1","","html-keyboard-response","422","536325","0.0-1.0-569.0","0","0","34566","","null","","","null","63","","","","","","","","","","","","","","","",""
"","ISI","","html-keyboard-response","423","538331","0.0-1.0-570.0","0","0","34566","","null","","","null","63","NaN","","","","","","","","","","","","","","",""
"","S2","","html-keyboard-response","424","538590","0.0-1.0-571.0","0","0","34566","","null","","","null","63","","NaN","","","","","","","","","","","","","",""
"","response","","html-keyboard-response","425","539419","0.0-1.0-572.0","0","0","34566","","823","","","75","63","","","2","63","training","adjacent","GF","7","6","P.jpg","N.jpg","0","0","1","",""
"","feedback","","html-keyboard-response","426","540426","0.0-1.0-573.0-0.0","0","0","34566","","null","","","null","63","","","","","","","","","","","","","","","",""
"","ITI","","html-keyboard-response","427","541433","0.0-1.0-576.0","0","0","34566","","null","","","null","63","","","","","","","","","","","","","","","NaN",""
"","S1","","html-keyboard-response","428","541691","0.0-1.0-578.0","0","0","34566","","null","","","null","64","","","","","","","","","","","","","","","",""
"","ISI","","html-keyboard-response","429","543701","0.0-1.0-579.0","0","0","34566","","null","","","null","64","NaN","","","","","","","","","","","","","","",""
"","S2","","html-keyboard-response","430","543958","0.0-1.0-580.0","0","0","34566","","null","","","null","64","","NaN","","","","","","","","","","","","","",""
"","response","","html-keyboard-response","431","545034","0.0-1.0-581.0","0","0","34566","","1071","","","68","64","","","2","64","training","adjacent","GF","7","6","P.jpg","N.jpg","1","0","0","",""
"","feedback","","html-keyboard-response","432","546042","0.0-1.0-582.0-0.0","0","0","34566","","null","","","null","64","","","","","","","","","","","","","","","",""
"","time_out","","html-keyboard-response","433","548049","0.0-1.0-584.0-0.0","0","0","34566","","null","","","null","64","","","","","","","","","","","","","","","",""
"","ITI","","html-keyboard-response","434","549054","0.0-1.0-585.0","0","0","34566","","null","","","null","64","","","","","","","","","","","","","","","NaN",""
"","S1","","html-keyboard-response","435","549311","0.0-1.0-587.0","0","0","34566","","null","","","null","65","","","","","","","","","","","","","","","",""
"","ISI","","html-keyboard-response","436","551318","0.0-1.0-588.0","0","0","34566","","null","","","null","65","NaN","","","","","","","","","","","","","","",""
"","S2","","html-keyboard-response","437","551575","0.0-1.0-589.0","0","0","34566","","null","","","null","65","","NaN","","","","","","","","","","","","","",""
"","response","","html-keyboard-response","438","551938","0.0-1.0-590.0","0","0","34566","","357","","","68","65","","","2","65","training","adjacent","ED","5","4","R.jpg","O.jpg","1","0","0","",""
"","feedback","","html-keyboard-response","439","552946","0.0-1.0-591.0-0.0","0","0","34566","","null","","","null","65","","","","","","","","","","","","","","","",""
"","time_out","","html-keyboard-response","440","554951","0.0-1.0-593.0-0.0","0","0","34566","","null","","","null","65","","","","","","","","","","","","","","","",""
"","ITI","","html-keyboard-response","441","555957","0.0-1.0-594.0","0","0","34566","","null","","","null","65","","","","","","","","","","","","","","","NaN",""
"","S1","","html-keyboard-response","442","556213","0.0-1.0-596.0","0","0","34566","","null","","","null","66","","","","","","","","","","","","","","","",""
"","ISI","","html-keyboard-response","443","558220","0.0-1.0-597.0","0","0","34566","","null","","","null","66","NaN","","","","","","","","","","","","","","",""
"","S2","","html-keyboard-response","444","558479","0.0-1.0-598.0","0","0","34566","","null","","","null","66","","NaN","","","","","","","","","","","","","",""
"","response","","html-keyboard-response","445","558502","0.0-1.0-599.0","0","0","34566","","17","","","75","66","","","2","66","training","adjacent","DE","4","5","O.jpg","R.jpg","0","1","0","",""
"","feedback","","html-keyboard-response","446","559511","0.0-1.0-600.0-0.0","0","0","34566","","null","","","null","66","","","","","","","","","","","","","","","",""
"","time_out","","html-keyboard-response","447","561519","0.0-1.0-602.0-0.0","0","0","34566","","null","","","null","66","","","","","","","","","","","","","","","",""
"","ITI","","html-keyboard-response","448","562527","0.0-1.0-603.0","0","0","34566","","null","","","null","66","","","","","","","","","","","","","","","NaN",""
"","S1","","html-keyboard-response","449","562787","0.0-1.0-605.0","0","0","34566","","null","","","null","67","","","","","","","","","","","","","","","",""
"","ISI","","html-keyboard-response","450","564792","0.0-1.0-606.0","0","0","34566","","null","","","null","67","NaN","","","","","","","","","","","","","","",""
"","S2","","html-keyboard-response","451","565049","0.0-1.0-607.0","0","0","34566","","null","","","null","67","","NaN","","","","","","","","","","","","","",""
"","response","","html-keyboard-response","452","565894","0.0-1.0-608.0","0","0","34566","","840","","","68","67","","","2","67","training","adjacent","BC","2","3","L.jpg","Q.jpg","1","1","1","",""
"","feedback","","html-keyboard-response","453","566903","0.0-1.0-609.0-0.0","0","0","34566","","null","","","null","67","","","","","","","","","","","","","","","",""
"","ITI","","html-keyboard-response","454","567909","0.0-1.0-612.0","0","0","34566","","null","","","null","67","","","","","","","","","","","","","","","NaN",""
"","S1","","html-keyboard-response","455","568167","0.0-1.0-614.0","0","0","34566","","null","","","null","68","","","","","","","","","","","","","","","",""
"","ISI","","html-keyboard-response","456","570173","0.0-1.0-615.0","0","0","34566","","null","","","null","68","NaN","","","","","","","","","","","","","","",""
"","S2","","html-keyboard-response","457","570430","0.0-1.0-616.0","0","0","34566","","null","","","null","68","","NaN","","","","","","","","","","","","","",""
"","response","","html-keyboard-response","458","570436","0.0-1.0-617.0","0","0","34566","","1","","","75","68","","","2","68","training","adjacent","DC","4","3","O.jpg","Q.jpg","0","0","1","",""
"","feedback","","html-keyboard-response","459","571443","0.0-1.0-618.0-0.0","0","0","34566","","null","","","null","68","","","","","","","","","","","","","","","",""
"","ITI","","html-keyboard-response","460","572451","0.0-1.0-621.0","0","0","34566","","null","","","null","68","","","","","","","","","","","","","","","NaN",""
"","S1","","html-keyboard-response","461","572707","0.0-1.0-623.0","0","0","34566","","null","","","null","69","","","","","","","","","","","","","","","",""
"","ISI","","html-keyboard-response","462","574714","0.0-1.0-624.0","0","0","34566","","null","","","null","69","NaN","","","","","","","","","","","","","","",""
"","S2","","html-keyboard-response","463","574973","0.0-1.0-625.0","0","0","34566","","null","","","null","69","","NaN","","","","","","","","","","","","","",""
"","response","","html-keyboard-response","464","575532","0.0-1.0-626.0","0","0","34566","","552","","","75","69","","","2","69","training","adjacent","CD","3","4","Q.jpg","O.jpg","0","1","0","",""
"","feedback","","html-keyboard-response","465","576538","0.0-1.0-627.0-0.0","0","0","34566","","null","","","null","69","","","","","","","","","","","","","","","",""
"","time_out","","html-keyboard-response","466","578543","0.0-1.0-629.0-0.0","0","0","34566","","null","","","null","69","","","","","","","","","","","","","","","",""
"","ITI","","html-keyboard-response","467","579551","0.0-1.0-630.0","0","0","34566","","null","","","null","69","","","","","","","","","","","","","","","NaN",""
"","S1","","html-keyboard-response","468","579807","0.0-1.0-632.0","0","0","34566","","null","","","null","70","","","","","","","","","","","","","","","",""
"","ISI","","html-keyboard-response","469","581814","0.0-1.0-633.0","0","0","34566","","null","","","null","70","NaN","","","","","","","","","","","","","","",""
"","S2","","html-keyboard-response","470","582072","0.0-1.0-634.0","0","0","34566","","null","","","null","70","","NaN","","","","","","","","","","","","","",""
"","response","","html-keyboard-response","471","582105","0.0-1.0-635.0","0","0","34566","","27","","","75","70","","","2","70","training","adjacent","DC","4","3","O.jpg","Q.jpg","0","0","1","",""
"","feedback","","html-keyboard-response","472","583113","0.0-1.0-636.0-0.0","0","0","34566","","null","","","null","70","","","","","","","","","","","","","","","",""
"","ITI","","html-keyboard-response","473","584120","0.0-1.0-639.0","0","0","34566","","null","","","null","70","","","","","","","","","","","","","","","NaN",""
"","S1","","html-keyboard-response","474","584376","0.0-1.0-641.0","0","0","34566","","null","","","null","71","","","","","","","","","","","","","","","",""
"","ISI","","html-keyboard-response","475","586382","0.0-1.0-642.0","0","0","34566","","null","","","null","71","NaN","","","","","","","","","","","","","","",""
"","S2","","html-keyboard-response","476","586639","0.0-1.0-643.0","0","0","34566","","null","","","null","71","","NaN","","","","","","","","","","","","","",""
"","response","","html-keyboard-response","477","587778","0.0-1.0-644.0","0","0","34566","","1132","","","75","71","","","2","71","training","adjacent","ED","5","4","R.jpg","O.jpg","0","0","1","",""
"","feedback","","html-keyboard-response","478","588785","0.0-1.0-645.0-0.0","0","0","34566","","null","","","null","71","","","","","","","","","","","","","","","",""
"","ITI","","html-keyboard-response","479","589790","0.0-1.0-648.0","0","0","34566","","null","","","null","71","","","","","","","","","","","","","","","NaN",""
"","S1","","html-keyboard-response","480","590047","0.0-1.0-650.0","0","0","34566","","null","","","null","72","","","","","","","","","","","","","","","",""
"","ISI","","html-keyboard-response","481","592054","0.0-1.0-651.0","0","0","34566","","null","","","null","72","NaN","","","","","","","","","","","","","","",""
"","S2","","html-keyboard-response","482","592310","0.0-1.0-652.0","0","0","34566","","null","","","null","72","","NaN","","","","","","","","","","","","","",""
"","response","","html-keyboard-response","483","593365","0.0-1.0-653.0","0","0","34566","","1049","","","68","72","","","2","72","training","adjacent","CD","3","4","Q.jpg","O.jpg","1","1","1","",""
"","feedback","","html-keyboard-response","484","594373","0.0-1.0-654.0-0.0","0","0","34566","","null","","","null","72","","","","","","","","","","","","","","","",""
"","ITI","","html-keyboard-response","485","595380","0.0-1.0-657.0","0","0","34566","","null","","","null","72","","","","","","","","","","","","","","","NaN",""
"","S1","","html-keyboard-response","486","595639","0.0-1.0-659.0","0","0","34566","","null","","","null","73","","","","","","","","","","","","","","","",""
"","ISI","","html-keyboard-response","487","597646","0.0-1.0-660.0","0","0","34566","","null","","","null","73","NaN","","","","","","","","","","","","","","",""
"","S2","","html-keyboard-response","488","597903","0.0-1.0-661.0","0","0","34566","","null","","","null","73","","NaN","","","","","","","","","","","","","",""
"","response","","html-keyboard-response","489","598770","0.0-1.0-662.0","0","0","34566","","861","","","75","73","","","2","73","training","adjacent","ED","5","4","R.jpg","O.jpg","0","0","1","",""
"","feedback","","html-keyboard-response","490","599776","0.0-1.0-663.0-0.0","0","0","34566","","null","","","null","73","","","","","","","","","","","","","","","",""
"","ITI","","html-keyboard-response","491","600782","0.0-1.0-666.0","0","0","34566","","null","","","null","73","","","","","","","","","","","","","","","NaN",""
"","S1","","html-keyboard-response","492","601038","0.0-1.0-668.0","0","0","34566","","null","","","null","74","","","","","","","","","","","","","","","",""
"","ISI","","html-keyboard-response","493","603047","0.0-1.0-669.0","0","0","34566","","null","","","null","74","NaN","","","","","","","","","","","","","","",""
"","S2","","html-keyboard-response","494","603305","0.0-1.0-670.0","0","0","34566","","null","","","null","74","","NaN","","","","","","","","","","","","","",""
"","response","","html-keyboard-response","495","604084","0.0-1.0-671.0","0","0","34566","","774","","","68","74","","","2","74","training","adjacent","AB","1","2","M.jpg","L.jpg","1","1","1","",""
"","feedback","","html-keyboard-response","496","605092","0.0-1.0-672.0-0.0","0","0","34566","","null","","","null","74","","","","","","","","","","","","","","","",""
"","ITI","","html-keyboard-response","497","606099","0.0-1.0-675.0","0","0","34566","","null","","","null","74","","","","","","","","","","","","","","","NaN",""
"","S1","","html-keyboard-response","498","606357","0.0-1.0-677.0","0","0","34566","","null","","","null","75","","","","","","","","","","","","","","","",""
"","ISI","","html-keyboard-response","499","608366","0.0-1.0-678.0","0","0","34566","","null","","","null","75","NaN","","","","","","","","","","","","","","",""
"","S2","","html-keyboard-response","500","608623","0.0-1.0-679.0","0","0","34566","","null","","","null","75","","NaN","","","","","","","","","","","","","",""
"","response","","html-keyboard-response","501","609254","0.0-1.0-680.0","0","0","34566","","623","","","68","75","","","2","75","training","adjacent","BA","2","1","L.jpg","M.jpg","1","0","0","",""
"","feedback","","html-keyboard-response","502","610261","0.0-1.0-681.0-0.0","0","0","34566","","null","","","null","75","","","","","","","","","","","","","","","",""
"","time_out","","html-keyboard-response","503","612269","0.0-1.0-683.0-0.0","0","0","34566","","null","","","null","75","","","","","","","","","","","","","","","",""
"","ITI","","html-keyboard-response","504","613275","0.0-1.0-684.0","0","0","34566","","null","","","null","75","","","","","","","","","","","","","","","NaN",""
"","S1","","html-keyboard-response","505","613532","0.0-1.0-686.0","0","0","34566","","null","","","null","76","","","","","","","","","","","","","","","",""
"","ISI","","html-keyboard-response","506","615539","0.0-1.0-687.0","0","0","34566","","null","","","null","76","NaN","","","","","","","","","","","","","","",""
"","S2","","html-keyboard-response","507","615796","0.0-1.0-688.0","0","0","34566","","null","","","null","76","","NaN","","","","","","","","","","","","","",""
"","response","","html-keyboard-response","508","617242","0.0-1.0-689.0","0","0","34566","","1441","","","68","76","","","2","76","training","adjacent","DC","4","3","O.jpg","Q.jpg","1","0","0","",""
"","feedback","","html-keyboard-response","509","618250","0.0-1.0-690.0-0.0","0","0","34566","","null","","","null","76","","","","","","","","","","","","","","","",""
"","time_out","","html-keyboard-response","510","620257","0.0-1.0-692.0-0.0","0","0","34566","","null","","","null","76","","","","","","","","","","","","","","","",""
"","ITI","","html-keyboard-response","511","621263","0.0-1.0-693.0","0","0","34566","","null","","","null","76","","","","","","","","","","","","","","","NaN",""
"","S1","","html-keyboard-response","512","621521","0.0-1.0-695.0","0","0","34566","","null","","","null","77","","","","","","","","","","","","","","","",""
"","ISI","","html-keyboard-response","513","623526","0.0-1.0-696.0","0","0","34566","","null","","","null","77","NaN","","","","","","","","","","","","","","",""
"","S2","","html-keyboard-response","514","623782","0.0-1.0-697.0","0","0","34566","","null","","","null","77","","NaN","","","","","","","","","","","","","",""
"","response","","html-keyboard-response","515","624683","0.0-1.0-698.0","0","0","34566","","895","","","75","77","","","2","77","training","adjacent","BC","2","3","L.jpg","Q.jpg","0","1","0","",""
"","feedback","","html-keyboard-response","516","625689","0.0-1.0-699.0-0.0","0","0","34566","","null","","","null","77","","","","","","","","","","","","","","","",""
"","time_out","","html-keyboard-response","517","627696","0.0-1.0-701.0-0.0","0","0","34566","","null","","","null","77","","","","","","","","","","","","","","","",""
"","ITI","","html-keyboard-response","518","628702","0.0-1.0-702.0","0","0","34566","","null","","","null","77","","","","","","","","","","","","","","","NaN",""
"","S1","","html-keyboard-response","519","628960","0.0-1.0-704.0","0","0","34566","","null","","","null","78","","","","","","","","","","","","","","","",""
"","ISI","","html-keyboard-response","520","630967","0.0-1.0-705.0","0","0","34566","","null","","","null","78","NaN","","","","","","","","","","","","","","",""
"","S2","","html-keyboard-response","521","631223","0.0-1.0-706.0","0","0","34566","","null","","","null","78","","NaN","","","","","","","","","","","","","",""
"","response","","html-keyboard-response","522","631648","0.0-1.0-707.0","0","0","34566","","417","","","75","78","","","2","78","training","adjacent","BC","2","3","L.jpg","Q.jpg","0","1","0","",""
"","feedback","","html-keyboard-response","523","632655","0.0-1.0-708.0-0.0","0","0","34566","","null","","","null","78","","","","","","","","","","","","","","","",""
"","time_out","","html-keyboard-response","524","634662","0.0-1.0-710.0-0.0","0","0","34566","","null","","","null","78","","","","","","","","","","","","","","","",""
"","ITI","","html-keyboard-response","525","635669","0.0-1.0-711.0","0","0","34566","","null","","","null","78","","","","","","","","","","","","","","","NaN",""
"","S1","","html-keyboard-response","526","635927","0.0-1.0-713.0","0","0","34566","","null","","","null","79","","","","","","","","","","","","","","","",""
"","ISI","","html-keyboard-response","527","637932","0.0-1.0-714.0","0","0","34566","","null","","","null","79","NaN","","","","","","","","","","","","","","",""
"","S2","","html-keyboard-response","528","638189","0.0-1.0-715.0","0","0","34566","","null","","","null","79","","NaN","","","","","","","","","","","","","",""
"","response","","html-keyboard-response","529","638446","0.0-1.0-716.0","0","0","34566","","251","","","68","79","","","2","79","training","adjacent","CB","3","2","Q.jpg","L.jpg","1","0","0","",""
"","feedback","","html-keyboard-response","530","639453","0.0-1.0-717.0-0.0","0","0","34566","","null","","","null","79","","","","","","","","","","","","","","","",""
"","time_out","","html-keyboard-response","531","641462","0.0-1.0-719.0-0.0","0","0","34566","","null","","","null","79","","","","","","","","","","","","","","","",""
"","ITI","","html-keyboard-response","532","642468","0.0-1.0-720.0","0","0","34566","","null","","","null","79","","","","","","","","","","","","","","","NaN",""
"","S1","","html-keyboard-response","533","642725","0.0-1.0-722.0","0","0","34566","","null","","","null","80","","","","","","","","","","","","","","","",""
"","ISI","","html-keyboard-response","534","644731","0.0-1.0-723.0","0","0","34566","","null","","","null","80","NaN","","","","","","","","","","","","","","",""
"","S2","","html-keyboard-response","535","644989","0.0-1.0-724.0","0","0","34566","","null","","","null","80","","NaN","","","","","","","","","","","","","",""
"","response","","html-keyboard-response","536","645443","0.0-1.0-725.0","0","0","34566","","449","","","75","80","","","2","80","training","adjacent","CB","3","2","Q.jpg","L.jpg","0","0","1","",""
"","feedback","","html-keyboard-response","537","646451","0.0-1.0-726.0-0.0","0","0","34566","","null","","","null","80","","","","","","","","","","","","","","","",""
"","ITI","","html-keyboard-response","538","647460","0.0-1.0-729.0","0","0","34566","","null","","","null","80","","","","","","","","","","","","","","","NaN",""
"","S1","","html-keyboard-response","539","647717","0.0-1.0-731.0","0","0","34566","","null","","","null","81","","","","","","","","","","","","","","","",""
"","ISI","","html-keyboard-response","540","649723","0.0-1.0-732.0","0","0","34566","","null","","","null","81","NaN","","","","","","","","","","","","","","",""
"","S2","","html-keyboard-response","541","649979","0.0-1.0-733.0","0","0","34566","","null","","","null","81","","NaN","","","","","","","","","","","","","",""
"","response","","html-keyboard-response","542","650807","0.0-1.0-734.0","0","0","34566","","823","","","75","81","","","2","81","training","adjacent","EF","5","6","R.jpg","N.jpg","0","1","0","",""
"","feedback","","html-keyboard-response","543","651814","0.0-1.0-735.0-0.0","0","0","34566","","null","","","null","81","","","","","","","","","","","","","","","",""
"","time_out","","html-keyboard-response","544","653822","0.0-1.0-737.0-0.0","0","0","34566","","null","","","null","81","","","","","","","","","","","","","","","",""
"","ITI","","html-keyboard-response","545","654827","0.0-1.0-738.0","0","0","34566","","null","","","null","81","","","","","","","","","","","","","","","NaN",""
"","S1","","html-keyboard-response","546","655085","0.0-1.0-740.0","0","0","34566","","null","","","null","82","","","","","","","","","","","","","","","",""
"","ISI","","html-keyboard-response","547","657093","0.0-1.0-741.0","0","0","34566","","null","","","null","82","NaN","","","","","","","","","","","","","","",""
"","S2","","html-keyboard-response","548","657352","0.0-1.0-742.0","0","0","34566","","null","","","null","82","","NaN","","","","","","","","","","","","","",""
"","response","","html-keyboard-response","549","658010","0.0-1.0-743.0","0","0","34566","","652","","","68","82","","","2","82","training","adjacent","DE","4","5","O.jpg","R.jpg","1","1","1","",""
"","feedback","","html-keyboard-response","550","659021","0.0-1.0-744.0-0.0","0","0","34566","","null","","","null","82","","","","","","","","","","","","","","","",""
"","ITI","","html-keyboard-response","551","660027","0.0-1.0-747.0","0","0","34566","","null","","","null","82","","","","","","","","","","","","","","","NaN",""
"","S1","","html-keyboard-response","552","660284","0.0-1.0-749.0","0","0","34566","","null","","","null","83","","","","","","","","","","","","","","","",""
"","ISI","","html-keyboard-response","553","662292","0.0-1.0-750.0","0","0","34566","","null","","","null","83","NaN","","","","","","","","","","","","","","",""
"","S2","","html-keyboard-response","554","662548","0.0-1.0-751.0","0","0","34566","","null","","","null","83","","NaN","","","","","","","","","","","","","",""
"","response","","html-keyboard-response","555","663216","0.0-1.0-752.0","0","0","34566","","664","","","75","83","","","2","83","training","adjacent","FG","6","7","N.jpg","P.jpg","0","1","0","",""
"","feedback","","html-keyboard-response","556","664224","0.0-1.0-753.0-0.0","0","0","34566","","null","","","null","83","","","","","","","","","","","","","","","",""
"","time_out","","html-keyboard-response","557","666235","0.0-1.0-755.0-0.0","0","0","34566","","null","","","null","83","","","","","","","","","","","","","","","",""
"","ITI","","html-keyboard-response","558","667241","0.0-1.0-756.0","0","0","34566","","null","","","null","83","","","","","","","","","","","","","","","NaN",""
"","S1","","html-keyboard-response","559","667499","0.0-1.0-758.0","0","0","34566","","null","","","null","84","","","","","","","","","","","","","","","",""
"","ISI","","html-keyboard-response","560","669505","0.0-1.0-759.0","0","0","34566","","null","","","null","84","NaN","","","","","","","","","","","","","","",""
"","S2","","html-keyboard-response","561","669763","0.0-1.0-760.0","0","0","34566","","null","","","null","84","","NaN","","","","","","","","","","","","","",""
"","response","","html-keyboard-response","562","671770","0.0-1.0-761.0","0","0","34566","","null","","","null","84","","","2","84","training","adjacent","BA","2","1","L.jpg","M.jpg","NaN","0","0","",""
"","too_slow_prompt","","html-keyboard-response","563","672778","0.0-1.0-763.0-0.0","1","0","34566","","null","","","null","","","","","","","","","","","","","","","","",""
"","time_out","","html-keyboard-response","564","674785","0.0-1.0-764.0-0.0","0","0","34566","","null","","","null","84","","","","","","","","","","","","","","","",""
"","ITI","","html-keyboard-response","565","675792","0.0-1.0-765.0","0","0","34566","","null","","","null","84","","","","","","","","","","","","","","","NaN",""
"","S1","","html-keyboard-response","566","676049","0.0-1.0-767.0","0","0","34566","","null","","","null","85","","","","","","","","","","","","","","","",""
"","ISI","","html-keyboard-response","567","678056","0.0-1.0-768.0","0","0","34566","","1812","","","75","85","k","","","","","","","","","","","","","","",""
"","S2","","html-keyboard-response","568","678314","0.0-1.0-769.0","0","0","34566","","null","","","null","85","","NaN","","","","","","","","","","","","","",""
"","response","","html-keyboard-response","569","678662","0.0-1.0-770.0","0","0","34566","","340","","","75","85","","","2","85","training","adjacent","BA","2","1","L.jpg","M.jpg","0","0","1","",""
"","feedback","","html-keyboard-response","570","679669","0.0-1.0-771.0-0.0","0","0","34566","","null","","","null","85","","","","","","","","","","","","","","","",""
"","ITI","","html-keyboard-response","571","680678","0.0-1.0-774.0","0","0","34566","","null","","","null","85","","","","","","","","","","","","","","","NaN",""
"","S1","","html-keyboard-response","572","680936","0.0-1.0-776.0","0","0","34566","","null","","","null","86","","","","","","","","","","","","","","","",""
"","ISI","","html-keyboard-response","573","682941","0.0-1.0-777.0","0","0","34566","","null","","","null","86","NaN","","","","","","","","","","","","","","",""
"","S2","","html-keyboard-response","574","683200","0.0-1.0-778.0","0","0","34566","","null","","","null","86","","NaN","","","","","","","","","","","","","",""
"","response","","html-keyboard-response","575","683487","0.0-1.0-779.0","0","0","34566","","281","","","68","86","","","2","86","training","adjacent","BA","2","1","L.jpg","M.jpg","1","0","0","",""
"","feedback","","html-keyboard-response","576","684495","0.0-1.0-780.0-0.0","0","0","34566","","null","","","null","86","","","","","","","","","","","","","","","",""
"","time_out","","html-keyboard-response","577","686503","0.0-1.0-782.0-0.0","0","0","34566","","null","","","null","86","","","","","","","","","","","","","","","",""
"","ITI","","html-keyboard-response","578","687508","0.0-1.0-783.0","0","0","34566","","null","","","null","86","","","","","","","","","","","","","","","NaN",""
"","S1","","html-keyboard-response","579","687766","0.0-1.0-785.0","0","0","34566","","null","","","null","87","","","","","","","","","","","","","","","",""
"","ISI","","html-keyboard-response","580","689771","0.0-1.0-786.0","0","0","34566","","null","","","null","87","NaN","","","","","","","","","","","","","","",""
"","S2","","html-keyboard-response","581","690029","0.0-1.0-787.0","0","0","34566","","null","","","null","87","","NaN","","","","","","","","","","","","","",""
"","response","","html-keyboard-response","582","690079","0.0-1.0-788.0","0","0","34566","","43","","","68","87","","","2","87","training","adjacent","CB","3","2","Q.jpg","L.jpg","1","0","0","",""
