"success","ttype","start_time","trial_type","trial_index","time_elapsed","internal_node_id","warning","missed_checkup","PID","view_history","rt","responses","repeat_instructions","key_press","index","keypress_isi","keypress_S2","block","trial_num","phase","group_type","pair_type","S1_stim","S2_stim","S1_img","S2_img","S1_chosen","S1_higher","accuracy","keypress_iti","total_bonus_tally"
"true","full_screen","d08012022hr1341","fullscreen","0","39507","0.0-0.0","0","0","23629","","","","","","","","","","","","","","","","","","","","","",""
"","instructions","","instructions","1","73318","0.0-1.0-0.0-0.0","0","0","23629","[{""page_index"":0,""viewing_time"":3581},{""page_index"":1,""viewing_time"":18552},{""page_index"":2,""viewing_time"":9821},{""page_index"":3,""viewing_time"":1855}]","33809","","","","","","","","","","","","","","","","","","","",""
"","comprehension_check","","survey-multi-choice","2","93154","0.0-1.0-0.0-1.0","0","0","23629","","19828","{""Q0"":""True"",""Q1"":""K"",""Q2"":""When you see the prompt 'MAKE A CHOICE' after the second image was presented"",""Q3"":""Green mark"",""Q4"":""either D or K""}","0","","","","","","","","","","","","","","","","","",""
"","start_exp","","html-keyboard-response","3","96556","0.0-1.0-1.0","0","0","23629","","3393","","","32","","","","","","","","","","","","","","","","",""
"","S1","","html-keyboard-response","4","96810","0.0-1.0-2.0","0","0","23629","","null","","","null","0","","","","","","","","","","","","","","","",""
"","ISI","","html-keyboard-response","5","98813","0.0-1.0-3.0","0","0","23629","","null","","","null","0","NaN","","","","","","","","","","","","","","",""
"","S2","","html-keyboard-response","6","99066","0.0-1.0-4.0","0","0","23629","","null","","","null","0","","NaN","","","","","","","","","","","","","",""
"","response","","html-keyboard-response","7","99773","0.0-1.0-5.0","0","0","23629","","703","","","68","0","","","1","0","training","adjacent","CD","3","4","R.jpg","P.jpg","0","1","0","",""
"","feedback","","html-keyboard-response","8","100775","0.0-1.0-6.0-0.0","0","0","23629","","null","","","null","0","","","","","","","","","","","","","","","",""
"","time_out","","html-keyboard-response","9","102776","0.0-1.0-8.0-0.0","0","0","23629","","null","","","null","0","","","","","","","","","","","","","","","",""
"","ITI","","html-keyboard-response","10","103784","0.0-1.0-9.0","0","0","23629","","null","","","null","0","","","","","","","","","","","","","","","NaN",""
"","S1","","html-keyboard-response","11","104040","0.0-1.0-11.0","0","0","23629","","null","","","null","1","","","","","","","","","","","","","","","",""
"","ISI","","html-keyboard-response","12","106046","0.0-1.0-12.0","0","0","23629","","null","","","null","1","NaN","","","","","","","","","","","","","","",""
"","S2","","html-keyboard-response","13","106297","0.0-1.0-13.0","0","0","23629","","null","","","null","1","","NaN","","","","","","","","","","","","","",""
"","response","","html-keyboard-response","14","107045","0.0-1.0-14.0","0","0","23629","","745","","","68","1","","","1","1","training","adjacent","GF","7","6","O.jpg","Q.jpg","0","0","1","",""
"","feedback","","html-keyboard-response","15","108053","0.0-1.0-15.0-0.0","0","0","23629","","null","","","null","1","","","","","","","","","","","","","","","",""
"","ITI","","html-keyboard-response","16","109056","0.0-1.0-18.0","0","0","23629","","null","","","null","1","","","","","","","","","","","","","","","NaN",""
"","S1","","html-keyboard-response","17","109312","0.0-1.0-20.0","0","0","23629","","null","","","null","2","","","","","","","","","","","","","","","",""
"","ISI","","html-keyboard-response","18","111314","0.0-1.0-21.0","0","0","23629","","null","","","null","2","NaN","","","","","","","","","","","","","","",""
"","S2","","html-keyboard-response","19","111567","0.0-1.0-22.0","0","0","23629","","null","","","null","2","","NaN","","","","","","","","","","","","","",""
"","response","","html-keyboard-response","20","112227","0.0-1.0-23.0","0","0","23629","","659","","","68","2","","","1","2","training","adjacent","FE","6","5","Q.jpg","N.jpg","0","0","1","",""
"","feedback","","html-keyboard-response","21","113229","0.0-1.0-24.0-0.0","0","0","23629","","null","","","null","2","","","","","","","","","","","","","","","",""
"","ITI","","html-keyboard-response","22","114235","0.0-1.0-27.0","0","0","23629","","null","","","null","2","","","","","","","","","","","","","","","NaN",""
"","S1","","html-keyboard-response","23","114490","0.0-1.0-29.0","0","0","23629","","null","","","null","3","","","","","","","","","","","","","","","",""
"","ISI","","html-keyboard-response","24","116493","0.0-1.0-30.0","0","0","23629","","null","","","null","3","NaN","","","","","","","","","","","","","","",""
"","S2","","html-keyboard-response","25","116746","0.0-1.0-31.0","0","0","23629","","null","","","null","3","","NaN","","","","","","","","","","","","","",""
"","response","","html-keyboard-response","26","117462","0.0-1.0-32.0","0","0","23629","","715","","","68","3","","","1","3","training","adjacent","BC","2","3","M.jpg","R.jpg","0","1","0","",""
"","feedback","","html-keyboard-response","27","118465","0.0-1.0-33.0-0.0","0","0","23629","","null","","","null","3","","","","","","","","","","","","","","","",""
"","time_out","","html-keyboard-response","28","120469","0.0-1.0-35.0-0.0","0","0","23629","","null","","","null","3","","","","","","","","","","","","","","","",""
"","ITI","","html-keyboard-response","29","121471","0.0-1.0-36.0","0","0","23629","","null","","","null","3","","","","","","","","","","","","","","","NaN",""
"","S1","","html-keyboard-response","30","121725","0.0-1.0-38.0","0","0","23629","","null","","","null","4","","","","","","","","","","","","","","","",""
"","ISI","","html-keyboard-response","31","123727","0.0-1.0-39.0","0","0","23629","","null","","","null","4","NaN","","","","","","","","","","","","","","",""
"","S2","","html-keyboard-response","32","123984","0.0-1.0-40.0","0","0","23629","","null","","","null","4","","NaN","","","","","","","","","","","","","",""
"","response","","html-keyboard-response","33","124742","0.0-1.0-41.0","0","0","23629","","756","","","75","4","","","1","4","training","adjacent","CB","3","2","R.jpg","M.jpg","1","0","0","",""
"","feedback","","html-keyboard-response","34","125746","0.0-1.0-42.0-0.0","0","0","23629","","null","","","null","4","","","","","","","","","","","","","","","",""
"","time_out","","html-keyboard-response","35","127749","0.0-1.0-44.0-0.0","0","0","23629","","null","","","null","4","","","","","","","","","","","","","","","",""
"","ITI","","html-keyboard-response","36","128752","0.0-1.0-45.0","0","0","23629","","null","","","null","4","","","","","","","","","","","","","","","NaN",""
"","S1","","html-keyboard-response","37","129007","0.0-1.0-47.0","0","0","23629","","null","","","null","5","","","","","","","","","","","","","","","",""
"","ISI","","html-keyboard-response","38","131009","0.0-1.0-48.0","0","0","23629","","null","","","null","5","NaN","","","","","","","","","","","","","","",""
"","S2","","html-keyboard-response","39","131263","0.0-1.0-49.0","0","0","23629","","null","","","null","5","","NaN","","","","","","","","","","","","","",""
"","response","","html-keyboard-response","40","131965","0.0-1.0-50.0","0","0","23629","","701","","","68","5","","","1","5","training","adjacent","EF","5","6","N.jpg","Q.jpg","0","1","0","",""
"","feedback","","html-keyboard-response","41","132968","0.0-1.0-51.0-0.0","0","0","23629","","null","","","null","5","","","","","","","","","","","","","","","",""
"","time_out","","html-keyboard-response","42","134973","0.0-1.0-53.0-0.0","0","0","23629","","null","","","null","5","","","","","","","","","","","","","","","",""
"","ITI","","html-keyboard-response","43","135975","0.0-1.0-54.0","0","0","23629","","null","","","null","5","","","","","","","","","","","","","","","NaN",""
"","S1","","html-keyboard-response","44","136227","0.0-1.0-56.0","0","0","23629","","null","","","null","6","","","","","","","","","","","","","","","",""
"","ISI","","html-keyboard-response","45","138228","0.0-1.0-57.0","0","0","23629","","null","","","null","6","NaN","","","","","","","","","","","","","","",""
"","S2","","html-keyboard-response","46","138483","0.0-1.0-58.0","0","0","23629","","null","","","null","6","","NaN","","","","","","","","","","","","","",""
"","response","","html-keyboard-response","47","139193","0.0-1.0-59.0","0","0","23629","","707","","","75","6","","","1","6","training","adjacent","GF","7","6","O.jpg","Q.jpg","1","0","0","",""
"","feedback","","html-keyboard-response","48","140196","0.0-1.0-60.0-0.0","0","0","23629","","null","","","null","6","","","","","","","","","","","","","","","",""
"","time_out","","html-keyboard-response","49","142199","0.0-1.0-62.0-0.0","0","0","23629","","null","","","null","6","","","","","","","","","","","","","","","",""
"","ITI","","html-keyboard-response","50","143203","0.0-1.0-63.0","0","0","23629","","null","","","null","6","","","","","","","","","","","","","","","NaN",""
"","S1","","html-keyboard-response","51","143455","0.0-1.0-65.0","0","0","23629","","null","","","null","7","","","","","","","","","","","","","","","",""
"","ISI","","html-keyboard-response","52","145466","0.0-1.0-66.0","0","0","23629","","null","","","null","7","NaN","","","","","","","","","","","","","","",""
"","S2","","html-keyboard-response","53","145719","0.0-1.0-67.0","0","0","23629","","null","","","null","7","","NaN","","","","","","","","","","","","","",""
"","response","","html-keyboard-response","54","146529","0.0-1.0-68.0","0","0","23629","","808","","","75","7","","","1","7","training","adjacent","BA","2","1","M.jpg","L.jpg","1","0","0","",""
"","feedback","","html-keyboard-response","55","147532","0.0-1.0-69.0-0.0","0","0","23629","","null","","","null","7","","","","","","","","","","","","","","","",""
"","time_out","","html-keyboard-response","56","149536","0.0-1.0-71.0-0.0","0","0","23629","","null","","","null","7","","","","","","","","","","","","","","","",""
"","ITI","","html-keyboard-response","57","150540","0.0-1.0-72.0","0","0","23629","","null","","","null","7","","","","","","","","","","","","","","","NaN",""
"","S1","","html-keyboard-response","58","150791","0.0-1.0-74.0","0","0","23629","","null","","","null","8","","","","","","","","","","","","","","","",""
"","ISI","","html-keyboard-response","59","152797","0.0-1.0-75.0","0","0","23629","","null","","","null","8","NaN","","","","","","","","","","","","","","",""
"","S2","","html-keyboard-response","60","153049","0.0-1.0-76.0","0","0","23629","","null","","","null","8","","NaN","","","","","","","","","","","","","",""
"","response","","html-keyboard-response","61","153927","0.0-1.0-77.0","0","0","23629","","875","","","68","8","","","1","8","training","adjacent","CB","3","2","R.jpg","M.jpg","0","0","1","",""
"","feedback","","html-keyboard-response","62","154930","0.0-1.0-78.0-0.0","0","0","23629","","null","","","null","8","","","","","","","","","","","","","","","",""
"","ITI","","html-keyboard-response","63","155933","0.0-1.0-81.0","0","0","23629","","null","","","null","8","","","","","","","","","","","","","","","NaN",""
"","S1","","html-keyboard-response","64","156187","0.0-1.0-83.0","0","0","23629","","null","","","null","9","","","","","","","","","","","","","","","",""
"","ISI","","html-keyboard-response","65","158190","0.0-1.0-84.0","0","0","23629","","null","","","null","9","NaN","","","","","","","","","","","","","","",""
"","S2","","html-keyboard-response","66","158451","0.0-1.0-85.0","0","0","23629","","null","","","null","9","","NaN","","","","","","","","","","","","","",""
"","response","","html-keyboard-response","67","159344","0.0-1.0-86.0","0","0","23629","","890","","","75","9","","","1","9","training","adjacent","DE","4","5","P.jpg","N.jpg","1","1","1","",""
"","feedback","","html-keyboard-response","68","160354","0.0-1.0-87.0-0.0","0","0","23629","","null","","","null","9","","","","","","","","","","","","","","","",""
"","ITI","","html-keyboard-response","69","161360","0.0-1.0-90.0","0","0","23629","","null","","","null","9","","","","","","","","","","","","","","","NaN",""
"","S1","","html-keyboard-response","70","161612","0.0-1.0-92.0","0","0","23629","","null","","","null","10","","","","","","","","","","","","","","","",""
"","ISI","","html-keyboard-response","71","163614","0.0-1.0-93.0","0","0","23629","","null","","","null","10","NaN","","","","","","","","","","","","","","",""
"","S2","","html-keyboard-response","72","163867","0.0-1.0-94.0","0","0","23629","","null","","","null","10","","NaN","","","","","","","","","","","","","",""
"","response","","html-keyboard-response","73","164470","0.0-1.0-95.0","0","0","23629","","601","","","68","10","","","1","10","training","adjacent","EF","5","6","N.jpg","Q.jpg","0","1","0","",""
"","feedback","","html-keyboard-response","74","165473","0.0-1.0-96.0-0.0","0","0","23629","","null","","","null","10","","","","","","","","","","","","","","","",""
"","time_out","","html-keyboard-response","75","167476","0.0-1.0-98.0-0.0","0","0","23629","","null","","","null","10","","","","","","","","","","","","","","","",""
"","ITI","","html-keyboard-response","76","168482","0.0-1.0-99.0","0","0","23629","","null","","","null","10","","","","","","","","","","","","","","","NaN",""
"","S1","","html-keyboard-response","77","168738","0.0-1.0-101.0","0","0","23629","","null","","","null","11","","","","","","","","","","","","","","","",""
"","ISI","","html-keyboard-response","78","170740","0.0-1.0-102.0","0","0","23629","","null","","","null","11","NaN","","","","","","","","","","","","","","",""
"","S2","","html-keyboard-response","79","170992","0.0-1.0-103.0","0","0","23629","","null","","","null","11","","NaN","","","","","","","","","","","","","",""
"","response","","html-keyboard-response","80","171523","0.0-1.0-104.0","0","0","23629","","529","","","75","11","","","1","11","training","adjacent","GF","7","6","O.jpg","Q.jpg","1","0","0","",""
"","feedback","","html-keyboard-response","81","172526","0.0-1.0-105.0-0.0","0","0","23629","","null","","","null","11","","","","","","","","","","","","","","","",""
"","time_out","","html-keyboard-response","82","174534","0.0-1.0-107.0-0.0","0","0","23629","","null","","","null","11","","","","","","","","","","","","","","","",""
"","ITI","","html-keyboard-response","83","175538","0.0-1.0-108.0","0","0","23629","","null","","","null","11","","","","","","","","","","","","","","","NaN",""
"","S1","","html-keyboard-response","84","175791","0.0-1.0-110.0","0","0","23629","","null","","","null","12","","","","","","","","","","","","","","","",""
"","ISI","","html-keyboard-response","85","177793","0.0-1.0-111.0","0","0","23629","","null","","","null","12","NaN","","","","","","","","","","","","","","",""
"","S2","","html-keyboard-response","86","178048","0.0-1.0-112.0","0","0","23629","","null","","","null","12","","NaN","","","","","","","","","","","","","",""
"","response","","html-keyboard-response","87","178730","0.0-1.0-113.0","0","0","23629","","680","","","75","12","","","1","12","training","adjacent","CD","3","4","R.jpg","P.jpg","1","1","1","",""
"","feedback","","html-keyboard-response","88","179731","0.0-1.0-114.0-0.0","0","0","23629","","null","","","null","12","","","","","","","","","","","","","","","",""
"","ITI","","html-keyboard-response","89","180734","0.0-1.0-117.0","0","0","23629","","null","","","null","12","","","","","","","","","","","","","","","NaN",""
"","S1","","html-keyboard-response","90","180986","0.0-1.0-119.0","0","0","23629","","null","","","null","13","","","","","","","","","","","","","","","",""
"","ISI","","html-keyboard-response","91","182989","0.0-1.0-120.0","0","0","23629","","null","","","null","13","NaN","","","","","","","","","","","","","","",""
"","S2","","html-keyboard-response","92","183241","0.0-1.0-121.0","0","0","23629","","null","","","null","13","","NaN","","","","","","","","","","","","","",""
"","response","","html-keyboard-response","93","183822","0.0-1.0-122.0","0","0","23629","","580","","","75","13","","","1","13","training","adjacent","CD","3","4","R.jpg","P.jpg","1","1","1","",""
"","feedback","","html-keyboard-response","94","184824","0.0-1.0-123.0-0.0","0","0","23629","","null","","","null","13","","","","","","","","","","","","","","","",""
"","ITI","","html-keyboard-response","95","185827","0.0-1.0-126.0","0","0","23629","","null","","","null","13","","","","","","","","","","","","","","","NaN",""
"","S1","","html-keyboard-response","96","186079","0.0-1.0-128.0","0","0","23629","","null","","","null","14","","","","","","","","","","","","","","","",""
"","ISI","","html-keyboard-response","97","188081","0.0-1.0-129.0","0","0","23629","","null","","","null","14","NaN","","","","","","","","","","","","","","",""
"","S2","","html-keyboard-response","98","188334","0.0-1.0-130.0","0","0","23629","","null","","","null","14","","NaN","","","","","","","","","","","","","",""
"","response","","html-keyboard-response","99","188920","0.0-1.0-131.0","0","0","23629","","585","","","68","14","","","1","14","training","adjacent","AB","1","2","L.jpg","M.jpg","0","1","0","",""
"","feedback","","html-keyboard-response","100","189923","0.0-1.0-132.0-0.0","0","0","23629","","null","","","null","14","","","","","","","","","","","","","","","",""
"","time_out","","html-keyboard-response","101","191926","0.0-1.0-134.0-0.0","0","0","23629","","null","","","null","14","","","","","","","","","","","","","","","",""
"","ITI","","html-keyboard-response","102","192930","0.0-1.0-135.0","0","0","23629","","null","","","null","14","","","","","","","","","","","","","","","NaN",""
"","S1","","html-keyboard-response","103","193184","0.0-1.0-137.0","0","0","23629","","null","","","null","15","","","","","","","","","","","","","","","",""
"","ISI","","html-keyboard-response","104","195186","0.0-1.0-138.0","0","0","23629","","null","","","null","15","NaN","","","","","","","","","","","","","","",""
"","S2","","html-keyboard-response","105","195439","0.0-1.0-139.0","0","0","23629","","null","","","null","15","","NaN","","","","","","","","","","","","","",""
"","response","","html-keyboard-response","106","195981","0.0-1.0-140.0","0","0","23629","","541","","","68","15","","","1","15","training","adjacent","DC","4","3","P.jpg","R.jpg","0","0","1","",""
"","feedback","","html-keyboard-response","107","196988","0.0-1.0-141.0-0.0","0","0","23629","","null","","","null","15","","","","","","","","","","","","","","","",""
"","ITI","","html-keyboard-response","108","197994","0.0-1.0-144.0","0","0","23629","","null","","","null","15","","","","","","","","","","","","","","","NaN",""
"","S1","","html-keyboard-response","109","198250","0.0-1.0-146.0","0","0","23629","","null","","","null","16","","","","","","","","","","","","","","","",""
"","ISI","","html-keyboard-response","110","200253","0.0-1.0-147.0","0","0","23629","","null","","","null","16","NaN","","","","","","","","","","","","","","",""
"","S2","","html-keyboard-response","111","200509","0.0-1.0-148.0","0","0","23629","","null","","","null","16","","NaN","","","","","","","","","","","","","",""
"","response","","html-keyboard-response","112","200974","0.0-1.0-149.0","0","0","23629","","463","","","68","16","","","1","16","training","adjacent","BC","2","3","M.jpg","R.jpg","0","1","0","",""
"","feedback","","html-keyboard-response","113","201977","0.0-1.0-150.0-0.0","0","0","23629","","null","","","null","16","","","","","","","","","","","","","","","",""
"","time_out","","html-keyboard-response","114","203983","0.0-1.0-152.0-0.0","0","0","23629","","null","","","null","16","","","","","","","","","","","","","","","",""
"","ITI","","html-keyboard-response","115","204990","0.0-1.0-153.0","0","0","23629","","null","","","null","16","","","","","","","","","","","","","","","NaN",""
"","S1","","html-keyboard-response","116","205243","0.0-1.0-155.0","0","0","23629","","null","","","null","17","","","","","","","","","","","","","","","",""
"","ISI","","html-keyboard-response","117","207246","0.0-1.0-156.0","0","0","23629","","null","","","null","17","NaN","","","","","","","","","","","","","","",""
"","S2","","html-keyboard-response","118","207499","0.0-1.0-157.0","0","0","23629","","null","","","null","17","","NaN","","","","","","","","","","","","","",""
"","response","","html-keyboard-response","119","208141","0.0-1.0-158.0","0","0","23629","","641","","","75","17","","","1","17","training","adjacent","CB","3","2","R.jpg","M.jpg","1","0","0","",""
"","feedback","","html-keyboard-response","120","209146","0.0-1.0-159.0-0.0","0","0","23629","","null","","","null","17","","","","","","","","","","","","","","","",""
"","time_out","","html-keyboard-response","121","211149","0.0-1.0-161.0-0.0","0","0","23629","","null","","","null","17","","","","","","","","","","","","","","","",""
"","ITI","","html-keyboard-response","122","212156","0.0-1.0-162.0","0","0","23629","","null","","","null","17","","","","","","","","","","","","","","","NaN",""
"","S1","","html-keyboard-response","123","212409","0.0-1.0-164.0","0","0","23629","","null","","","null","18","","","","","","","","","","","","","","","",""
"","ISI","","html-keyboard-response","124","214414","0.0-1.0-165.0","0","0","23629","","null","","","null","18","NaN","","","","","","","","","","","","","","",""
"","S2","","html-keyboard-response","125","214668","0.0-1.0-166.0","0","0","23629","","null","","","null","18","","NaN","","","","","","","","","","","","","",""
"","response","","html-keyboard-response","126","215192","0.0-1.0-167.0","0","0","23629","","520","","","68","18","","","1","18","training","adjacent","FG","6","7","Q.jpg","O.jpg","0","1","0","",""
"","feedback","","html-keyboard-response","127","216195","0.0-1.0-168.0-0.0","0","0","23629","","null","","","null","18","","","","","","","","","","","","","","","",""
"","time_out","","html-keyboard-response","128","218198","0.0-1.0-170.0-0.0","0","0","23629","","null","","","null","18","","","","","","","","","","","","","","","",""
"","ITI","","html-keyboard-response","129","219201","0.0-1.0-171.0","0","0","23629","","null","","","null","18","","","","","","","","","","","","","","","NaN",""
"","S1","","html-keyboard-response","130","219454","0.0-1.0-173.0","0","0","23629","","null","","","null","19","","","","","","","","","","","","","","","",""
"","ISI","","html-keyboard-response","131","221458","0.0-1.0-174.0","0","0","23629","","null","","","null","19","NaN","","","","","","","","","","","","","","",""
"","S2","","html-keyboard-response","132","221710","0.0-1.0-175.0","0","0","23629","","null","","","null","19","","NaN","","","","","","","","","","","","","",""
"","response","","html-keyboard-response","133","222482","0.0-1.0-176.0","0","0","23629","","771","","","68","19","","","1","19","training","adjacent","DE","4","5","P.jpg","N.jpg","0","1","0","",""
"","feedback","","html-keyboard-response","134","223485","0.0-1.0-177.0-0.0","0","0","23629","","null","","","null","19","","","","","","","","","","","","","","","",""
"","time_out","","html-keyboard-response","135","225489","0.0-1.0-179.0-0.0","0","0","23629","","null","","","null","19","","","","","","","","","","","","","","","",""
"","ITI","","html-keyboard-response","136","226493","0.0-1.0-180.0","0","0","23629","","null","","","null","19","","","","","","","","","","","","","","","NaN",""
"","S1","","html-keyboard-response","137","226745","0.0-1.0-182.0","0","0","23629","","null","","","null","20","","","","","","","","","","","","","","","",""
"","ISI","","html-keyboard-response","138","228747","0.0-1.0-183.0","0","0","23629","","null","","","null","20","NaN","","","","","","","","","","","","","","",""
"","S2","","html-keyboard-response","139","229001","0.0-1.0-184.0","0","0","23629","","null","","","null","20","","NaN","","","","","","","","","","","","","",""
"","response","","html-keyboard-response","140","229634","0.0-1.0-185.0","0","0","23629","","632","","","68","20","","","1","20","training","adjacent","DC","4","3","P.jpg","R.jpg","0","0","1","",""
"","feedback","","html-keyboard-response","141","230636","0.0-1.0-186.0-0.0","0","0","23629","","null","","","null","20","","","","","","","","","","","","","","","",""
"","ITI","","html-keyboard-response","142","231639","0.0-1.0-189.0","0","0","23629","","null","","","null","20","","","","","","","","","","","","","","","NaN",""
"","S1","","html-keyboard-response","143","231891","0.0-1.0-191.0","0","0","23629","","null","","","null","21","","","","","","","","","","","","","","","",""
"","ISI","","html-keyboard-response","144","233893","0.0-1.0-192.0","0","0","23629","","null","","","null","21","NaN","","","","","","","","","","","","","","",""
"","S2","","html-keyboard-response","145","234146","0.0-1.0-193.0","0","0","23629","","null","","","null","21","","NaN","","","","","","","","","","","","","",""
"","response","","html-keyboard-response","146","234885","0.0-1.0-194.0","0","0","23629","","737","","","68","21","","","1","21","training","adjacent","BA","2","1","M.jpg","L.jpg","0","0","1","",""
"","feedback","","html-keyboard-response","147","235889","0.0-1.0-195.0-0.0","0","0","23629","","null","","","null","21","","","","","","","","","","","","","","","",""
"","ITI","","html-keyboard-response","148","236893","0.0-1.0-198.0","0","0","23629","","null","","","null","21","","","","","","","","","","","","","","","NaN",""
"","S1","","html-keyboard-response","149","237146","0.0-1.0-200.0","0","0","23629","","null","","","null","22","","","","","","","","","","","","","","","",""
"","ISI","","html-keyboard-response","150","239149","0.0-1.0-201.0","0","0","23629","","null","","","null","22","NaN","","","","","","","","","","","","","","",""
"","S2","","html-keyboard-response","151","239402","0.0-1.0-202.0","0","0","23629","","null","","","null","22","","NaN","","","","","","","","","","","","","",""
"","response","","html-keyboard-response","152","240053","0.0-1.0-203.0","0","0","23629","","650","","","68","22","","","1","22","training","adjacent","DE","4","5","P.jpg","N.jpg","0","1","0","",""
"","feedback","","html-keyboard-response","153","241055","0.0-1.0-204.0-0.0","0","0","23629","","null","","","null","22","","","","","","","","","","","","","","","",""
"","time_out","","html-keyboard-response","154","243059","0.0-1.0-206.0-0.0","0","0","23629","","null","","","null","22","","","","","","","","","","","","","","","",""
"","ITI","","html-keyboard-response","155","244061","0.0-1.0-207.0","0","0","23629","","null","","","null","22","","","","","","","","","","","","","","","NaN",""
"","S1","","html-keyboard-response","156","244314","0.0-1.0-209.0","0","0","23629","","null","","","null","23","","","","","","","","","","","","","","","",""
"","ISI","","html-keyboard-response","157","246317","0.0-1.0-210.0","0","0","23629","","null","","","null","23","NaN","","","","","","","","","","","","","","",""
"","S2","","html-keyboard-response","158","246569","0.0-1.0-211.0","0","0","23629","","null","","","null","23","","NaN","","","","","","","","","","","","","",""
"","response","","html-keyboard-response","159","247285","0.0-1.0-212.0","0","0","23629","","715","","","75","23","","","1","23","training","adjacent","EF","5","6","N.jpg","Q.jpg","1","1","1","",""
"","feedback","","html-keyboard-response","160","248289","0.0-1.0-213.0-0.0","0","0","23629","","null","","","null","23","","","","","","","","","","","","","","","",""
"","ITI","","html-keyboard-response","161","249301","0.0-1.0-216.0","0","0","23629","","null","","","null","23","","","","","","","","","","","","","","","NaN",""
"","S1","","html-keyboard-response","162","249593","0.0-1.0-218.0","0","0","23629","","null","","","null","24","","","","","","","","","","","","","","","",""
"","ISI","","html-keyboard-response","163","251597","0.0-1.0-219.0","0","0","23629","","null","","","null","24","NaN","","","","","","","","","","","","","","",""
"","S2","","html-keyboard-response","164","251854","0.0-1.0-220.0","0","0","23629","","null","","","null","24","","NaN","","","","","","","","","","","","","",""
"","response","","html-keyboard-response","165","252606","0.0-1.0-221.0","0","0","23629","","751","","","75","24","","","1","24","training","adjacent","AB","1","2","L.jpg","M.jpg","1","1","1","",""
"","feedback","","html-keyboard-response","166","253610","0.0-1.0-222.0-0.0","0","0","23629","","null","","","null","24","","","","","","","","","","","","","","","",""
"","ITI","","html-keyboard-response","167","254613","0.0-1.0-225.0","0","0","23629","","null","","","null","24","","","","","","","","","","","","","","","NaN",""
"","S1","","html-keyboard-response","168","254867","0.0-1.0-227.0","0","0","23629","","null","","","null","25","","","","","","","","","","","","","","","",""
"","ISI","","html-keyboard-response","169","256870","0.0-1.0-228.0","0","0","23629","","null","","","null","25","NaN","","","","","","","","","","","","","","",""
"","S2","","html-keyboard-response","170","257124","0.0-1.0-229.0","0","0","23629","","null","","","null","25","","NaN","","","","","","","","","","","","","",""
"","response","","html-keyboard-response","171","257954","0.0-1.0-230.0","0","0","23629","","829","","","75","25","","","1","25","training","adjacent","ED","5","4","N.jpg","P.jpg","1","0","0","",""
"","feedback","","html-keyboard-response","172","258955","0.0-1.0-231.0-0.0","0","0","23629","","null","","","null","25","","","","","","","","","","","","","","","",""
"","time_out","","html-keyboard-response","173","260957","0.0-1.0-233.0-0.0","0","0","23629","","null","","","null","25","","","","","","","","","","","","","","","",""
"","ITI","","html-keyboard-response","174","261959","0.0-1.0-234.0","0","0","23629","","null","","","null","25","","","","","","","","","","","","","","","NaN",""
"","S1","","html-keyboard-response","175","262212","0.0-1.0-236.0","0","0","23629","","null","","","null","26","","","","","","","","","","","","","","","",""
"","ISI","","html-keyboard-response","176","264213","0.0-1.0-237.0","0","0","23629","","null","","","null","26","NaN","","","","","","","","","","","","","","",""
"","S2","","html-keyboard-response","177","264472","0.0-1.0-238.0","0","0","23629","","null","","","null","26","","NaN","","","","","","","","","","","","","",""
"","response","","html-keyboard-response","178","265317","0.0-1.0-239.0","0","0","23629","","843","","","75","26","","","1","26","training","adjacent","CB","3","2","R.jpg","M.jpg","1","0","0","",""
"","feedback","","html-keyboard-response","179","266330","0.0-1.0-240.0-0.0","0","0","23629","","null","","","null","26","","","","","","","","","","","","","","","",""
"","time_out","","html-keyboard-response","180","268335","0.0-1.0-242.0-0.0","0","0","23629","","null","","","null","26","","","","","","","","","","","","","","","",""
"","ITI","","html-keyboard-response","181","269340","0.0-1.0-243.0","0","0","23629","","null","","","null","26","","","","","","","","","","","","","","","NaN",""
"","S1","","html-keyboard-response","182","269596","0.0-1.0-245.0","0","0","23629","","null","","","null","27","","","","","","","","","","","","","","","",""
"","ISI","","html-keyboard-response","183","271597","0.0-1.0-246.0","0","0","23629","","null","","","null","27","NaN","","","","","","","","","","","","","","",""
"","S2","","html-keyboard-response","184","271849","0.0-1.0-247.0","0","0","23629","","null","","","null","27","","NaN","","","","","","","","","","","","","",""
"","response","","html-keyboard-response","185","272598","0.0-1.0-248.0","0","0","23629","","748","","","75","27","","","1","27","training","adjacent","BA","2","1","M.jpg","L.jpg","1","0","0","",""
"","feedback","","html-keyboard-response","186","273601","0.0-1.0-249.0-0.0","0","0","23629","","null","","","null","27","","","","","","","","","","","","","","","",""
"","time_out","","html-keyboard-response","187","275604","0.0-1.0-251.0-0.0","0","0","23629","","null","","","null","27","","","","","","","","","","","","","","","",""
"","ITI","","html-keyboard-response","188","276607","0.0-1.0-252.0","0","0","23629","","null","","","null","27","","","","","","","","","","","","","","","NaN",""
"","S1","","html-keyboard-response","189","276860","0.0-1.0-254.0","0","0","23629","","null","","","null","28","","","","","","","","","","","","","","","",""
"","ISI","","html-keyboard-response","190","278863","0.0-1.0-255.0","0","0","23629","","null","","","null","28","NaN","","","","","","","","","","","","","","",""
"","S2","","html-keyboard-response","191","279115","0.0-1.0-256.0","0","0","23629","","null","","","null","28","","NaN","","","","","","","","","","","","","",""
"","response","","html-keyboard-response","192","279852","0.0-1.0-257.0","0","0","23629","","736","","","68","28","","","1","28","training","adjacent","FE","6","5","Q.jpg","N.jpg","0","0","1","",""
"","feedback","","html-keyboard-response","193","280859","0.0-1.0-258.0-0.0","0","0","23629","","null","","","null","28","","","","","","","","","","","","","","","",""
"","ITI","","html-keyboard-response","194","281864","0.0-1.0-261.0","0","0","23629","","null","","","null","28","","","","","","","","","","","","","","","NaN",""
"","S1","","html-keyboard-response","195","282117","0.0-1.0-263.0","0","0","23629","","null","","","null","29","","","","","","","","","","","","","","","",""
"","ISI","","html-keyboard-response","196","284119","0.0-1.0-264.0","0","0","23629","","null","","","null","29","NaN","","","","","","","","","","","","","","",""
"","S2","","html-keyboard-response","197","284385","0.0-1.0-265.0","0","0","23629","","null","","","null","29","","NaN","","","","","","","","","","","","","",""
"","response","","html-keyboard-response","198","285180","0.0-1.0-266.0","0","0","23629","","794","","","75","29","","","1","29","training","adjacent","ED","5","4","N.jpg","P.jpg","1","0","0","",""
"","feedback","","html-keyboard-response","199","286182","0.0-1.0-267.0-0.0","0","0","23629","","null","","","null","29","","","","","","","","","","","","","","","",""
"","time_out","","html-keyboard-response","200","288184","0.0-1.0-269.0-0.0","0","0","23629","","null","","","null","29","","","","","","","","","","","","","","","",""
"","ITI","","html-keyboard-response","201","289187","0.0-1.0-270.0","0","0","23629","","null","","","null","29","","","","","","","","","","","","","","","NaN",""
"","S1","","html-keyboard-response","202","289442","0.0-1.0-272.0","0","0","23629","","null","","","null","30","","","","","","","","","","","","","","","",""
"","ISI","","html-keyboard-response","203","291445","0.0-1.0-273.0","0","0","23629","","null","","","null","30","NaN","","","","","","","","","","","","","","",""
"","S2","","html-keyboard-response","204","291698","0.0-1.0-274.0","0","0","23629","","null","","","null","30","","NaN","","","","","","","","","","","","","",""
"","response","","html-keyboard-response","205","292317","0.0-1.0-275.0","0","0","23629","","617","","","75","30","","","1","30","training","adjacent","EF","5","6","N.jpg","Q.jpg","1","1","1","",""
"","feedback","","html-keyboard-response","206","293320","0.0-1.0-276.0-0.0","0","0","23629","","null","","","null","30","","","","","","","","","","","","","","","",""
"","ITI","","html-keyboard-response","207","294323","0.0-1.0-279.0","0","0","23629","","null","","","null","30","","","","","","","","","","","","","","","NaN",""
"","S1","","html-keyboard-response","208","294577","0.0-1.0-281.0","0","0","23629","","null","","","null","31","","","","","","","","","","","","","","","",""
"","ISI","","html-keyboard-response","209","296579","0.0-1.0-282.0","0","0","23629","","null","","","null","31","NaN","","","","","","","","","","","","","","",""
"","S2","","html-keyboard-response","210","296831","0.0-1.0-283.0","0","0","23629","","null","","","null","31","","NaN","","","","","","","","","","","","","",""
"","response","","html-keyboard-response","211","297317","0.0-1.0-284.0","0","0","23629","","485","","","75","31","","","1","31","training","adjacent","CD","3","4","R.jpg","P.jpg","1","1","1","",""
"","feedback","","html-keyboard-response","212","298325","0.0-1.0-285.0-0.0","0","0","23629","","null","","","null","31","","","","","","","","","","","","","","","",""
"","ITI","","html-keyboard-response","213","299332","0.0-1.0-288.0","0","0","23629","","null","","","null","31","","","","","","","","","","","","","","","NaN",""
"","S1","","html-keyboard-response","214","299585","0.0-1.0-290.0","0","0","23629","","null","","","null","32","","","","","","","","","","","","","","","",""
"","ISI","","html-keyboard-response","215","301590","0.0-1.0-291.0","0","0","23629","","null","","","null","32","NaN","","","","","","","","","","","","","","",""
"","S2","","html-keyboard-response","216","301842","0.0-1.0-292.0","0","0","23629","","null","","","null","32","","NaN","","","","","","","","","","","","","",""
"","response","","html-keyboard-response","217","302341","0.0-1.0-293.0","0","0","23629","","498","","","75","32","","","1","32","training","adjacent","AB","1","2","L.jpg","M.jpg","1","1","1","",""
"","feedback","","html-keyboard-response","218","303344","0.0-1.0-294.0-0.0","0","0","23629","","null","","","null","32","","","","","","","","","","","","","","","",""
"","ITI","","html-keyboard-response","219","304349","0.0-1.0-297.0","0","0","23629","","null","","","null","32","","","","","","","","","","","","","","","NaN",""
"","S1","","html-keyboard-response","220","304603","0.0-1.0-299.0","0","0","23629","","null","","","null","33","","","","","","","","","","","","","","","",""
"","ISI","","html-keyboard-response","221","306606","0.0-1.0-300.0","0","0","23629","","null","","","null","33","NaN","","","","","","","","","","","","","","",""
"","S2","","html-keyboard-response","222","306860","0.0-1.0-301.0","0","0","23629","","null","","","null","33","","NaN","","","","","","","","","","","","","",""
"","response","","html-keyboard-response","223","307367","0.0-1.0-302.0","0","0","23629","","506","","","68","33","","","1","33","training","adjacent","GF","7","6","O.jpg","Q.jpg","0","0","1","",""
"","feedback","","html-keyboard-response","224","308370","0.0-1.0-303.0-0.0","0","0","23629","","null","","","null","33","","","","","","","","","","","","","","","",""
"","ITI","","html-keyboard-response","225","309383","0.0-1.0-306.0","0","0","23629","","null","","","null","33","","","","","","","","","","","","","","","NaN",""
"","S1","","html-keyboard-response","226","309648","0.0-1.0-308.0","0","0","23629","","null","","","null","34","","","","","","","","","","","","","","","",""
"","ISI","","html-keyboard-response","227","311652","0.0-1.0-309.0","0","0","23629","","null","","","null","34","NaN","","","","","","","","","","","","","","",""
"","S2","","html-keyboard-response","228","311904","0.0-1.0-310.0","0","0","23629","","null","","","null","34","","NaN","","","","","","","","","","","","","",""
"","response","","html-keyboard-response","229","312598","0.0-1.0-311.0","0","0","23629","","692","","","68","34","","","1","34","training","adjacent","DC","4","3","P.jpg","R.jpg","0","0","1","",""
"","feedback","","html-keyboard-response","230","313601","0.0-1.0-312.0-0.0","0","0","23629","","null","","","null","34","","","","","","","","","","","","","","","",""
"","ITI","","html-keyboard-response","231","314603","0.0-1.0-315.0","0","0","23629","","null","","","null","34","","","","","","","","","","","","","","","NaN",""
"","S1","","html-keyboard-response","232","314855","0.0-1.0-317.0","0","0","23629","","null","","","null","35","","","","","","","","","","","","","","","",""
"","ISI","","html-keyboard-response","233","316856","0.0-1.0-318.0","0","0","23629","","null","","","null","35","NaN","","","","","","","","","","","","","","",""
"","S2","","html-keyboard-response","234","317110","0.0-1.0-319.0","0","0","23629","","null","","","null","35","","NaN","","","","","","","","","","","","","",""
"","response","","html-keyboard-response","235","317614","0.0-1.0-320.0","0","0","23629","","503","","","75","35","","","1","35","training","adjacent","BC","2","3","M.jpg","R.jpg","1","1","1","",""
"","feedback","","html-keyboard-response","236","318616","0.0-1.0-321.0-0.0","0","0","23629","","null","","","null","35","","","","","","","","","","","","","","","",""
"","ITI","","html-keyboard-response","237","319618","0.0-1.0-324.0","0","0","23629","","null","","","null","35","","","","","","","","","","","","","","","NaN",""
"","S1","","html-keyboard-response","238","319872","0.0-1.0-326.0","0","0","23629","","null","","","null","36","","","","","","","","","","","","","","","",""
"","ISI","","html-keyboard-response","239","321874","0.0-1.0-327.0","0","0","23629","","null","","","null","36","NaN","","","","","","","","","","","","","","",""
"","S2","","html-keyboard-response","240","322127","0.0-1.0-328.0","0","0","23629","","null","","","null","36","","NaN","","","","","","","","","","","","","",""
"","response","","html-keyboard-response","241","322875","0.0-1.0-329.0","0","0","23629","","747","","","75","36","","","1","36","training","adjacent","FG","6","7","Q.jpg","O.jpg","1","1","1","",""
"","feedback","","html-keyboard-response","242","323879","0.0-1.0-330.0-0.0","0","0","23629","","null","","","null","36","","","","","","","","","","","","","","","",""
"","ITI","","html-keyboard-response","243","324883","0.0-1.0-333.0","0","0","23629","","null","","","null","36","","","","","","","","","","","","","","","NaN",""
"","S1","","html-keyboard-response","244","325135","0.0-1.0-335.0","0","0","23629","","null","","","null","37","","","","","","","","","","","","","","","",""
"","ISI","","html-keyboard-response","245","327138","0.0-1.0-336.0","0","0","23629","","null","","","null","37","NaN","","","","","","","","","","","","","","",""
"","S2","","html-keyboard-response","246","327390","0.0-1.0-337.0","0","0","23629","","null","","","null","37","","NaN","","","","","","","","","","","","","",""
"","response","","html-keyboard-response","247","328050","0.0-1.0-338.0","0","0","23629","","659","","","75","37","","","1","37","training","adjacent","FG","6","7","Q.jpg","O.jpg","1","1","1","",""
"","feedback","","html-keyboard-response","248","329057","0.0-1.0-339.0-0.0","0","0","23629","","null","","","null","37","","","","","","","","","","","","","","","",""
"","ITI","","html-keyboard-response","249","330059","0.0-1.0-342.0","0","0","23629","","null","","","null","37","","","","","","","","","","","","","","","NaN",""
"","S1","","html-keyboard-response","250","330314","0.0-1.0-344.0","0","0","23629","","null","","","null","38","","","","","","","","","","","","","","","",""
"","ISI","","html-keyboard-response","251","332318","0.0-1.0-345.0","0","0","23629","","null","","","null","38","NaN","","","","","","","","","","","","","","",""
"","S2","","html-keyboard-response","252","332570","0.0-1.0-346.0","0","0","23629","","null","","","null","38","","NaN","","","","","","","","","","","","","",""
"","response","","html-keyboard-response","253","333550","0.0-1.0-347.0","0","0","23629","","979","","","75","38","","","1","38","training","adjacent","DE","4","5","P.jpg","N.jpg","1","1","1","",""
"","feedback","","html-keyboard-response","254","334554","0.0-1.0-348.0-0.0","0","0","23629","","null","","","null","38","","","","","","","","","","","","","","","",""
"","ITI","","html-keyboard-response","255","335557","0.0-1.0-351.0","0","0","23629","","null","","","null","38","","","","","","","","","","","","","","","NaN",""
"","S1","","html-keyboard-response","256","335810","0.0-1.0-353.0","0","0","23629","","null","","","null","39","","","","","","","","","","","","","","","",""
"","ISI","","html-keyboard-response","257","337813","0.0-1.0-354.0","0","0","23629","","null","","","null","39","NaN","","","","","","","","","","","","","","",""
"","S2","","html-keyboard-response","258","338065","0.0-1.0-355.0","0","0","23629","","null","","","null","39","","NaN","","","","","","","","","","","","","",""
"","response","","html-keyboard-response","259","338485","0.0-1.0-356.0","0","0","23629","","418","","","75","39","","","1","39","training","adjacent","FG","6","7","Q.jpg","O.jpg","1","1","1","",""
"","feedback","","html-keyboard-response","260","339487","0.0-1.0-357.0-0.0","0","0","23629","","null","","","null","39","","","","","","","","","","","","","","","",""
"","ITI","","html-keyboard-response","261","340489","0.0-1.0-360.0","0","0","23629","","null","","","null","39","","","","","","","","","","","","","","","NaN",""
"","S1","","html-keyboard-response","262","340743","0.0-1.0-362.0","0","0","23629","","null","","","null","40","","","","","","","","","","","","","","","",""
"","ISI","","html-keyboard-response","263","342747","0.0-1.0-363.0","0","0","23629","","null","","","null","40","NaN","","","","","","","","","","","","","","",""
"","S2","","html-keyboard-response","264","343001","0.0-1.0-364.0","0","0","23629","","null","","","null","40","","NaN","","","","","","","","","","","","","",""
"","response","","html-keyboard-response","265","343882","0.0-1.0-365.0","0","0","23629","","880","","","75","40","","","1","40","training","adjacent","FE","6","5","Q.jpg","N.jpg","1","0","0","",""
"","feedback","","html-keyboard-response","266","344884","0.0-1.0-366.0-0.0","0","0","23629","","null","","","null","40","","","","","","","","","","","","","","","",""
"","time_out","","html-keyboard-response","267","346888","0.0-1.0-368.0-0.0","0","0","23629","","null","","","null","40","","","","","","","","","","","","","","","",""
"","ITI","","html-keyboard-response","268","347910","0.0-1.0-369.0","0","0","23629","","null","","","null","40","","","","","","","","","","","","","","","NaN",""
"","S1","","html-keyboard-response","269","348164","0.0-1.0-371.0","0","0","23629","","null","","","null","41","","","","","","","","","","","","","","","",""
"","ISI","","html-keyboard-response","270","350167","0.0-1.0-372.0","0","0","23629","","null","","","null","41","NaN","","","","","","","","","","","","","","",""
"","S2","","html-keyboard-response","271","350419","0.0-1.0-373.0","0","0","23629","","null","","","null","41","","NaN","","","","","","","","","","","","","",""
"","response","","html-keyboard-response","272","351345","0.0-1.0-374.0","0","0","23629","","924","","","68","41","","","1","41","training","adjacent","BA","2","1","M.jpg","L.jpg","0","0","1","",""
"","feedback","","html-keyboard-response","273","352348","0.0-1.0-375.0-0.0","0","0","23629","","null","","","null","41","","","","","","","","","","","","","","","",""
"","ITI","","html-keyboard-response","274","353350","0.0-1.0-378.0","0","0","23629","","null","","","null","41","","","","","","","","","","","","","","","NaN",""
"","S1","","html-keyboard-response","275","353603","0.0-1.0-380.0","0","0","23629","","null","","","null","42","","","","","","","","","","","","","","","",""
"","ISI","","html-keyboard-response","276","355605","0.0-1.0-381.0","0","0","23629","","null","","","null","42","NaN","","","","","","","","","","","","","","",""
"","S2","","html-keyboard-response","277","355859","0.0-1.0-382.0","0","0","23629","","null","","","null","42","","NaN","","","","","","","","","","","","","",""
"","response","","html-keyboard-response","278","356619","0.0-1.0-383.0","0","0","23629","","758","","","68","42","","","1","42","training","adjacent","FE","6","5","Q.jpg","N.jpg","0","0","1","",""
"","feedback","","html-keyboard-response","279","357633","0.0-1.0-384.0-0.0","0","0","23629","","null","","","null","42","","","","","","","","","","","","","","","",""
"","ITI","","html-keyboard-response","280","358637","0.0-1.0-387.0","0","0","23629","","null","","","null","42","","","","","","","","","","","","","","","NaN",""
"","S1","","html-keyboard-response","281","358889","0.0-1.0-389.0","0","0","23629","","null","","","null","43","","","","","","","","","","","","","","","",""
"","ISI","","html-keyboard-response","282","360895","0.0-1.0-390.0","0","0","23629","","null","","","null","43","NaN","","","","","","","","","","","","","","",""
"","S2","","html-keyboard-response","283","361147","0.0-1.0-391.0","0","0","23629","","null","","","null","43","","NaN","","","","","","","","","","","","","",""
"","response","","html-keyboard-response","284","361932","0.0-1.0-392.0","0","0","23629","","783","","","68","43","","","1","43","training","adjacent","DC","4","3","P.jpg","R.jpg","0","0","1","",""
"","feedback","","html-keyboard-response","285","362934","0.0-1.0-393.0-0.0","0","0","23629","","null","","","null","43","","","","","","","","","","","","","","","",""
"","ITI","","html-keyboard-response","286","363937","0.0-1.0-396.0","0","0","23629","","null","","","null","43","","","","","","","","","","","","","","","NaN",""
"","S1","","html-keyboard-response","287","364190","0.0-1.0-398.0","0","0","23629","","null","","","null","44","","","","","","","","","","","","","","","",""
"","ISI","","html-keyboard-response","288","366194","0.0-1.0-399.0","0","0","23629","","null","","","null","44","NaN","","","","","","","","","","","","","","",""
"","S2","","html-keyboard-response","289","366448","0.0-1.0-400.0","0","0","23629","","null","","","null","44","","NaN","","","","","","","","","","","","","",""
"","response","","html-keyboard-response","290","366960","0.0-1.0-401.0","0","0","23629","","511","","","75","44","","","1","44","training","adjacent","AB","1","2","L.jpg","M.jpg","1","1","1","",""
"","feedback","","html-keyboard-response","291","367963","0.0-1.0-402.0-0.0","0","0","23629","","null","","","null","44","","","","","","","","","","","","","","","",""
"","ITI","","html-keyboard-response","292","368966","0.0-1.0-405.0","0","0","23629","","null","","","null","44","","","","","","","","","","","","","","","NaN",""
"","S1","","html-keyboard-response","293","369218","0.0-1.0-407.0","0","0","23629","","null","","","null","45","","","","","","","","","","","","","","","",""
"","ISI","","html-keyboard-response","294","371220","0.0-1.0-408.0","0","0","23629","","null","","","null","45","NaN","","","","","","","","","","","","","","",""
"","S2","","html-keyboard-response","295","371472","0.0-1.0-409.0","0","0","23629","","null","","","null","45","","NaN","","","","","","","","","","","","","",""
"","response","","html-keyboard-response","296","372369","0.0-1.0-410.0","0","0","23629","","896","","","75","45","","","1","45","training","adjacent","ED","5","4","N.jpg","P.jpg","1","0","0","",""
"","feedback","","html-keyboard-response","297","373371","0.0-1.0-411.0-0.0","0","0","23629","","null","","","null","45","","","","","","","","","","","","","","","",""
"","time_out","","html-keyboard-response","298","375373","0.0-1.0-413.0-0.0","0","0","23629","","null","","","null","45","","","","","","","","","","","","","","","",""
"","ITI","","html-keyboard-response","299","376376","0.0-1.0-414.0","0","0","23629","","null","","","null","45","","","","","","","","","","","","","","","NaN",""
"","S1","","html-keyboard-response","300","376630","0.0-1.0-416.0","0","0","23629","","null","","","null","46","","","","","","","","","","","","","","","",""
"","ISI","","html-keyboard-response","301","378633","0.0-1.0-417.0","0","0","23629","","null","","","null","46","NaN","","","","","","","","","","","","","","",""
"","S2","","html-keyboard-response","302","378885","0.0-1.0-418.0","0","0","23629","","null","","","null","46","","NaN","","","","","","","","","","","","","",""
"","response","","html-keyboard-response","303","379471","0.0-1.0-419.0","0","0","23629","","584","","","68","46","","","1","46","training","adjacent","ED","5","4","N.jpg","P.jpg","0","0","1","",""
"","feedback","","html-keyboard-response","304","380472","0.0-1.0-420.0-0.0","0","0","23629","","null","","","null","46","","","","","","","","","","","","","","","",""
"","ITI","","html-keyboard-response","305","381474","0.0-1.0-423.0","0","0","23629","","null","","","null","46","","","","","","","","","","","","","","","NaN",""
"","S1","","html-keyboard-response","306","381727","0.0-1.0-425.0","0","0","23629","","null","","","null","47","","","","","","","","","","","","","","","",""
"","ISI","","html-keyboard-response","307","383731","0.0-1.0-426.0","0","0","23629","","null","","","null","47","NaN","","","","","","","","","","","","","","",""
"","S2","","html-keyboard-response","308","383983","0.0-1.0-427.0","0","0","23629","","null","","","null","47","","NaN","","","","","","","","","","","","","",""
"","response","","html-keyboard-response","309","385086","0.0-1.0-428.0","0","0","23629","","1102","","","68","47","","","1","47","training","adjacent","BC","2","3","M.jpg","R.jpg","0","1","0","",""
"","feedback","","html-keyboard-response","310","386089","0.0-1.0-429.0-0.0","0","0","23629","","null","","","null","47","","","","","","","","","","","","","","","",""
"","time_out","","html-keyboard-response","311","388093","0.0-1.0-431.0-0.0","0","0","23629","","null","","","null","47","","","","","","","","","","","","","","","",""
"","ITI","","html-keyboard-response","312","389098","0.0-1.0-432.0","0","0","23629","","null","","","null","47","","","","","","","","","","","","","","","NaN",""
"","block_over","","html-keyboard-response","313","402413","0.0-1.0-433.0-0.0","0","0","23629","","13312","","","32","47","","","","","","","","","","","","","","","",""
"","S1","","html-keyboard-response","314","402665","0.0-1.0-434.0","0","0","23629","","null","","","null","48","","","","","","","","","","","","","","","",""
"","ISI","","html-keyboard-response","315","404667","0.0-1.0-435.0","0","0","23629","","null","","","null","48","NaN","","","","","","","","","","","","","","",""
"","S2","","html-keyboard-response","316","404919","0.0-1.0-436.0","0","0","23629","","null","","","null","48","","NaN","","","","","","","","","","","","","",""
"","response","","html-keyboard-response","317","406040","0.0-1.0-437.0","0","0","23629","","1121","","","68","48","","","2","48","training","adjacent","GF","7","6","O.jpg","Q.jpg","0","0","1","",""
"","feedback","","html-keyboard-response","318","407044","0.0-1.0-438.0-0.0","0","0","23629","","null","","","null","48","","","","","","","","","","","","","","","",""
"","ITI","","html-keyboard-response","319","408048","0.0-1.0-441.0","0","0","23629","","null","","","null","48","","","","","","","","","","","","","","","NaN",""
"","S1","","html-keyboard-response","320","408300","0.0-1.0-443.0","0","0","23629","","null","","","null","49","","","","","","","","","","","","","","","",""
"","ISI","","html-keyboard-response","321","410303","0.0-1.0-444.0","0","0","23629","","null","","","null","49","NaN","","","","","","","","","","","","","","",""
"","S2","","html-keyboard-response","322","410557","0.0-1.0-445.0","0","0","23629","","null","","","null","49","","NaN","","","","","","","","","","","","","",""
"","response","","html-keyboard-response","323","411735","0.0-1.0-446.0","0","0","23629","","1177","","","68","49","","","2","49","training","adjacent","ED","5","4","N.jpg","P.jpg","0","0","1","",""
"","feedback","","html-keyboard-response","324","412738","0.0-1.0-447.0-0.0","0","0","23629","","null","","","null","49","","","","","","","","","","","","","","","",""
"","ITI","","html-keyboard-response","325","413745","0.0-1.0-450.0","0","0","23629","","null","","","null","49","","","","","","","","","","","","","","","NaN",""
"","S1","","html-keyboard-response","326","414000","0.0-1.0-452.0","0","0","23629","","null","","","null","50","","","","","","","","","","","","","","","",""
"","ISI","","html-keyboard-response","327","416003","0.0-1.0-453.0","0","0","23629","","null","","","null","50","NaN","","","","","","","","","","","","","","",""
"","S2","","html-keyboard-response","328","416255","0.0-1.0-454.0","0","0","23629","","null","","","null","50","","NaN","","","","","","","","","","","","","",""
"","response","","html-keyboard-response","329","416927","0.0-1.0-455.0","0","0","23629","","670","","","75","50","","","2","50","training","adjacent","CD","3","4","R.jpg","P.jpg","1","1","1","",""
"","feedback","","html-keyboard-response","330","417932","0.0-1.0-456.0-0.0","0","0","23629","","null","","","null","50","","","","","","","","","","","","","","","",""
"","ITI","","html-keyboard-response","331","418936","0.0-1.0-459.0","0","0","23629","","null","","","null","50","","","","","","","","","","","","","","","NaN",""
"","S1","","html-keyboard-response","332","419189","0.0-1.0-461.0","0","0","23629","","null","","","null","51","","","","","","","","","","","","","","","",""
"","ISI","","html-keyboard-response","333","421193","0.0-1.0-462.0","0","0","23629","","null","","","null","51","NaN","","","","","","","","","","","","","","",""
"","S2","","html-keyboard-response","334","421445","0.0-1.0-463.0","0","0","23629","","null","","","null","51","","NaN","","","","","","","","","","","","","",""
"","response","","html-keyboard-response","335","422040","0.0-1.0-464.0","0","0","23629","","594","","","75","51","","","2","51","training","adjacent","BC","2","3","M.jpg","R.jpg","1","1","1","",""
"","feedback","","html-keyboard-response","336","423043","0.0-1.0-465.0-0.0","0","0","23629","","null","","","null","51","","","","","","","","","","","","","","","",""
"","ITI","","html-keyboard-response","337","424046","0.0-1.0-468.0","0","0","23629","","null","","","null","51","","","","","","","","","","","","","","","NaN",""
"","S1","","html-keyboard-response","338","424299","0.0-1.0-470.0","0","0","23629","","null","","","null","52","","","","","","","","","","","","","","","",""
"","ISI","","html-keyboard-response","339","426302","0.0-1.0-471.0","0","0","23629","","null","","","null","52","NaN","","","","","","","","","","","","","","",""
"","S2","","html-keyboard-response","340","426555","0.0-1.0-472.0","0","0","23629","","null","","","null","52","","NaN","","","","","","","","","","","","","",""
"","response","","html-keyboard-response","341","427996","0.0-1.0-473.0","0","0","23629","","1438","","","68","52","","","2","52","training","adjacent","FE","6","5","Q.jpg","N.jpg","0","0","1","",""
"","feedback","","html-keyboard-response","342","428999","0.0-1.0-474.0-0.0","0","0","23629","","null","","","null","52","","","","","","","","","","","","","","","",""
"","ITI","","html-keyboard-response","343","430009","0.0-1.0-477.0","0","0","23629","","null","","","null","52","","","","","","","","","","","","","","","NaN",""
"","S1","","html-keyboard-response","344","430262","0.0-1.0-479.0","0","0","23629","","null","","","null","53","","","","","","","","","","","","","","","",""
"","ISI","","html-keyboard-response","345","432267","0.0-1.0-480.0","0","0","23629","","null","","","null","53","NaN","","","","","","","","","","","","","","",""
"","S2","","html-keyboard-response","346","432520","0.0-1.0-481.0","0","0","23629","","null","","","null","53","","NaN","","","","","","","","","","","","","",""
"","response","","html-keyboard-response","347","433581","0.0-1.0-482.0","0","0","23629","","1059","","","68","53","","","2","53","training","adjacent","DE","4","5","P.jpg","N.jpg","0","1","0","",""
"","feedback","","html-keyboard-response","348","434583","0.0-1.0-483.0-0.0","0","0","23629","","null","","","null","53","","","","","","","","","","","","","","","",""
"","time_out","","html-keyboard-response","349","436585","0.0-1.0-485.0-0.0","0","0","23629","","null","","","null","53","","","","","","","","","","","","","","","",""
"","ITI","","html-keyboard-response","350","437587","0.0-1.0-486.0","0","0","23629","","null","","","null","53","","","","","","","","","","","","","","","NaN",""
"","S1","","html-keyboard-response","351","437840","0.0-1.0-488.0","0","0","23629","","null","","","null","54","","","","","","","","","","","","","","","",""
"","ISI","","html-keyboard-response","352","439844","0.0-1.0-489.0","0","0","23629","","null","","","null","54","NaN","","","","","","","","","","","","","","",""
"","S2","","html-keyboard-response","353","440096","0.0-1.0-490.0","0","0","23629","","null","","","null","54","","NaN","","","","","","","","","","","","","",""
"","response","","html-keyboard-response","354","441323","0.0-1.0-491.0","0","0","23629","","1226","","","75","54","","","2","54","training","adjacent","GF","7","6","O.jpg","Q.jpg","1","0","0","",""
"","feedback","","html-keyboard-response","355","442327","0.0-1.0-492.0-0.0","0","0","23629","","null","","","null","54","","","","","","","","","","","","","","","",""
"","time_out","","html-keyboard-response","356","444338","0.0-1.0-494.0-0.0","0","0","23629","","null","","","null","54","","","","","","","","","","","","","","","",""
"","ITI","","html-keyboard-response","357","445339","0.0-1.0-495.0","0","0","23629","","null","","","null","54","","","","","","","","","","","","","","","NaN",""
"","S1","","html-keyboard-response","358","445592","0.0-1.0-497.0","0","0","23629","","null","","","null","55","","","","","","","","","","","","","","","",""
"","ISI","","html-keyboard-response","359","447596","0.0-1.0-498.0","0","0","23629","","null","","","null","55","NaN","","","","","","","","","","","","","","",""
"","S2","","html-keyboard-response","360","447849","0.0-1.0-499.0","0","0","23629","","null","","","null","55","","NaN","","","","","","","","","","","","","",""
"","response","","html-keyboard-response","361","449168","0.0-1.0-500.0","0","0","23629","","1317","","","68","55","","","2","55","training","adjacent","EF","5","6","N.jpg","Q.jpg","0","1","0","",""
"","feedback","","html-keyboard-response","362","450171","0.0-1.0-501.0-0.0","0","0","23629","","null","","","null","55","","","","","","","","","","","","","","","",""
"","time_out","","html-keyboard-response","363","452175","0.0-1.0-503.0-0.0","0","0","23629","","null","","","null","55","","","","","","","","","","","","","","","",""
"","ITI","","html-keyboard-response","364","453178","0.0-1.0-504.0","0","0","23629","","null","","","null","55","","","","","","","","","","","","","","","NaN",""
"","S1","","html-keyboard-response","365","453431","0.0-1.0-506.0","0","0","23629","","null","","","null","56","","","","","","","","","","","","","","","",""
"","ISI","","html-keyboard-response","366","455434","0.0-1.0-507.0","0","0","23629","","null","","","null","56","NaN","","","","","","","","","","","","","","",""
"","S2","","html-keyboard-response","367","455688","0.0-1.0-508.0","0","0","23629","","null","","","null","56","","NaN","","","","","","","","","","","","","",""
"","response","","html-keyboard-response","368","456550","0.0-1.0-509.0","0","0","23629","","861","","","68","56","","","2","56","training","adjacent","GF","7","6","O.jpg","Q.jpg","0","0","1","",""
"","feedback","","html-keyboard-response","369","457553","0.0-1.0-510.0-0.0","0","0","23629","","null","","","null","56","","","","","","","","","","","","","","","",""
"","ITI","","html-keyboard-response","370","458562","0.0-1.0-513.0","0","0","23629","","null","","","null","56","","","","","","","","","","","","","","","NaN",""
"","S1","","html-keyboard-response","371","458818","0.0-1.0-515.0","0","0","23629","","null","","","null","57","","","","","","","","","","","","","","","",""
"","ISI","","html-keyboard-response","372","460819","0.0-1.0-516.0","0","0","23629","","null","","","null","57","NaN","","","","","","","","","","","","","","",""
"","S2","","html-keyboard-response","373","461072","0.0-1.0-517.0","0","0","23629","","null","","","null","57","","NaN","","","","","","","","","","","","","",""
"","response","","html-keyboard-response","374","461691","0.0-1.0-518.0","0","0","23629","","618","","","75","57","","","2","57","training","adjacent","CD","3","4","R.jpg","P.jpg","1","1","1","",""
"","feedback","","html-keyboard-response","375","462694","0.0-1.0-519.0-0.0","0","0","23629","","null","","","null","57","","","","","","","","","","","","","","","",""
"","ITI","","html-keyboard-response","376","463698","0.0-1.0-522.0","0","0","23629","","null","","","null","57","","","","","","","","","","","","","","","NaN",""
"","S1","","html-keyboard-response","377","463950","0.0-1.0-524.0","0","0","23629","","null","","","null","58","","","","","","","","","","","","","","","",""
"","ISI","","html-keyboard-response","378","465952","0.0-1.0-525.0","0","0","23629","","null","","","null","58","NaN","","","","","","","","","","","","","","",""
"","S2","","html-keyboard-response","379","466205","0.0-1.0-526.0","0","0","23629","","null","","","null","58","","NaN","","","","","","","","","","","","","",""
"","response","","html-keyboard-response","380","467032","0.0-1.0-527.0","0","0","23629","","826","","","68","58","","","2","58","training","adjacent","DC","4","3","P.jpg","R.jpg","0","0","1","",""
"","feedback","","html-keyboard-response","381","468036","0.0-1.0-528.0-0.0","0","0","23629","","null","","","null","58","","","","","","","","","","","","","","","",""
"","ITI","","html-keyboard-response","382","469039","0.0-1.0-531.0","0","0","23629","","null","","","null","58","","","","","","","","","","","","","","","NaN",""
"","S1","","html-keyboard-response","383","469292","0.0-1.0-533.0","0","0","23629","","null","","","null","59","","","","","","","","","","","","","","","",""
"","ISI","","html-keyboard-response","384","471294","0.0-1.0-534.0","0","0","23629","","null","","","null","59","NaN","","","","","","","","","","","","","","",""
"","S2","","html-keyboard-response","385","471551","0.0-1.0-535.0","0","0","23629","","null","","","null","59","","NaN","","","","","","","","","","","","","",""
"","response","","html-keyboard-response","386","472084","0.0-1.0-536.0","0","0","23629","","531","","","75","59","","","2","59","training","adjacent","CD","3","4","R.jpg","P.jpg","1","1","1","",""
"","feedback","","html-keyboard-response","387","473116","0.0-1.0-537.0-0.0","0","0","23629","","null","","","null","59","","","","","","","","","","","","","","","",""
"","ITI","","html-keyboard-response","388","474133","0.0-1.0-540.0","0","0","23629","","null","","","null","59","","","","","","","","","","","","","","","NaN",""
"","S1","","html-keyboard-response","389","474387","0.0-1.0-542.0","0","0","23629","","null","","","null","60","","","","","","","","","","","","","","","",""
"","ISI","","html-keyboard-response","390","476391","0.0-1.0-543.0","0","0","23629","","null","","","null","60","NaN","","","","","","","","","","","","","","",""
"","S2","","html-keyboard-response","391","476643","0.0-1.0-544.0","0","0","23629","","null","","","null","60","","NaN","","","","","","","","","","","","","",""
"","response","","html-keyboard-response","392","477730","0.0-1.0-545.0","0","0","23629","","1086","","","75","60","","","2","60","training","adjacent","EF","5","6","N.jpg","Q.jpg","1","1","1","",""
"","feedback","","html-keyboard-response","393","478733","0.0-1.0-546.0-0.0","0","0","23629","","null","","","null","60","","","","","","","","","","","","","","","",""
"","ITI","","html-keyboard-response","394","479738","0.0-1.0-549.0","0","0","23629","","null","","","null","60","","","","","","","","","","","","","","","NaN",""
"","S1","","html-keyboard-response","395","479991","0.0-1.0-551.0","0","0","23629","","null","","","null","61","","","","","","","","","","","","","","","",""
"","ISI","","html-keyboard-response","396","481999","0.0-1.0-552.0","0","0","23629","","null","","","null","61","NaN","","","","","","","","","","","","","","",""
"","S2","","html-keyboard-response","397","482253","0.0-1.0-553.0","0","0","23629","","null","","","null","61","","NaN","","","","","","","","","","","","","",""
"","response","","html-keyboard-response","398","483168","0.0-1.0-554.0","0","0","23629","","913","","","68","61","","","2","61","training","adjacent","CB","3","2","R.jpg","M.jpg","0","0","1","",""
"","feedback","","html-keyboard-response","399","484170","0.0-1.0-555.0-0.0","0","0","23629","","null","","","null","61","","","","","","","","","","","","","","","",""
"","ITI","","html-keyboard-response","400","485177","0.0-1.0-558.0","0","0","23629","","null","","","null","61","","","","","","","","","","","","","","","NaN",""
"","S1","","html-keyboard-response","401","485431","0.0-1.0-560.0","0","0","23629","","null","","","null","62","","","","","","","","","","","","","","","",""
"","ISI","","html-keyboard-response","402","487433","0.0-1.0-561.0","0","0","23629","","null","","","null","62","NaN","","","","","","","","","","","","","","",""
"","S2","","html-keyboard-response","403","487687","0.0-1.0-562.0","0","0","23629","","null","","","null","62","","NaN","","","","","","","","","","","","","",""
"","response","","html-keyboard-response","404","488689","0.0-1.0-563.0","0","0","23629","","1000","","","68","62","","","2","62","training","adjacent","ED","5","4","N.jpg","P.jpg","0","0","1","",""
"","feedback","","html-keyboard-response","405","489693","0.0-1.0-564.0-0.0","0","0","23629","","null","","","null","62","","","","","","","","","","","","","","","",""
"","ITI","","html-keyboard-response","406","490696","0.0-1.0-567.0","0","0","23629","","null","","","null","62","","","","","","","","","","","","","","","NaN",""
"","S1","","html-keyboard-response","407","490950","0.0-1.0-569.0","0","0","23629","","null","","","null","63","","","","","","","","","","","","","","","",""
"","ISI","","html-keyboard-response","408","492953","0.0-1.0-570.0","0","0","23629","","null","","","null","63","NaN","","","","","","","","","","","","","","",""
"","S2","","html-keyboard-response","409","493205","0.0-1.0-571.0","0","0","23629","","null","","","null","63","","NaN","","","","","","","","","","","","","",""
"","response","","html-keyboard-response","410","493750","0.0-1.0-572.0","0","0","23629","","543","","","68","63","","","2","63","training","adjacent","BA","2","1","M.jpg","L.jpg","0","0","1","",""
"","feedback","","html-keyboard-response","411","494760","0.0-1.0-573.0-0.0","0","0","23629","","null","","","null","63","","","","","","","","","","","","","","","",""
"","ITI","","html-keyboard-response","412","495765","0.0-1.0-576.0","0","0","23629","","null","","","null","63","","","","","","","","","","","","","","","NaN",""
"","S1","","html-keyboard-response","413","496017","0.0-1.0-578.0","0","0","23629","","null","","","null","64","","","","","","","","","","","","","","","",""
"","ISI","","html-keyboard-response","414","498020","0.0-1.0-579.0","0","0","23629","","null","","","null","64","NaN","","","","","","","","","","","","","","",""
"","S2","","html-keyboard-response","415","498274","0.0-1.0-580.0","0","0","23629","","null","","","null","64","","NaN","","","","","","","","","","","","","",""
"","response","","html-keyboard-response","416","498702","0.0-1.0-581.0","0","0","23629","","427","","","68","64","","","2","64","training","adjacent","GF","7","6","O.jpg","Q.jpg","0","0","1","",""
"","feedback","","html-keyboard-response","417","499705","0.0-1.0-582.0-0.0","0","0","23629","","null","","","null","64","","","","","","","","","","","","","","","",""
"","ITI","","html-keyboard-response","418","500710","0.0-1.0-585.0","0","0","23629","","null","","","null","64","","","","","","","","","","","","","","","NaN",""
"","S1","","html-keyboard-response","419","500963","0.0-1.0-587.0","0","0","23629","","null","","","null","65","","","","","","","","","","","","","","","",""
"","ISI","","html-keyboard-response","420","502964","0.0-1.0-588.0","0","0","23629","","null","","","null","65","NaN","","","","","","","","","","","","","","",""
"","S2","","html-keyboard-response","421","503217","0.0-1.0-589.0","0","0","23629","","null","","","null","65","","NaN","","","","","","","","","","","","","",""
"","response","","html-keyboard-response","422","503745","0.0-1.0-590.0","0","0","23629","","522","","","68","65","","","2","65","training","adjacent","DC","4","3","P.jpg","R.jpg","0","0","1","",""
"","feedback","","html-keyboard-response","423","504750","0.0-1.0-591.0-0.0","0","0","23629","","null","","","null","65","","","","","","","","","","","","","","","",""
"","ITI","","html-keyboard-response","424","505752","0.0-1.0-594.0","0","0","23629","","null","","","null","65","","","","","","","","","","","","","","","NaN",""
"","S1","","html-keyboard-response","425","506006","0.0-1.0-596.0","0","0","23629","","null","","","null","66","","","","","","","","","","","","","","","",""
"","ISI","","html-keyboard-response","426","508007","0.0-1.0-597.0","0","0","23629","","null","","","null","66","NaN","","","","","","","","","","","","","","",""
"","S2","","html-keyboard-response","427","508259","0.0-1.0-598.0","0","0","23629","","null","","","null","66","","NaN","","","","","","","","","","","","","",""
"","response","","html-keyboard-response","428","509001","0.0-1.0-599.0","0","0","23629","","741","","","68","66","","","2","66","training","adjacent","CB","3","2","R.jpg","M.jpg","0","0","1","",""
"","feedback","","html-keyboard-response","429","510004","0.0-1.0-600.0-0.0","0","0","23629","","null","","","null","66","","","","","","","","","","","","","","","",""
"","ITI","","html-keyboard-response","430","511007","0.0-1.0-603.0","0","0","23629","","null","","","null","66","","","","","","","","","","","","","","","NaN",""
"","S1","","html-keyboard-response","431","511259","0.0-1.0-605.0","0","0","23629","","null","","","null","67","","","","","","","","","","","","","","","",""
"","ISI","","html-keyboard-response","432","513261","0.0-1.0-606.0","0","0","23629","","null","","","null","67","NaN","","","","","","","","","","","","","","",""
"","S2","","html-keyboard-response","433","513513","0.0-1.0-607.0","0","0","23629","","null","","","null","67","","NaN","","","","","","","","","","","","","",""
"","response","","html-keyboard-response","434","513968","0.0-1.0-608.0","0","0","23629","","455","","","68","67","","","2","67","training","adjacent","ED","5","4","N.jpg","P.jpg","0","0","1","",""
"","feedback","","html-keyboard-response","435","514974","0.0-1.0-609.0-0.0","0","0","23629","","null","","","null","67","","","","","","","","","","","","","","","",""
"","ITI","","html-keyboard-response","436","515976","0.0-1.0-612.0","0","0","23629","","null","","","null","67","","","","","","","","","","","","","","","NaN",""
"","S1","","html-keyboard-response","437","516228","0.0-1.0-614.0","0","0","23629","","null","","","null","68","","","","","","","","","","","","","","","",""
"","ISI","","html-keyboard-response","438","518232","0.0-1.0-615.0","0","0","23629","","null","","","null","68","NaN","","","","","","","","","","","","","","",""
"","S2","","html-keyboard-response","439","518485","0.0-1.0-616.0","0","0","23629","","null","","","null","68","","NaN","","","","","","","","","","","","","",""
"","response","","html-keyboard-response","440","518971","0.0-1.0-617.0","0","0","23629","","485","","","75","68","","","2","68","training","adjacent","DE","4","5","P.jpg","N.jpg","1","1","1","",""
"","feedback","","html-keyboard-response","441","519973","0.0-1.0-618.0-0.0","0","0","23629","","null","","","null","68","","","","","","","","","","","","","","","",""
"","ITI","","html-keyboard-response","442","520976","0.0-1.0-621.0","0","0","23629","","null","","","null","68","","","","","","","","","","","","","","","NaN",""
"","S1","","html-keyboard-response","443","521229","0.0-1.0-623.0","0","0","23629","","null","","","null","69","","","","","","","","","","","","","","","",""
"","ISI","","html-keyboard-response","444","523231","0.0-1.0-624.0","0","0","23629","","null","","","null","69","NaN","","","","","","","","","","","","","","",""
"","S2","","html-keyboard-response","445","523496","0.0-1.0-625.0","0","0","23629","","null","","","null","69","","NaN","","","","","","","","","","","","","",""
"","response","","html-keyboard-response","446","523857","0.0-1.0-626.0","0","0","23629","","360","","","75","69","","","2","69","training","adjacent","BC","2","3","M.jpg","R.jpg","1","1","1","",""
"","feedback","","html-keyboard-response","447","524860","0.0-1.0-627.0-0.0","0","0","23629","","null","","","null","69","","","","","","","","","","","","","","","",""
"","ITI","","html-keyboard-response","448","525865","0.0-1.0-630.0","0","0","23629","","null","","","null","69","","","","","","","","","","","","","","","NaN",""
"","S1","","html-keyboard-response","449","526117","0.0-1.0-632.0","0","0","23629","","null","","","null","70","","","","","","","","","","","","","","","",""
"","ISI","","html-keyboard-response","450","528125","0.0-1.0-633.0","0","0","23629","","null","","","null","70","NaN","","","","","","","","","","","","","","",""
"","S2","","html-keyboard-response","451","528386","0.0-1.0-634.0","0","0","23629","","null","","","null","70","","NaN","","","","","","","","","","","","","",""
"","response","","html-keyboard-response","452","529170","0.0-1.0-635.0","0","0","23629","","782","","","75","70","","","2","70","training","adjacent","AB","1","2","L.jpg","M.jpg","1","1","1","",""
"","feedback","","html-keyboard-response","453","530173","0.0-1.0-636.0-0.0","0","0","23629","","null","","","null","70","","","","","","","","","","","","","","","",""
"","ITI","","html-keyboard-response","454","531175","0.0-1.0-639.0","0","0","23629","","null","","","null","70","","","","","","","","","","","","","","","NaN",""
"","S1","","html-keyboard-response","455","531428","0.0-1.0-641.0","0","0","23629","","null","","","null","71","","","","","","","","","","","","","","","",""
"","ISI","","html-keyboard-response","456","533436","0.0-1.0-642.0","0","0","23629","","null","","","null","71","NaN","","","","","","","","","","","","","","",""
"","S2","","html-keyboard-response","457","533688","0.0-1.0-643.0","0","0","23629","","null","","","null","71","","NaN","","","","","","","","","","","","","",""
"","response","","html-keyboard-response","458","534859","0.0-1.0-644.0","0","0","23629","","1170","","","68","71","","","2","71","training","adjacent","ED","5","4","N.jpg","P.jpg","0","0","1","",""
"","feedback","","html-keyboard-response","459","535861","0.0-1.0-645.0-0.0","0","0","23629","","null","","","null","71","","","","","","","","","","","","","","","",""
"","ITI","","html-keyboard-response","460","536864","0.0-1.0-648.0","0","0","23629","","null","","","null","71","","","","","","","","","","","","","","","NaN",""
"","S1","","html-keyboard-response","461","537119","0.0-1.0-650.0","0","0","23629","","null","","","null","72","","","","","","","","","","","","","","","",""
"","ISI","","html-keyboard-response","462","539121","0.0-1.0-651.0","0","0","23629","","null","","","null","72","NaN","","","","","","","","","","","","","","",""
"","S2","","html-keyboard-response","463","539374","0.0-1.0-652.0","0","0","23629","","null","","","null","72","","NaN","","","","","","","","","","","","","",""
"","response","","html-keyboard-response","464","540218","0.0-1.0-653.0","0","0","23629","","842","","","75","72","","","2","72","training","adjacent","FG","6","7","Q.jpg","O.jpg","1","1","1","",""
"","feedback","","html-keyboard-response","465","541221","0.0-1.0-654.0-0.0","0","0","23629","","null","","","null","72","","","","","","","","","","","","","","","",""
"","ITI","","html-keyboard-response","466","542224","0.0-1.0-657.0","0","0","23629","","null","","","null","72","","","","","","","","","","","","","","","NaN",""
"","S1","","html-keyboard-response","467","542478","0.0-1.0-659.0","0","0","23629","","null","","","null","73","","","","","","","","","","","","","","","",""
"","ISI","","html-keyboard-response","468","544483","0.0-1.0-660.0","0","0","23629","","null","","","null","73","NaN","","","","","","","","","","","","","","",""
"","S2","","html-keyboard-response","469","544735","0.0-1.0-661.0","0","0","23629","","null","","","null","73","","NaN","","","","","","","","","","","","","",""
"","response","","html-keyboard-response","470","545366","0.0-1.0-662.0","0","0","23629","","629","","","68","73","","","2","73","training","adjacent","DC","4","3","P.jpg","R.jpg","0","0","1","",""
"","feedback","","html-keyboard-response","471","546370","0.0-1.0-663.0-0.0","0","0","23629","","null","","","null","73","","","","","","","","","","","","","","","",""
"","ITI","","html-keyboard-response","472","547373","0.0-1.0-666.0","0","0","23629","","null","","","null","73","","","","","","","","","","","","","","","NaN",""
"","S1","","html-keyboard-response","473","547632","0.0-1.0-668.0","0","0","23629","","null","","","null","74","","","","","","","","","","","","","","","",""
"","ISI","","html-keyboard-response","474","549634","0.0-1.0-669.0","0","0","23629","","null","","","null","74","NaN","","","","","","","","","","","","","","",""
"","S2","","html-keyboard-response","475","549887","0.0-1.0-670.0","0","0","23629","","null","","","null","74","","NaN","","","","","","","","","","","","","",""
"","response","","html-keyboard-response","476","550499","0.0-1.0-671.0","0","0","23629","","610","","","75","74","","","2","74","training","adjacent","CD","3","4","R.jpg","P.jpg","1","1","1","",""
"","feedback","","html-keyboard-response","477","551501","0.0-1.0-672.0-0.0","0","0","23629","","null","","","null","74","","","","","","","","","","","","","","","",""
"","ITI","","html-keyboard-response","478","552507","0.0-1.0-675.0","0","0","23629","","null","","","null","74","","","","","","","","","","","","","","","NaN",""
"","S1","","html-keyboard-response","479","552761","0.0-1.0-677.0","0","0","23629","","null","","","null","75","","","","","","","","","","","","","","","",""
"","ISI","","html-keyboard-response","480","554764","0.0-1.0-678.0","0","0","23629","","null","","","null","75","NaN","","","","","","","","","","","","","","",""
"","S2","","html-keyboard-response","481","555017","0.0-1.0-679.0","0","0","23629","","null","","","null","75","","NaN","","","","","","","","","","","","","",""
"","response","","html-keyboard-response","482","555762","0.0-1.0-680.0","0","0","23629","","744","","","68","75","","","2","75","training","adjacent","CB","3","2","R.jpg","M.jpg","0","0","1","",""
"","feedback","","html-keyboard-response","483","556765","0.0-1.0-681.0-0.0","0","0","23629","","null","","","null","75","","","","","","","","","","","","","","","",""
"","ITI","","html-keyboard-response","484","557768","0.0-1.0-684.0","0","0","23629","","null","","","null","75","","","","","","","","","","","","","","","NaN",""
"","S1","","html-keyboard-response","485","558020","0.0-1.0-686.0","0","0","23629","","null","","","null","76","","","","","","","","","","","","","","","",""
"","ISI","","html-keyboard-response","486","560023","0.0-1.0-687.0","0","0","23629","","null","","","null","76","NaN","","","","","","","","","","","","","","",""
"","S2","","html-keyboard-response","487","560275","0.0-1.0-688.0","0","0","23629","","null","","","null","76","","NaN","","","","","","","","","","","","","",""
"","response","","html-keyboard-response","488","560787","0.0-1.0-689.0","0","0","23629","","510","","","75","76","","","2","76","training","adjacent","DE","4","5","P.jpg","N.jpg","1","1","1","",""
"","feedback","","html-keyboard-response","489","561791","0.0-1.0-690.0-0.0","0","0","23629","","null","","","null","76","","","","","","","","","","","","","","","",""
"","ITI","","html-keyboard-response","490","562803","0.0-1.0-693.0","0","0","23629","","null","","","null","76","","","","","","","","","","","","","","","NaN",""
"","S1","","html-keyboard-response","491","563058","0.0-1.0-695.0","0","0","23629","","null","","","null","77","","","","","","","","","","","","","","","",""
"","ISI","","html-keyboard-response","492","565060","0.0-1.0-696.0","0","0","23629","","null","","","null","77","NaN","","","","","","","","","","","","","","",""
"","S2","","html-keyboard-response","493","565312","0.0-1.0-697.0","0","0","23629","","null","","","null","77","","NaN","","","","","","","","","","","","","",""
"","response","","html-keyboard-response","494","566174","0.0-1.0-698.0","0","0","23629","","861","","","75","77","","","2","77","training","adjacent","FG","6","7","Q.jpg","O.jpg","1","1","1","",""
"","feedback","","html-keyboard-response","495","567176","0.0-1.0-699.0-0.0","0","0","23629","","null","","","null","77","","","","","","","","","","","","","","","",""
"","ITI","","html-keyboard-response","496","568179","0.0-1.0-702.0","0","0","23629","","null","","","null","77","","","","","","","","","","","","","","","NaN",""
"","S1","","html-keyboard-response","497","568431","0.0-1.0-704.0","0","0","23629","","null","","","null","78","","","","","","","","","","","","","","","",""
"","ISI","","html-keyboard-response","498","570436","0.0-1.0-705.0","0","0","23629","","null","","","null","78","NaN","","","","","","","","","","","","","","",""
"","S2","","html-keyboard-response","499","570690","0.0-1.0-706.0","0","0","23629","","null","","","null","78","","NaN","","","","","","","","","","","","","",""
"","response","","html-keyboard-response","500","571209","0.0-1.0-707.0","0","0","23629","","518","","","68","78","","","2","78","training","adjacent","BA","2","1","M.jpg","L.jpg","0","0","1","",""
"","feedback","","html-keyboard-response","501","572249","0.0-1.0-708.0-0.0","0","0","23629","","null","","","null","78","","","","","","","","","","","","","","","",""
"","ITI","","html-keyboard-response","502","573251","0.0-1.0-711.0","0","0","23629","","null","","","null","78","","","","","","","","","","","","","","","NaN",""
"","S1","","html-keyboard-response","503","573503","0.0-1.0-713.0","0","0","23629","","null","","","null","79","","","","","","","","","","","","","","","",""
"","ISI","","html-keyboard-response","504","575506","0.0-1.0-714.0","0","0","23629","","null","","","null","79","NaN","","","","","","","","","","","","","","",""
"","S2","","html-keyboard-response","505","575760","0.0-1.0-715.0","0","0","23629","","null","","","null","79","","NaN","","","","","","","","","","","","","",""
"","response","","html-keyboard-response","506","576603","0.0-1.0-716.0","0","0","23629","","842","","","75","79","","","2","79","training","adjacent","DE","4","5","P.jpg","N.jpg","1","1","1","",""
"","feedback","","html-keyboard-response","507","577607","0.0-1.0-717.0-0.0","0","0","23629","","null","","","null","79","","","","","","","","","","","","","","","",""
"","ITI","","html-keyboard-response","508","578609","0.0-1.0-720.0","0","0","23629","","null","","","null","79","","","","","","","","","","","","","","","NaN",""
"","S1","","html-keyboard-response","509","578861","0.0-1.0-722.0","0","0","23629","","null","","","null","80","","","","","","","","","","","","","","","",""
"","ISI","","html-keyboard-response","510","580863","0.0-1.0-723.0","0","0","23629","","null","","","null","80","NaN","","","","","","","","","","","","","","",""
"","S2","","html-keyboard-response","511","581123","0.0-1.0-724.0","0","0","23629","","null","","","null","80","","NaN","","","","","","","","","","","","","",""
"","response","","html-keyboard-response","512","582345","0.0-1.0-725.0","0","0","23629","","1220","","","75","80","","","2","80","training","adjacent","EF","5","6","N.jpg","Q.jpg","1","1","1","",""
"","feedback","","html-keyboard-response","513","583352","0.0-1.0-726.0-0.0","0","0","23629","","null","","","null","80","","","","","","","","","","","","","","","",""
"","ITI","","html-keyboard-response","514","584355","0.0-1.0-729.0","0","0","23629","","null","","","null","80","","","","","","","","","","","","","","","NaN",""
"","S1","","html-keyboard-response","515","584608","0.0-1.0-731.0","0","0","23629","","null","","","null","81","","","","","","","","","","","","","","","",""
"","ISI","","html-keyboard-response","516","586610","0.0-1.0-732.0","0","0","23629","","null","","","null","81","NaN","","","","","","","","","","","","","","",""
"","S2","","html-keyboard-response","517","586862","0.0-1.0-733.0","0","0","23629","","null","","","null","81","","NaN","","","","","","","","","","","","","",""
"","response","","html-keyboard-response","518","587311","0.0-1.0-734.0","0","0","23629","","444","","","75","81","","","2","81","training","adjacent","BC","2","3","M.jpg","R.jpg","1","1","1","",""
"","feedback","","html-keyboard-response","519","588316","0.0-1.0-735.0-0.0","0","0","23629","","null","","","null","81","","","","","","","","","","","","","","","",""
"","ITI","","html-keyboard-response","520","589318","0.0-1.0-738.0","0","0","23629","","null","","","null","81","","","","","","","","","","","","","","","NaN",""
"","S1","","html-keyboard-response","521","589570","0.0-1.0-740.0","0","0","23629","","null","","","null","82","","","","","","","","","","","","","","","",""
"","ISI","","html-keyboard-response","522","591575","0.0-1.0-741.0","0","0","23629","","null","","","null","82","NaN","","","","","","","","","","","","","","",""
"","S2","","html-keyboard-response","523","591828","0.0-1.0-742.0","0","0","23629","","null","","","null","82","","NaN","","","","","","","","","","","","","",""
"","response","","html-keyboard-response","524","592371","0.0-1.0-743.0","0","0","23629","","542","","","68","82","","","2","82","training","adjacent","FG","6","7","Q.jpg","O.jpg","0","1","0","",""
"","feedback","","html-keyboard-response","525","593377","0.0-1.0-744.0-0.0","0","0","23629","","null","","","null","82","","","","","","","","","","","","","","","",""
"","time_out","","html-keyboard-response","526","595379","0.0-1.0-746.0-0.0","0","0","23629","","null","","","null","82","","","","","","","","","","","","","","","",""
"","ITI","","html-keyboard-response","527","596382","0.0-1.0-747.0","0","0","23629","","null","","","null","82","","","","","","","","","","","","","","","NaN",""
"","S1","","html-keyboard-response","528","596635","0.0-1.0-749.0","0","0","23629","","null","","","null","83","","","","","","","","","","","","","","","",""
"","ISI","","html-keyboard-response","529","598655","0.0-1.0-750.0","0","0","23629","","null","","","null","83","NaN","","","","","","","","","","","","","","",""
"","S2","","html-keyboard-response","530","598913","0.0-1.0-751.0","0","0","23629","","null","","","null","83","","NaN","","","","","","","","","","","","","",""
"","response","","html-keyboard-response","531","599715","0.0-1.0-752.0","0","0","23629","","800","","","68","83","","","2","83","training","adjacent","CB","3","2","R.jpg","M.jpg","0","0","1","",""
"","feedback","","html-keyboard-response","532","600718","0.0-1.0-753.0-0.0","0","0","23629","","null","","","null","83","","","","","","","","","","","","","","","",""
"","ITI","","html-keyboard-response","533","601722","0.0-1.0-756.0","0","0","23629","","null","","","null","83","","","","","","","","","","","","","","","NaN",""
"","S1","","html-keyboard-response","534","601975","0.0-1.0-758.0","0","0","23629","","null","","","null","84","","","","","","","","","","","","","","","",""
"","ISI","","html-keyboard-response","535","603979","0.0-1.0-759.0","0","0","23629","","null","","","null","84","NaN","","","","","","","","","","","","","","",""
"","S2","","html-keyboard-response","536","604232","0.0-1.0-760.0","0","0","23629","","null","","","null","84","","NaN","","","","","","","","","","","","","",""
"","response","","html-keyboard-response","537","605152","0.0-1.0-761.0","0","0","23629","","918","","","75","84","","","2","84","training","adjacent","EF","5","6","N.jpg","Q.jpg","1","1","1","",""
"","feedback","","html-keyboard-response","538","606154","0.0-1.0-762.0-0.0","0","0","23629","","null","","","null","84","","","","","","","","","","","","","","","",""
"","ITI","","html-keyboard-response","539","607158","0.0-1.0-765.0","0","0","23629","","null","","","null","84","","","","","","","","","","","","","","","NaN",""
"","S1","","html-keyboard-response","540","607411","0.0-1.0-767.0","0","0","23629","","null","","","null","85","","","","","","","","","","","","","","","",""
"","ISI","","html-keyboard-response","541","609413","0.0-1.0-768.0","0","0","23629","","null","","","null","85","NaN","","","","","","","","","","","","","","",""
"","S2","","html-keyboard-response","542","609665","0.0-1.0-769.0","0","0","23629","","null","","","null","85","","NaN","","","","","","","","","","","","","",""
"","response","","html-keyboard-response","543","610221","0.0-1.0-770.0","0","0","23629","","554","","","68","85","","","2","85","training","adjacent","FE","6","5","Q.jpg","N.jpg","0","0","1","",""
"","feedback","","html-keyboard-response","544","611225","0.0-1.0-771.0-0.0","0","0","23629","","null","","","null","85","","","","","","","","","","","","","","","",""
"","ITI","","html-keyboard-response","545","612227","0.0-1.0-774.0","0","0","23629","","null","","","null","85","","","","","","","","","","","","","","","NaN",""
"","S1","","html-keyboard-response","546","612480","0.0-1.0-776.0","0","0","23629","","null","","","null","86","","","","","","","","","","","","","","","",""
"","ISI","","html-keyboard-response","547","614484","0.0-1.0-777.0","0","0","23629","","null","","","null","86","NaN","","","","","","","","","","","","","","",""
"","S2","","html-keyboard-response","548","614741","0.0-1.0-778.0","0","0","23629","","null","","","null","86","","NaN","","","","","","","","","","","","","",""
"","response","","html-keyboard-response","549","615579","0.0-1.0-779.0","0","0","23629","","837","","","68","86","","","2","86","training","adjacent","FE","6","5","Q.jpg","N.jpg","0","0","1","",""
"","feedback","","html-keyboard-response","550","616583","0.0-1.0-780.0-0.0","0","0","23629","","null","","","null","86","","","","","","","","","","","","","","","",""
"","ITI","","html-keyboard-response","551","617586","0.0-1.0-783.0","0","0","23629","","null","","","null","86","","","","","","","","","","","","","","","NaN",""
"","S1","","html-keyboard-response","552","617838","0.0-1.0-785.0","0","0","23629","","null","","","null","87","","","","","","","","","","","","","","","",""
"","ISI","","html-keyboard-response","553","619843","0.0-1.0-786.0","0","0","23629","","null","","","null","87","NaN","","","","","","","","","","","","","","",""
"","S2","","html-keyboard-response","554","620096","0.0-1.0-787.0","0","0","23629","","null","","","null","87","","NaN","","","","","","","","","","","","","",""
"","response","","html-keyboard-response","555","621056","0.0-1.0-788.0","0","0","23629","","957","","","68","87","","","2","87","training","adjacent","AB","1","2","L.jpg","M.jpg","0","1","0","",""
"","feedback","","html-keyboard-response","556","622059","0.0-1.0-789.0-0.0","0","0","23629","","null","","","null","87","","","","","","","","","","","","","","","",""
"","time_out","","html-keyboard-response","557","624060","0.0-1.0-791.0-0.0","0","0","23629","","null","","","null","87","","","","","","","","","","","","","","","",""
"","ITI","","html-keyboard-response","558","625062","0.0-1.0-792.0","0","0","23629","","null","","","null","87","","","","","","","","","","","","","","","NaN",""
"","S1","","html-keyboard-response","559","625316","0.0-1.0-794.0","0","0","23629","","null","","","null","88","","","","","","","","","","","","","","","",""
"","ISI","","html-keyboard-response","560","627320","0.0-1.0-795.0","0","0","23629","","null","","","null","88","NaN","","","","","","","","","","","","","","",""
"","S2","","html-keyboard-response","561","627574","0.0-1.0-796.0","0","0","23629","","null","","","null","88","","NaN","","","","","","","","","","","","","",""
"","response","","html-keyboard-response","562","628525","0.0-1.0-797.0","0","0","23629","","949","","","75","88","","","2","88","training","adjacent","FG","6","7","Q.jpg","O.jpg","1","1","1","",""
"","feedback","","html-keyboard-response","563","629527","0.0-1.0-798.0-0.0","0","0","23629","","null","","","null","88","","","","","","","","","","","","","","","",""
"","ITI","","html-keyboard-response","564","630533","0.0-1.0-801.0","0","0","23629","","null","","","null","88","","","","","","","","","","","","","","","NaN",""
"","S1","","html-keyboard-response","565","630786","0.0-1.0-803.0","0","0","23629","","null","","","null","89","","","","","","","","","","","","","","","",""
"","ISI","","html-keyboard-response","566","632792","0.0-1.0-804.0","0","0","23629","","null","","","null","89","NaN","","","","","","","","","","","","","","",""
"","S2","","html-keyboard-response","567","633045","0.0-1.0-805.0","0","0","23629","","null","","","null","89","","NaN","","","","","","","","","","","","","",""
"","response","","html-keyboard-response","568","633423","0.0-1.0-806.0","0","0","23629","","377","","","68","89","","","2","89","training","adjacent","BC","2","3","M.jpg","R.jpg","0","1","0","",""
"","feedback","","html-keyboard-response","569","634426","0.0-1.0-807.0-0.0","0","0","23629","","null","","","null","89","","","","","","","","","","","","","","","",""
"","time_out","","html-keyboard-response","570","636429","0.0-1.0-809.0-0.0","0","0","23629","","null","","","null","89","","","","","","","","","","","","","","","",""
"","ITI","","html-keyboard-response","571","637432","0.0-1.0-810.0","0","0","23629","","null","","","null","89","","","","","","","","","","","","","","","NaN",""
"","S1","","html-keyboard-response","572","637690","0.0-1.0-812.0","0","0","23629","","null","","","null","90","","","","","","","","","","","","","","","",""
"","ISI","","html-keyboard-response","573","639693","0.0-1.0-813.0","0","0","23629","","null","","","null","90","NaN","","","","","","","","","","","","","","",""
"","S2","","html-keyboard-response","574","639947","0.0-1.0-814.0","0","0","23629","","null","","","null","90","","NaN","","","","","","","","","","","","","",""
"","response","","html-keyboard-response","575","640775","0.0-1.0-815.0","0","0","23629","","826","","","68","90","","","2","90","training","adjacent","DC","4","3","P.jpg","R.jpg","0","0","1","",""
"","feedback","","html-keyboard-response","576","641777","0.0-1.0-816.0-0.0","0","0","23629","","null","","","null","90","","","","","","","","","","","","","","","",""
"","ITI","","html-keyboard-response","577","642780","0.0-1.0-819.0","0","0","23629","","null","","","null","90","","","","","","","","","","","","","","","NaN",""
"","S1","","html-keyboard-response","578","643034","0.0-1.0-821.0","0","0","23629","","null","","","null","91","","","","","","","","","","","","","","","",""
"","ISI","","html-keyboard-response","579","645036","0.0-1.0-822.0","0","0","23629","","null","","","null","91","NaN","","","","","","","","","","","","","","",""
"","S2","","html-keyboard-response","580","645290","0.0-1.0-823.0","0","0","23629","","null","","","null","91","","NaN","","","","","","","","","","","","","",""
"","response","","html-keyboard-response","581","646875","0.0-1.0-824.0","0","0","23629","","1584","","","68","91","","","2","91","training","adjacent","FE","6","5","Q.jpg","N.jpg","0","0","1","",""
"","feedback","","html-keyboard-response","582","647879","0.0-1.0-825.0-0.0","0","0","23629","","null","","","null","91","","","","","","","","","","","","","","","",""
"","ITI","","html-keyboard-response","583","648882","0.0-1.0-828.0","0","0","23629","","null","","","null","91","","","","","","","","","","","","","","","NaN",""
"","S1","","html-keyboard-response","584","649135","0.0-1.0-830.0","0","0","23629","","null","","","null","92","","","","","","","","","","","","","","","",""
