"success","ttype","start_time","trial_type","trial_index","time_elapsed","internal_node_id","warning","missed_checkup","PID","view_history","rt","responses","repeat_instructions","key_press","index","keypress_isi","keypress_S2","block","trial_num","phase","group_type","pair_type","S1_stim","S2_stim","S1_img","S2_img","S1_chosen","S1_higher","accuracy","keypress_iti","total_bonus_tally"
"true","full_screen","d03072023hr1758","fullscreen","0","19426","0.0-0.0","0","0","13066","","","","","","","","","","","","","","","","","","","","","",""
"","instructions","","instructions","1","64685","0.0-1.0-0.0-0.0","0","0","13066","[{""page_index"":0,""viewing_time"":4642},{""page_index"":1,""viewing_time"":21498},{""page_index"":2,""viewing_time"":16433},{""page_index"":3,""viewing_time"":2684}]","45258","","","","","","","","","","","","","","","","","","","",""
"","comprehension_check","","survey-multi-choice","2","98469","0.0-1.0-0.0-1.0","0","0","13066","","33780","{""Q0"":""True"",""Q1"":""D"",""Q2"":""Only when the screen 'MAKE A CHOICE' is shown"",""Q3"":""Green mark"",""Q4"":""either D or K""}","1","","","","","","","","","","","","","","","","","",""
"","missed_instruction_checkup","","html-keyboard-response","3","101076","0.0-1.0-0.0-2.0-0.0","0","1","13066","","2605","","","32","","","","","","","","","","","","","","","","",""
"","instructions","","instructions","4","118039","0.0-1.0-0.1-0.1","0","0","13066","[{""page_index"":0,""viewing_time"":1374},{""page_index"":1,""viewing_time"":12866},{""page_index"":2,""viewing_time"":1512},{""page_index"":3,""viewing_time"":1210}]","16962","","","","","","","","","","","","","","","","","","","",""
"","comprehension_check","","survey-multi-choice","5","130191","0.0-1.0-0.1-1.1","0","0","13066","","12150","{""Q0"":""True"",""Q1"":""D"",""Q2"":""Once the second image appears and while the screen 'MAKE A CHOICE' is shown"",""Q3"":""Green mark"",""Q4"":""either D or K""}","0","","","","","","","","","","","","","","","","","",""
"","start_exp","","html-keyboard-response","6","133103","0.0-1.0-1.0","0","0","13066","","2911","","","32","","","","","","","","","","","","","","","","",""
"","S1","","html-keyboard-response","7","133355","0.0-1.0-2.0","0","0","13066","","null","","","null","0","","","","","","","","","","","","","","","",""
"","ISI","","html-keyboard-response","8","134356","0.0-1.0-3.0","0","0","13066","","null","","","null","0","NaN","","","","","","","","","","","","","","",""
"","S2","","html-keyboard-response","9","134608","0.0-1.0-4.0","0","0","13066","","null","","","null","0","","NaN","","","","","","","","","","","","","",""
"","response","","html-keyboard-response","10","135334","0.0-1.0-5.0-0.0","0","0","13066","","726","","","68","0","","","1","0","training","adjacent","ED","5","4","O.jpg","L.jpg","1","0","0","",""
"","feedback","","html-keyboard-response","11","136337","0.0-1.0-6.0-0.0","0","0","13066","","null","","","null","0","","","","","","","","","","","","","","","",""
"","time_out","","html-keyboard-response","12","138339","0.0-1.0-8.0-0.0","0","0","13066","","null","","","null","0","","","","","","","","","","","","","","","",""
"","ITI","","html-keyboard-response","13","139341","0.0-1.0-9.0","0","0","13066","","null","","","null","0","","","","","","","","","","","","","","","NaN",""
"","S1","","html-keyboard-response","14","139593","0.0-1.0-11.0","0","0","13066","","null","","","null","1","","","","","","","","","","","","","","","",""
"","ISI","","html-keyboard-response","15","140595","0.0-1.0-12.0","0","0","13066","","null","","","null","1","NaN","","","","","","","","","","","","","","",""
"","S2","","html-keyboard-response","16","140847","0.0-1.0-13.0","0","0","13066","","null","","","null","1","","NaN","","","","","","","","","","","","","",""
"","response","","html-keyboard-response","17","141235","0.0-1.0-14.0-0.0","0","0","13066","","388","","","68","1","","","1","1","training","adjacent","DC","4","3","L.jpg","R.jpg","1","0","0","",""
"","feedback","","html-keyboard-response","18","142238","0.0-1.0-15.0-0.0","0","0","13066","","null","","","null","1","","","","","","","","","","","","","","","",""
"","time_out","","html-keyboard-response","19","144240","0.0-1.0-17.0-0.0","0","0","13066","","null","","","null","1","","","","","","","","","","","","","","","",""
"","ITI","","html-keyboard-response","20","145242","0.0-1.0-18.0","0","0","13066","","null","","","null","1","","","","","","","","","","","","","","","NaN",""
"","S1","","html-keyboard-response","21","145494","0.0-1.0-20.0","0","0","13066","","null","","","null","2","","","","","","","","","","","","","","","",""
"","ISI","","html-keyboard-response","22","146496","0.0-1.0-21.0","0","0","13066","","null","","","null","2","NaN","","","","","","","","","","","","","","",""
"","S2","","html-keyboard-response","23","146747","0.0-1.0-22.0","0","0","13066","","null","","","null","2","","NaN","","","","","","","","","","","","","",""
"","response","","html-keyboard-response","24","147219","0.0-1.0-23.0-0.0","0","0","13066","","472","","","75","2","","","1","2","training","adjacent","GF","7","6","N.jpg","M.jpg","0","0","1","",""
"","feedback","","html-keyboard-response","25","148222","0.0-1.0-24.0-0.0","0","0","13066","","null","","","null","2","","","","","","","","","","","","","","","",""
"","ITI","","html-keyboard-response","26","149224","0.0-1.0-27.0","0","0","13066","","null","","","null","2","","","","","","","","","","","","","","","NaN",""
"","S1","","html-keyboard-response","27","149476","0.0-1.0-29.0","0","0","13066","","null","","","null","3","","","","","","","","","","","","","","","",""
"","ISI","","html-keyboard-response","28","150478","0.0-1.0-30.0","0","0","13066","","null","","","null","3","NaN","","","","","","","","","","","","","","",""
"","S2","","html-keyboard-response","29","150730","0.0-1.0-31.0","0","0","13066","","null","","","null","3","","NaN","","","","","","","","","","","","","",""
"","response","","html-keyboard-response","30","150782","0.0-1.0-32.0-0.0","0","0","13066","","52","","","75","3","","","1","3","training","adjacent","BC","2","3","P.jpg","R.jpg","0","1","0","",""
"","feedback","","html-keyboard-response","31","151784","0.0-1.0-33.0-0.0","0","0","13066","","null","","","null","3","","","","","","","","","","","","","","","",""
"","time_out","","html-keyboard-response","32","153786","0.0-1.0-35.0-0.0","0","0","13066","","null","","","null","3","","","","","","","","","","","","","","","",""
"","ITI","","html-keyboard-response","33","154788","0.0-1.0-36.0","0","0","13066","","null","","","null","3","","","","","","","","","","","","","","","NaN",""
"","S1","","html-keyboard-response","34","155040","0.0-1.0-38.0","0","0","13066","","null","","","null","4","","","","","","","","","","","","","","","",""
"","ISI","","html-keyboard-response","35","156042","0.0-1.0-39.0","0","0","13066","","null","","","null","4","NaN","","","","","","","","","","","","","","",""
"","S2","","html-keyboard-response","36","156294","0.0-1.0-40.0","0","0","13066","","null","","","null","4","","NaN","","","","","","","","","","","","","",""
"","response","","html-keyboard-response","37","156885","0.0-1.0-41.0-0.0","0","0","13066","","591","","","75","4","","","1","4","training","adjacent","GF","7","6","N.jpg","M.jpg","0","0","1","",""
"","feedback","","html-keyboard-response","38","157888","0.0-1.0-42.0-0.0","0","0","13066","","null","","","null","4","","","","","","","","","","","","","","","",""
"","ITI","","html-keyboard-response","39","158890","0.0-1.0-45.0","0","0","13066","","null","","","null","4","","","","","","","","","","","","","","","NaN",""
"","S1","","html-keyboard-response","40","159142","0.0-1.0-47.0","0","0","13066","","null","","","null","5","","","","","","","","","","","","","","","",""
"","ISI","","html-keyboard-response","41","160143","0.0-1.0-48.0","0","0","13066","","null","","","null","5","NaN","","","","","","","","","","","","","","",""
"","S2","","html-keyboard-response","42","160395","0.0-1.0-49.0","0","0","13066","","null","","","null","5","","NaN","","","","","","","","","","","","","",""
"","response","","html-keyboard-response","43","160701","0.0-1.0-50.0-0.0","0","0","13066","","306","","","75","5","","","1","5","training","adjacent","EF","5","6","O.jpg","M.jpg","0","1","0","",""
"","feedback","","html-keyboard-response","44","161704","0.0-1.0-51.0-0.0","0","0","13066","","null","","","null","5","","","","","","","","","","","","","","","",""
"","time_out","","html-keyboard-response","45","163706","0.0-1.0-53.0-0.0","0","0","13066","","null","","","null","5","","","","","","","","","","","","","","","",""
"","ITI","","html-keyboard-response","46","164707","0.0-1.0-54.0","0","0","13066","","null","","","null","5","","","","","","","","","","","","","","","NaN",""
"","S1","","html-keyboard-response","47","164959","0.0-1.0-56.0","0","0","13066","","null","","","null","6","","","","","","","","","","","","","","","",""
"","ISI","","html-keyboard-response","48","165961","0.0-1.0-57.0","0","0","13066","","null","","","null","6","NaN","","","","","","","","","","","","","","",""
"","S2","","html-keyboard-response","49","166213","0.0-1.0-58.0","0","0","13066","","null","","","null","6","","NaN","","","","","","","","","","","","","",""
"","response","","html-keyboard-response","50","166602","0.0-1.0-59.0-0.0","0","0","13066","","389","","","75","6","","","1","6","training","adjacent","CB","3","2","R.jpg","P.jpg","0","0","1","",""
"","feedback","","html-keyboard-response","51","167617","0.0-1.0-60.0-0.0","0","0","13066","","null","","","null","6","","","","","","","","","","","","","","","",""
"","ITI","","html-keyboard-response","52","168619","0.0-1.0-63.0","0","0","13066","","null","","","null","6","","","","","","","","","","","","","","","NaN",""
"","S1","","html-keyboard-response","53","168871","0.0-1.0-65.0","0","0","13066","","null","","","null","7","","","","","","","","","","","","","","","",""
"","ISI","","html-keyboard-response","54","169873","0.0-1.0-66.0","0","0","13066","","null","","","null","7","NaN","","","","","","","","","","","","","","",""
"","S2","","html-keyboard-response","55","170130","0.0-1.0-67.0","0","0","13066","","null","","","null","7","","NaN","","","","","","","","","","","","","",""
"","response","","html-keyboard-response","56","170739","0.0-1.0-68.0-0.0","0","0","13066","","608","","","75","7","","","1","7","training","adjacent","ED","5","4","O.jpg","L.jpg","0","0","1","",""
"","feedback","","html-keyboard-response","57","171742","0.0-1.0-69.0-0.0","0","0","13066","","null","","","null","7","","","","","","","","","","","","","","","",""
"","ITI","","html-keyboard-response","58","172744","0.0-1.0-72.0","0","0","13066","","null","","","null","7","","","","","","","","","","","","","","","NaN",""
"","S1","","html-keyboard-response","59","172995","0.0-1.0-74.0","0","0","13066","","null","","","null","8","","","","","","","","","","","","","","","",""
"","ISI","","html-keyboard-response","60","173997","0.0-1.0-75.0","0","0","13066","","null","","","null","8","NaN","","","","","","","","","","","","","","",""
"","S2","","html-keyboard-response","61","174249","0.0-1.0-76.0","0","0","13066","","null","","","null","8","","NaN","","","","","","","","","","","","","",""
"","response","","html-keyboard-response","62","174779","0.0-1.0-77.0-0.0","0","0","13066","","530","","","75","8","","","1","8","training","adjacent","AB","1","2","Q.jpg","P.jpg","0","1","0","",""
"","feedback","","html-keyboard-response","63","175782","0.0-1.0-78.0-0.0","0","0","13066","","null","","","null","8","","","","","","","","","","","","","","","",""
"","time_out","","html-keyboard-response","64","177783","0.0-1.0-80.0-0.0","0","0","13066","","null","","","null","8","","","","","","","","","","","","","","","",""
"","ITI","","html-keyboard-response","65","178785","0.0-1.0-81.0","0","0","13066","","null","","","null","8","","","","","","","","","","","","","","","NaN",""
"","S1","","html-keyboard-response","66","179037","0.0-1.0-83.0","0","0","13066","","null","","","null","9","","","","","","","","","","","","","","","",""
"","ISI","","html-keyboard-response","67","180039","0.0-1.0-84.0","0","0","13066","","null","","","null","9","NaN","","","","","","","","","","","","","","",""
"","S2","","html-keyboard-response","68","180292","0.0-1.0-85.0","0","0","13066","","null","","","null","9","","NaN","","","","","","","","","","","","","",""
"","response","","html-keyboard-response","69","180609","0.0-1.0-86.0-0.0","0","0","13066","","316","","","75","9","","","1","9","training","adjacent","CB","3","2","R.jpg","P.jpg","0","0","1","",""
"","feedback","","html-keyboard-response","70","181611","0.0-1.0-87.0-0.0","0","0","13066","","null","","","null","9","","","","","","","","","","","","","","","",""
"","ITI","","html-keyboard-response","71","182613","0.0-1.0-90.0","0","0","13066","","null","","","null","9","","","","","","","","","","","","","","","NaN",""
"","S1","","html-keyboard-response","72","182864","0.0-1.0-92.0","0","0","13066","","null","","","null","10","","","","","","","","","","","","","","","",""
"","ISI","","html-keyboard-response","73","183865","0.0-1.0-93.0","0","0","13066","","null","","","null","10","NaN","","","","","","","","","","","","","","",""
"","S2","","html-keyboard-response","74","184116","0.0-1.0-94.0","0","0","13066","","null","","","null","10","","NaN","","","","","","","","","","","","","",""
"","response","","html-keyboard-response","75","184711","0.0-1.0-95.0-0.0","0","0","13066","","595","","","68","10","","","1","10","training","adjacent","FG","6","7","M.jpg","N.jpg","1","1","1","",""
"","feedback","","html-keyboard-response","76","185714","0.0-1.0-96.0-0.0","0","0","13066","","null","","","null","10","","","","","","","","","","","","","","","",""
"","ITI","","html-keyboard-response","77","186716","0.0-1.0-99.0","0","0","13066","","null","","","null","10","","","","","","","","","","","","","","","NaN",""
"","S1","","html-keyboard-response","78","186968","0.0-1.0-101.0","0","0","13066","","null","","","null","11","","","","","","","","","","","","","","","",""
"","ISI","","html-keyboard-response","79","187970","0.0-1.0-102.0","0","0","13066","","null","","","null","11","NaN","","","","","","","","","","","","","","",""
"","S2","","html-keyboard-response","80","188222","0.0-1.0-103.0","0","0","13066","","null","","","null","11","","NaN","","","","","","","","","","","","","",""
"","response","","html-keyboard-response","81","188525","0.0-1.0-104.0-0.0","0","0","13066","","302","","","75","11","","","1","11","training","adjacent","CB","3","2","R.jpg","P.jpg","0","0","1","",""
"","feedback","","html-keyboard-response","82","189527","0.0-1.0-105.0-0.0","0","0","13066","","null","","","null","11","","","","","","","","","","","","","","","",""
"","ITI","","html-keyboard-response","83","190529","0.0-1.0-108.0","0","0","13066","","null","","","null","11","","","","","","","","","","","","","","","NaN",""
"","S1","","html-keyboard-response","84","190781","0.0-1.0-110.0","0","0","13066","","null","","","null","12","","","","","","","","","","","","","","","",""
"","ISI","","html-keyboard-response","85","191783","0.0-1.0-111.0","0","0","13066","","null","","","null","12","NaN","","","","","","","","","","","","","","",""
"","S2","","html-keyboard-response","86","192035","0.0-1.0-112.0","0","0","13066","","null","","","null","12","","NaN","","","","","","","","","","","","","",""
"","response","","html-keyboard-response","87","192450","0.0-1.0-113.0-0.0","0","0","13066","","414","","","75","12","","","1","12","training","adjacent","FG","6","7","M.jpg","N.jpg","0","1","0","",""
"","feedback","","html-keyboard-response","88","193452","0.0-1.0-114.0-0.0","0","0","13066","","null","","","null","12","","","","","","","","","","","","","","","",""
"","time_out","","html-keyboard-response","89","195454","0.0-1.0-116.0-0.0","0","0","13066","","null","","","null","12","","","","","","","","","","","","","","","",""
"","ITI","","html-keyboard-response","90","196456","0.0-1.0-117.0","0","0","13066","","null","","","null","12","","","","","","","","","","","","","","","NaN",""
"","S1","","html-keyboard-response","91","196708","0.0-1.0-119.0","0","0","13066","","null","","","null","13","","","","","","","","","","","","","","","",""
"","ISI","","html-keyboard-response","92","197710","0.0-1.0-120.0","0","0","13066","","null","","","null","13","NaN","","","","","","","","","","","","","","",""
"","S2","","html-keyboard-response","93","197961","0.0-1.0-121.0","0","0","13066","","null","","","null","13","","NaN","","","","","","","","","","","","","",""
"","response","","html-keyboard-response","94","198265","0.0-1.0-122.0-0.0","0","0","13066","","304","","","68","13","","","1","13","training","adjacent","BA","2","1","P.jpg","Q.jpg","1","0","0","",""
"","feedback","","html-keyboard-response","95","199274","0.0-1.0-123.0-0.0","0","0","13066","","null","","","null","13","","","","","","","","","","","","","","","",""
"","time_out","","html-keyboard-response","96","201276","0.0-1.0-125.0-0.0","0","0","13066","","null","","","null","13","","","","","","","","","","","","","","","",""
"","ITI","","html-keyboard-response","97","202278","0.0-1.0-126.0","0","0","13066","","null","","","null","13","","","","","","","","","","","","","","","NaN",""
"","S1","","html-keyboard-response","98","202530","0.0-1.0-128.0","0","0","13066","","null","","","null","14","","","","","","","","","","","","","","","",""
"","ISI","","html-keyboard-response","99","203532","0.0-1.0-129.0","0","0","13066","","null","","","null","14","NaN","","","","","","","","","","","","","","",""
"","S2","","html-keyboard-response","100","203783","0.0-1.0-130.0","0","0","13066","","null","","","null","14","","NaN","","","","","","","","","","","","","",""
"","response","","html-keyboard-response","101","204080","0.0-1.0-131.0-0.0","0","0","13066","","297","","","68","14","","","1","14","training","adjacent","BC","2","3","P.jpg","R.jpg","1","1","1","",""
"","feedback","","html-keyboard-response","102","205083","0.0-1.0-132.0-0.0","0","0","13066","","null","","","null","14","","","","","","","","","","","","","","","",""
"","ITI","","html-keyboard-response","103","206085","0.0-1.0-135.0","0","0","13066","","null","","","null","14","","","","","","","","","","","","","","","NaN",""
"","S1","","html-keyboard-response","104","206337","0.0-1.0-137.0","0","0","13066","","null","","","null","15","","","","","","","","","","","","","","","",""
"","ISI","","html-keyboard-response","105","207339","0.0-1.0-138.0","0","0","13066","","null","","","null","15","NaN","","","","","","","","","","","","","","",""
"","S2","","html-keyboard-response","106","207591","0.0-1.0-139.0","0","0","13066","","null","","","null","15","","NaN","","","","","","","","","","","","","",""
"","response","","html-keyboard-response","107","208114","0.0-1.0-140.0-0.0","0","0","13066","","522","","","75","15","","","1","15","training","adjacent","FE","6","5","M.jpg","O.jpg","0","0","1","",""
"","feedback","","html-keyboard-response","108","209116","0.0-1.0-141.0-0.0","0","0","13066","","null","","","null","15","","","","","","","","","","","","","","","",""
"","ITI","","html-keyboard-response","109","210118","0.0-1.0-144.0","0","0","13066","","null","","","null","15","","","","","","","","","","","","","","","NaN",""
"","S1","","html-keyboard-response","110","210369","0.0-1.0-146.0","0","0","13066","","null","","","null","16","","","","","","","","","","","","","","","",""
"","ISI","","html-keyboard-response","111","211371","0.0-1.0-147.0","0","0","13066","","null","","","null","16","NaN","","","","","","","","","","","","","","",""
"","S2","","html-keyboard-response","112","211631","0.0-1.0-148.0","0","0","13066","","null","","","null","16","","NaN","","","","","","","","","","","","","",""
"","response","","html-keyboard-response","113","211942","0.0-1.0-149.0-0.0","0","0","13066","","311","","","75","16","","","1","16","training","adjacent","AB","1","2","Q.jpg","P.jpg","0","1","0","",""
"","feedback","","html-keyboard-response","114","212945","0.0-1.0-150.0-0.0","0","0","13066","","null","","","null","16","","","","","","","","","","","","","","","",""
"","time_out","","html-keyboard-response","115","214947","0.0-1.0-152.0-0.0","0","0","13066","","null","","","null","16","","","","","","","","","","","","","","","",""
"","ITI","","html-keyboard-response","116","215949","0.0-1.0-153.0","0","0","13066","","null","","","null","16","","","","","","","","","","","","","","","NaN",""
"","S1","","html-keyboard-response","117","216201","0.0-1.0-155.0","0","0","13066","","null","","","null","17","","","","","","","","","","","","","","","",""
"","ISI","","html-keyboard-response","118","217203","0.0-1.0-156.0","0","0","13066","","null","","","null","17","NaN","","","","","","","","","","","","","","",""
"","S2","","html-keyboard-response","119","217455","0.0-1.0-157.0","0","0","13066","","null","","","null","17","","NaN","","","","","","","","","","","","","",""
"","response","","html-keyboard-response","120","218043","0.0-1.0-158.0-0.0","0","0","13066","","588","","","68","17","","","1","17","training","adjacent","BA","2","1","P.jpg","Q.jpg","1","0","0","",""
"","feedback","","html-keyboard-response","121","219046","0.0-1.0-159.0-0.0","0","0","13066","","null","","","null","17","","","","","","","","","","","","","","","",""
"","time_out","","html-keyboard-response","122","221048","0.0-1.0-161.0-0.0","0","0","13066","","null","","","null","17","","","","","","","","","","","","","","","",""
"","ITI","","html-keyboard-response","123","222050","0.0-1.0-162.0","0","0","13066","","null","","","null","17","","","","","","","","","","","","","","","NaN",""
"","S1","","html-keyboard-response","124","222302","0.0-1.0-164.0","0","0","13066","","null","","","null","18","","","","","","","","","","","","","","","",""
"","ISI","","html-keyboard-response","125","223303","0.0-1.0-165.0","0","0","13066","","null","","","null","18","NaN","","","","","","","","","","","","","","",""
"","S2","","html-keyboard-response","126","223555","0.0-1.0-166.0","0","0","13066","","null","","","null","18","","NaN","","","","","","","","","","","","","",""
"","response","","html-keyboard-response","127","224128","0.0-1.0-167.0-0.0","0","0","13066","","573","","","68","18","","","1","18","training","adjacent","GF","7","6","N.jpg","M.jpg","1","0","0","",""
"","feedback","","html-keyboard-response","128","225131","0.0-1.0-168.0-0.0","0","0","13066","","null","","","null","18","","","","","","","","","","","","","","","",""
"","time_out","","html-keyboard-response","129","227132","0.0-1.0-170.0-0.0","0","0","13066","","null","","","null","18","","","","","","","","","","","","","","","",""
"","ITI","","html-keyboard-response","130","228134","0.0-1.0-171.0","0","0","13066","","null","","","null","18","","","","","","","","","","","","","","","NaN",""
"","S1","","html-keyboard-response","131","228385","0.0-1.0-173.0","0","0","13066","","null","","","null","19","","","","","","","","","","","","","","","",""
"","ISI","","html-keyboard-response","132","229387","0.0-1.0-174.0","0","0","13066","","null","","","null","19","NaN","","","","","","","","","","","","","","",""
"","S2","","html-keyboard-response","133","229639","0.0-1.0-175.0","0","0","13066","","null","","","null","19","","NaN","","","","","","","","","","","","","",""
"","response","","html-keyboard-response","134","229917","0.0-1.0-176.0-0.0","0","0","13066","","278","","","68","19","","","1","19","training","adjacent","BA","2","1","P.jpg","Q.jpg","1","0","0","",""
"","feedback","","html-keyboard-response","135","230920","0.0-1.0-177.0-0.0","0","0","13066","","null","","","null","19","","","","","","","","","","","","","","","",""
"","time_out","","html-keyboard-response","136","232922","0.0-1.0-179.0-0.0","0","0","13066","","null","","","null","19","","","","","","","","","","","","","","","",""
"","ITI","","html-keyboard-response","137","233924","0.0-1.0-180.0","0","0","13066","","null","","","null","19","","","","","","","","","","","","","","","NaN",""
"","S1","","html-keyboard-response","138","234176","0.0-1.0-182.0","0","0","13066","","null","","","null","20","","","","","","","","","","","","","","","",""
"","ISI","","html-keyboard-response","139","235178","0.0-1.0-183.0","0","0","13066","","null","","","null","20","NaN","","","","","","","","","","","","","","",""
"","S2","","html-keyboard-response","140","235429","0.0-1.0-184.0","0","0","13066","","null","","","null","20","","NaN","","","","","","","","","","","","","",""
"","response","","html-keyboard-response","141","235996","0.0-1.0-185.0-0.0","0","0","13066","","567","","","68","20","","","1","20","training","adjacent","BC","2","3","P.jpg","R.jpg","1","1","1","",""
"","feedback","","html-keyboard-response","142","236999","0.0-1.0-186.0-0.0","0","0","13066","","null","","","null","20","","","","","","","","","","","","","","","",""
"","ITI","","html-keyboard-response","143","238001","0.0-1.0-189.0","0","0","13066","","null","","","null","20","","","","","","","","","","","","","","","NaN",""
"","S1","","html-keyboard-response","144","238252","0.0-1.0-191.0","0","0","13066","","null","","","null","21","","","","","","","","","","","","","","","",""
"","ISI","","html-keyboard-response","145","239253","0.0-1.0-192.0","0","0","13066","","null","","","null","21","NaN","","","","","","","","","","","","","","",""
"","S2","","html-keyboard-response","146","239505","0.0-1.0-193.0","0","0","13066","","null","","","null","21","","NaN","","","","","","","","","","","","","",""
"","response","","html-keyboard-response","147","239897","0.0-1.0-194.0-0.0","0","0","13066","","392","","","75","21","","","1","21","training","adjacent","FE","6","5","M.jpg","O.jpg","0","0","1","",""
"","feedback","","html-keyboard-response","148","240900","0.0-1.0-195.0-0.0","0","0","13066","","null","","","null","21","","","","","","","","","","","","","","","",""
"","ITI","","html-keyboard-response","149","241902","0.0-1.0-198.0","0","0","13066","","null","","","null","21","","","","","","","","","","","","","","","NaN",""
"","S1","","html-keyboard-response","150","242153","0.0-1.0-200.0","0","0","13066","","null","","","null","22","","","","","","","","","","","","","","","",""
"","ISI","","html-keyboard-response","151","243155","0.0-1.0-201.0","0","0","13066","","null","","","null","22","NaN","","","","","","","","","","","","","","",""
"","S2","","html-keyboard-response","152","243406","0.0-1.0-202.0","0","0","13066","","null","","","null","22","","NaN","","","","","","","","","","","","","",""
"","response","","html-keyboard-response","153","244109","0.0-1.0-203.0-0.0","0","0","13066","","703","","","75","22","","","1","22","training","adjacent","FE","6","5","M.jpg","O.jpg","0","0","1","",""
"","feedback","","html-keyboard-response","154","245112","0.0-1.0-204.0-0.0","0","0","13066","","null","","","null","22","","","","","","","","","","","","","","","",""
"","ITI","","html-keyboard-response","155","246113","0.0-1.0-207.0","0","0","13066","","null","","","null","22","","","","","","","","","","","","","","","NaN",""
"","S1","","html-keyboard-response","156","246366","0.0-1.0-209.0","0","0","13066","","null","","","null","23","","","","","","","","","","","","","","","",""
"","ISI","","html-keyboard-response","157","247368","0.0-1.0-210.0","0","0","13066","","null","","","null","23","NaN","","","","","","","","","","","","","","",""
"","S2","","html-keyboard-response","158","247620","0.0-1.0-211.0","0","0","13066","","null","","","null","23","","NaN","","","","","","","","","","","","","",""
"","response","","html-keyboard-response","159","248010","0.0-1.0-212.0-0.0","0","0","13066","","389","","","75","23","","","1","23","training","adjacent","CD","3","4","R.jpg","L.jpg","0","1","0","",""
"","feedback","","html-keyboard-response","160","249013","0.0-1.0-213.0-0.0","0","0","13066","","null","","","null","23","","","","","","","","","","","","","","","",""
"","time_out","","html-keyboard-response","161","251014","0.0-1.0-215.0-0.0","0","0","13066","","null","","","null","23","","","","","","","","","","","","","","","",""
"","ITI","","html-keyboard-response","162","252016","0.0-1.0-216.0","0","0","13066","","null","","","null","23","","","","","","","","","","","","","","","NaN",""
"","S1","","html-keyboard-response","163","252267","0.0-1.0-218.0","0","0","13066","","null","","","null","24","","","","","","","","","","","","","","","",""
"","ISI","","html-keyboard-response","164","253269","0.0-1.0-219.0","0","0","13066","","null","","","null","24","NaN","","","","","","","","","","","","","","",""
"","S2","","html-keyboard-response","165","253521","0.0-1.0-220.0","0","0","13066","","null","","","null","24","","NaN","","","","","","","","","","","","","",""
"","response","","html-keyboard-response","166","254107","0.0-1.0-221.0-0.0","0","0","13066","","586","","","68","24","","","1","24","training","adjacent","EF","5","6","O.jpg","M.jpg","1","1","1","",""
"","feedback","","html-keyboard-response","167","255110","0.0-1.0-222.0-0.0","0","0","13066","","null","","","null","24","","","","","","","","","","","","","","","",""
"","ITI","","html-keyboard-response","168","256112","0.0-1.0-225.0","0","0","13066","","null","","","null","24","","","","","","","","","","","","","","","NaN",""
"","S1","","html-keyboard-response","169","256378","0.0-1.0-227.0","0","0","13066","","null","","","null","25","","","","","","","","","","","","","","","",""
"","ISI","","html-keyboard-response","170","257380","0.0-1.0-228.0","0","0","13066","","null","","","null","25","NaN","","","","","","","","","","","","","","",""
"","S2","","html-keyboard-response","171","257633","0.0-1.0-229.0","0","0","13066","","null","","","null","25","","NaN","","","","","","","","","","","","","",""
"","response","","html-keyboard-response","172","258352","0.0-1.0-230.0-0.0","0","0","13066","","718","","","68","25","","","1","25","training","adjacent","ED","5","4","O.jpg","L.jpg","1","0","0","",""
"","feedback","","html-keyboard-response","173","259355","0.0-1.0-231.0-0.0","0","0","13066","","null","","","null","25","","","","","","","","","","","","","","","",""
"","time_out","","html-keyboard-response","174","261357","0.0-1.0-233.0-0.0","0","0","13066","","null","","","null","25","","","","","","","","","","","","","","","",""
"","ITI","","html-keyboard-response","175","262359","0.0-1.0-234.0","0","0","13066","","null","","","null","25","","","","","","","","","","","","","","","NaN",""
"","S1","","html-keyboard-response","176","262610","0.0-1.0-236.0","0","0","13066","","null","","","null","26","","","","","","","","","","","","","","","",""
"","ISI","","html-keyboard-response","177","263612","0.0-1.0-237.0","0","0","13066","","null","","","null","26","NaN","","","","","","","","","","","","","","",""
"","S2","","html-keyboard-response","178","263864","0.0-1.0-238.0","0","0","13066","","null","","","null","26","","NaN","","","","","","","","","","","","","",""
"","response","","html-keyboard-response","179","264232","0.0-1.0-239.0-0.0","0","0","13066","","368","","","75","26","","","1","26","training","adjacent","AB","1","2","Q.jpg","P.jpg","0","1","0","",""
"","feedback","","html-keyboard-response","180","265234","0.0-1.0-240.0-0.0","0","0","13066","","null","","","null","26","","","","","","","","","","","","","","","",""
"","time_out","","html-keyboard-response","181","267236","0.0-1.0-242.0-0.0","0","0","13066","","null","","","null","26","","","","","","","","","","","","","","","",""
"","ITI","","html-keyboard-response","182","268238","0.0-1.0-243.0","0","0","13066","","null","","","null","26","","","","","","","","","","","","","","","NaN",""
"","S1","","html-keyboard-response","183","268490","0.0-1.0-245.0","0","0","13066","","null","","","null","27","","","","","","","","","","","","","","","",""
"","ISI","","html-keyboard-response","184","269531","0.0-1.0-246.0","0","0","13066","","null","","","null","27","NaN","","","","","","","","","","","","","","",""
"","S2","","html-keyboard-response","185","269798","0.0-1.0-247.0","0","0","13066","","null","","","null","27","","NaN","","","","","","","","","","","","","",""
"","response","","html-keyboard-response","186","270148","0.0-1.0-248.0-0.0","0","0","13066","","348","","","68","27","","","1","27","training","adjacent","DC","4","3","L.jpg","R.jpg","1","0","0","",""
"","feedback","","html-keyboard-response","187","271151","0.0-1.0-249.0-0.0","0","0","13066","","null","","","null","27","","","","","","","","","","","","","","","",""
"","time_out","","html-keyboard-response","188","273153","0.0-1.0-251.0-0.0","0","0","13066","","null","","","null","27","","","","","","","","","","","","","","","",""
"","ITI","","html-keyboard-response","189","274155","0.0-1.0-252.0","0","0","13066","","null","","","null","27","","","","","","","","","","","","","","","NaN",""
"","S1","","html-keyboard-response","190","274407","0.0-1.0-254.0","0","0","13066","","null","","","null","28","","","","","","","","","","","","","","","",""
"","ISI","","html-keyboard-response","191","275409","0.0-1.0-255.0","0","0","13066","","null","","","null","28","NaN","","","","","","","","","","","","","","",""
"","S2","","html-keyboard-response","192","275660","0.0-1.0-256.0","0","0","13066","","null","","","null","28","","NaN","","","","","","","","","","","","","",""
"","response","","html-keyboard-response","193","276062","0.0-1.0-257.0-0.0","0","0","13066","","402","","","75","28","","","1","28","training","adjacent","DE","4","5","L.jpg","O.jpg","0","1","0","",""
"","feedback","","html-keyboard-response","194","277065","0.0-1.0-258.0-0.0","0","0","13066","","null","","","null","28","","","","","","","","","","","","","","","",""
"","time_out","","html-keyboard-response","195","279067","0.0-1.0-260.0-0.0","0","0","13066","","null","","","null","28","","","","","","","","","","","","","","","",""
"","ITI","","html-keyboard-response","196","280069","0.0-1.0-261.0","0","0","13066","","null","","","null","28","","","","","","","","","","","","","","","NaN",""
"","S1","","html-keyboard-response","197","280320","0.0-1.0-263.0","0","0","13066","","null","","","null","29","","","","","","","","","","","","","","","",""
"","ISI","","html-keyboard-response","198","281322","0.0-1.0-264.0","0","0","13066","","null","","","null","29","NaN","","","","","","","","","","","","","","",""
"","S2","","html-keyboard-response","199","281574","0.0-1.0-265.0","0","0","13066","","null","","","null","29","","NaN","","","","","","","","","","","","","",""
"","response","","html-keyboard-response","200","281984","0.0-1.0-266.0-0.0","0","0","13066","","409","","","75","29","","","1","29","training","adjacent","DE","4","5","L.jpg","O.jpg","0","1","0","",""
"","feedback","","html-keyboard-response","201","282987","0.0-1.0-267.0-0.0","0","0","13066","","null","","","null","29","","","","","","","","","","","","","","","",""
"","time_out","","html-keyboard-response","202","284989","0.0-1.0-269.0-0.0","0","0","13066","","null","","","null","29","","","","","","","","","","","","","","","",""
"","ITI","","html-keyboard-response","203","285991","0.0-1.0-270.0","0","0","13066","","null","","","null","29","","","","","","","","","","","","","","","NaN",""
"","S1","","html-keyboard-response","204","286243","0.0-1.0-272.0","0","0","13066","","null","","","null","30","","","","","","","","","","","","","","","",""
"","ISI","","html-keyboard-response","205","287245","0.0-1.0-273.0","0","0","13066","","null","","","null","30","NaN","","","","","","","","","","","","","","",""
"","S2","","html-keyboard-response","206","287497","0.0-1.0-274.0","0","0","13066","","null","","","null","30","","NaN","","","","","","","","","","","","","",""
"","response","","html-keyboard-response","207","287772","0.0-1.0-275.0-0.0","0","0","13066","","275","","","75","30","","","1","30","training","adjacent","CD","3","4","R.jpg","L.jpg","0","1","0","",""
"","feedback","","html-keyboard-response","208","288774","0.0-1.0-276.0-0.0","0","0","13066","","null","","","null","30","","","","","","","","","","","","","","","",""
"","time_out","","html-keyboard-response","209","290776","0.0-1.0-278.0-0.0","0","0","13066","","null","","","null","30","","","","","","","","","","","","","","","",""
"","ITI","","html-keyboard-response","210","291778","0.0-1.0-279.0","0","0","13066","","null","","","null","30","","","","","","","","","","","","","","","NaN",""
"","S1","","html-keyboard-response","211","292030","0.0-1.0-281.0","0","0","13066","","null","","","null","31","","","","","","","","","","","","","","","",""
"","ISI","","html-keyboard-response","212","293032","0.0-1.0-282.0","0","0","13066","","null","","","null","31","NaN","","","","","","","","","","","","","","",""
"","S2","","html-keyboard-response","213","293283","0.0-1.0-283.0","0","0","13066","","null","","","null","31","","NaN","","","","","","","","","","","","","",""
"","response","","html-keyboard-response","214","293563","0.0-1.0-284.0-0.0","0","0","13066","","279","","","68","31","","","1","31","training","adjacent","DC","4","3","L.jpg","R.jpg","1","0","0","",""
"","feedback","","html-keyboard-response","215","294566","0.0-1.0-285.0-0.0","0","0","13066","","null","","","null","31","","","","","","","","","","","","","","","",""
"","time_out","","html-keyboard-response","216","296568","0.0-1.0-287.0-0.0","0","0","13066","","null","","","null","31","","","","","","","","","","","","","","","",""
"","ITI","","html-keyboard-response","217","297570","0.0-1.0-288.0","0","0","13066","","null","","","null","31","","","","","","","","","","","","","","","NaN",""
"","S1","","html-keyboard-response","218","297822","0.0-1.0-290.0","0","0","13066","","null","","","null","32","","","","","","","","","","","","","","","",""
"","ISI","","html-keyboard-response","219","298823","0.0-1.0-291.0","0","0","13066","","null","","","null","32","NaN","","","","","","","","","","","","","","",""
"","S2","","html-keyboard-response","220","299075","0.0-1.0-292.0","0","0","13066","","null","","","null","32","","NaN","","","","","","","","","","","","","",""
"","response","","html-keyboard-response","221","299791","0.0-1.0-293.0-0.0","0","0","13066","","716","","","75","32","","","1","32","training","adjacent","DE","4","5","L.jpg","O.jpg","0","1","0","",""
"","feedback","","html-keyboard-response","222","300793","0.0-1.0-294.0-0.0","0","0","13066","","null","","","null","32","","","","","","","","","","","","","","","",""
"","time_out","","html-keyboard-response","223","302795","0.0-1.0-296.0-0.0","0","0","13066","","null","","","null","32","","","","","","","","","","","","","","","",""
"","ITI","","html-keyboard-response","224","303797","0.0-1.0-297.0","0","0","13066","","null","","","null","32","","","","","","","","","","","","","","","NaN",""
"","S1","","html-keyboard-response","225","304049","0.0-1.0-299.0","0","0","13066","","null","","","null","33","","","","","","","","","","","","","","","",""
"","ISI","","html-keyboard-response","226","305051","0.0-1.0-300.0","0","0","13066","","null","","","null","33","NaN","","","","","","","","","","","","","","",""
"","S2","","html-keyboard-response","227","305303","0.0-1.0-301.0","0","0","13066","","null","","","null","33","","NaN","","","","","","","","","","","","","",""
"","response","","html-keyboard-response","228","305559","0.0-1.0-302.0-0.0","0","0","13066","","255","","","75","33","","","1","33","training","adjacent","CD","3","4","R.jpg","L.jpg","0","1","0","",""
"","feedback","","html-keyboard-response","229","306562","0.0-1.0-303.0-0.0","0","0","13066","","null","","","null","33","","","","","","","","","","","","","","","",""
"","time_out","","html-keyboard-response","230","308564","0.0-1.0-305.0-0.0","0","0","13066","","null","","","null","33","","","","","","","","","","","","","","","",""
"","ITI","","html-keyboard-response","231","309566","0.0-1.0-306.0","0","0","13066","","null","","","null","33","","","","","","","","","","","","","","","NaN",""
"","S1","","html-keyboard-response","232","309818","0.0-1.0-308.0","0","0","13066","","null","","","null","34","","","","","","","","","","","","","","","",""
"","ISI","","html-keyboard-response","233","310820","0.0-1.0-309.0","0","0","13066","","null","","","null","34","NaN","","","","","","","","","","","","","","",""
"","S2","","html-keyboard-response","234","311072","0.0-1.0-310.0","0","0","13066","","null","","","null","34","","NaN","","","","","","","","","","","","","",""
"","response","","html-keyboard-response","235","311615","0.0-1.0-311.0-0.0","0","0","13066","","543","","","68","34","","","1","34","training","adjacent","ED","5","4","O.jpg","L.jpg","1","0","0","",""
"","feedback","","html-keyboard-response","236","312618","0.0-1.0-312.0-0.0","0","0","13066","","null","","","null","34","","","","","","","","","","","","","","","",""
"","time_out","","html-keyboard-response","237","314620","0.0-1.0-314.0-0.0","0","0","13066","","null","","","null","34","","","","","","","","","","","","","","","",""
"","ITI","","html-keyboard-response","238","315622","0.0-1.0-315.0","0","0","13066","","null","","","null","34","","","","","","","","","","","","","","","NaN",""
"","S1","","html-keyboard-response","239","315873","0.0-1.0-317.0","0","0","13066","","null","","","null","35","","","","","","","","","","","","","","","",""
"","ISI","","html-keyboard-response","240","316875","0.0-1.0-318.0","0","0","13066","","null","","","null","35","NaN","","","","","","","","","","","","","","",""
"","S2","","html-keyboard-response","241","317127","0.0-1.0-319.0","0","0","13066","","null","","","null","35","","NaN","","","","","","","","","","","","","",""
"","response","","html-keyboard-response","242","317573","0.0-1.0-320.0-0.0","0","0","13066","","445","","","68","35","","","1","35","training","adjacent","EF","5","6","O.jpg","M.jpg","1","1","1","",""
"","feedback","","html-keyboard-response","243","318576","0.0-1.0-321.0-0.0","0","0","13066","","null","","","null","35","","","","","","","","","","","","","","","",""
"","ITI","","html-keyboard-response","244","319578","0.0-1.0-324.0","0","0","13066","","null","","","null","35","","","","","","","","","","","","","","","NaN",""
"","S1","","html-keyboard-response","245","319830","0.0-1.0-326.0","0","0","13066","","null","","","null","36","","","","","","","","","","","","","","","",""
"","ISI","","html-keyboard-response","246","320835","0.0-1.0-327.0","0","0","13066","","null","","","null","36","NaN","","","","","","","","","","","","","","",""
"","S2","","html-keyboard-response","247","321087","0.0-1.0-328.0","0","0","13066","","null","","","null","36","","NaN","","","","","","","","","","","","","",""
"","response","","html-keyboard-response","248","321379","0.0-1.0-329.0-0.0","0","0","13066","","292","","","75","36","","","1","36","training","adjacent","BC","2","3","P.jpg","R.jpg","0","1","0","",""
"","feedback","","html-keyboard-response","249","322382","0.0-1.0-330.0-0.0","0","0","13066","","null","","","null","36","","","","","","","","","","","","","","","",""
"","time_out","","html-keyboard-response","250","324384","0.0-1.0-332.0-0.0","0","0","13066","","null","","","null","36","","","","","","","","","","","","","","","",""
"","ITI","","html-keyboard-response","251","325386","0.0-1.0-333.0","0","0","13066","","null","","","null","36","","","","","","","","","","","","","","","NaN",""
"","S1","","html-keyboard-response","252","325638","0.0-1.0-335.0","0","0","13066","","null","","","null","37","","","","","","","","","","","","","","","",""
"","ISI","","html-keyboard-response","253","326640","0.0-1.0-336.0","0","0","13066","","null","","","null","37","NaN","","","","","","","","","","","","","","",""
"","S2","","html-keyboard-response","254","326892","0.0-1.0-337.0","0","0","13066","","null","","","null","37","","NaN","","","","","","","","","","","","","",""
"","response","","html-keyboard-response","255","327243","0.0-1.0-338.0-0.0","0","0","13066","","351","","","75","37","","","1","37","training","adjacent","FE","6","5","M.jpg","O.jpg","0","0","1","",""
"","feedback","","html-keyboard-response","256","328255","0.0-1.0-339.0-0.0","0","0","13066","","null","","","null","37","","","","","","","","","","","","","","","",""
"","ITI","","html-keyboard-response","257","329257","0.0-1.0-342.0","0","0","13066","","null","","","null","37","","","","","","","","","","","","","","","NaN",""
"","S1","","html-keyboard-response","258","329510","0.0-1.0-344.0","0","0","13066","","null","","","null","38","","","","","","","","","","","","","","","",""
"","ISI","","html-keyboard-response","259","330512","0.0-1.0-345.0","0","0","13066","","null","","","null","38","NaN","","","","","","","","","","","","","","",""
"","S2","","html-keyboard-response","260","330767","0.0-1.0-346.0","0","0","13066","","null","","","null","38","","NaN","","","","","","","","","","","","","",""
"","response","","html-keyboard-response","261","331115","0.0-1.0-347.0-0.0","0","0","13066","","347","","","75","38","","","1","38","training","adjacent","AB","1","2","Q.jpg","P.jpg","0","1","0","",""
"","feedback","","html-keyboard-response","262","332118","0.0-1.0-348.0-0.0","0","0","13066","","null","","","null","38","","","","","","","","","","","","","","","",""
"","time_out","","html-keyboard-response","263","334120","0.0-1.0-350.0-0.0","0","0","13066","","null","","","null","38","","","","","","","","","","","","","","","",""
"","ITI","","html-keyboard-response","264","335122","0.0-1.0-351.0","0","0","13066","","null","","","null","38","","","","","","","","","","","","","","","NaN",""
"","S1","","html-keyboard-response","265","335374","0.0-1.0-353.0","0","0","13066","","null","","","null","39","","","","","","","","","","","","","","","",""
"","ISI","","html-keyboard-response","266","336376","0.0-1.0-354.0","0","0","13066","","null","","","null","39","NaN","","","","","","","","","","","","","","",""
"","S2","","html-keyboard-response","267","336627","0.0-1.0-355.0","0","0","13066","","null","","","null","39","","NaN","","","","","","","","","","","","","",""
"","response","","html-keyboard-response","268","337472","0.0-1.0-356.0-0.0","0","0","13066","","845","","","75","39","","","1","39","training","adjacent","DC","4","3","L.jpg","R.jpg","0","0","1","",""
"","feedback","","html-keyboard-response","269","338475","0.0-1.0-357.0-0.0","0","0","13066","","null","","","null","39","","","","","","","","","","","","","","","",""
"","ITI","","html-keyboard-response","270","339477","0.0-1.0-360.0","0","0","13066","","null","","","null","39","","","","","","","","","","","","","","","NaN",""
"","S1","","html-keyboard-response","271","339729","0.0-1.0-362.0","0","0","13066","","null","","","null","40","","","","","","","","","","","","","","","",""
"","ISI","","html-keyboard-response","272","340731","0.0-1.0-363.0","0","0","13066","","null","","","null","40","NaN","","","","","","","","","","","","","","",""
"","S2","","html-keyboard-response","273","340992","0.0-1.0-364.0","0","0","13066","","null","","","null","40","","NaN","","","","","","","","","","","","","",""
"","response","","html-keyboard-response","274","341636","0.0-1.0-365.0-0.0","0","0","13066","","643","","","68","40","","","1","40","training","adjacent","FG","6","7","M.jpg","N.jpg","1","1","1","",""
"","feedback","","html-keyboard-response","275","342639","0.0-1.0-366.0-0.0","0","0","13066","","null","","","null","40","","","","","","","","","","","","","","","",""
"","ITI","","html-keyboard-response","276","343641","0.0-1.0-369.0","0","0","13066","","null","","","null","40","","","","","","","","","","","","","","","NaN",""
"","S1","","html-keyboard-response","277","343893","0.0-1.0-371.0","0","0","13066","","null","","","null","41","","","","","","","","","","","","","","","",""
"","ISI","","html-keyboard-response","278","344895","0.0-1.0-372.0","0","0","13066","","null","","","null","41","NaN","","","","","","","","","","","","","","",""
"","S2","","html-keyboard-response","279","345147","0.0-1.0-373.0","0","0","13066","","null","","","null","41","","NaN","","","","","","","","","","","","","",""
"","response","","html-keyboard-response","280","345719","0.0-1.0-374.0-0.0","0","0","13066","","572","","","75","41","","","1","41","training","adjacent","BA","2","1","P.jpg","Q.jpg","0","0","1","",""
"","feedback","","html-keyboard-response","281","346722","0.0-1.0-375.0-0.0","0","0","13066","","null","","","null","41","","","","","","","","","","","","","","","",""
"","ITI","","html-keyboard-response","282","347724","0.0-1.0-378.0","0","0","13066","","null","","","null","41","","","","","","","","","","","","","","","NaN",""
"","S1","","html-keyboard-response","283","347976","0.0-1.0-380.0","0","0","13066","","null","","","null","42","","","","","","","","","","","","","","","",""
"","ISI","","html-keyboard-response","284","348978","0.0-1.0-381.0","0","0","13066","","null","","","null","42","NaN","","","","","","","","","","","","","","",""
"","S2","","html-keyboard-response","285","349230","0.0-1.0-382.0","0","0","13066","","null","","","null","42","","NaN","","","","","","","","","","","","","",""
"","response","","html-keyboard-response","286","349629","0.0-1.0-383.0-0.0","0","0","13066","","399","","","75","42","","","1","42","training","adjacent","DE","4","5","L.jpg","O.jpg","0","1","0","",""
"","feedback","","html-keyboard-response","287","350632","0.0-1.0-384.0-0.0","0","0","13066","","null","","","null","42","","","","","","","","","","","","","","","",""
"","time_out","","html-keyboard-response","288","352634","0.0-1.0-386.0-0.0","0","0","13066","","null","","","null","42","","","","","","","","","","","","","","","",""
"","ITI","","html-keyboard-response","289","353636","0.0-1.0-387.0","0","0","13066","","null","","","null","42","","","","","","","","","","","","","","","NaN",""
"","S1","","html-keyboard-response","290","353888","0.0-1.0-389.0","0","0","13066","","null","","","null","43","","","","","","","","","","","","","","","",""
"","ISI","","html-keyboard-response","291","354890","0.0-1.0-390.0","0","0","13066","","null","","","null","43","NaN","","","","","","","","","","","","","","",""
"","S2","","html-keyboard-response","292","355142","0.0-1.0-391.0","0","0","13066","","null","","","null","43","","NaN","","","","","","","","","","","","","",""
"","response","","html-keyboard-response","293","355636","0.0-1.0-392.0-0.0","0","0","13066","","493","","","68","43","","","1","43","training","adjacent","GF","7","6","N.jpg","M.jpg","1","0","0","",""
"","feedback","","html-keyboard-response","294","356639","0.0-1.0-393.0-0.0","0","0","13066","","null","","","null","43","","","","","","","","","","","","","","","",""
"","time_out","","html-keyboard-response","295","358641","0.0-1.0-395.0-0.0","0","0","13066","","null","","","null","43","","","","","","","","","","","","","","","",""
"","ITI","","html-keyboard-response","296","359643","0.0-1.0-396.0","0","0","13066","","null","","","null","43","","","","","","","","","","","","","","","NaN",""
"","S1","","html-keyboard-response","297","359895","0.0-1.0-398.0","0","0","13066","","null","","","null","44","","","","","","","","","","","","","","","",""
"","ISI","","html-keyboard-response","298","360897","0.0-1.0-399.0","0","0","13066","","null","","","null","44","NaN","","","","","","","","","","","","","","",""
"","S2","","html-keyboard-response","299","361150","0.0-1.0-400.0","0","0","13066","","null","","","null","44","","NaN","","","","","","","","","","","","","",""
"","response","","html-keyboard-response","300","361474","0.0-1.0-401.0-0.0","0","0","13066","","324","","","75","44","","","1","44","training","adjacent","CB","3","2","R.jpg","P.jpg","0","0","1","",""
"","feedback","","html-keyboard-response","301","362477","0.0-1.0-402.0-0.0","0","0","13066","","null","","","null","44","","","","","","","","","","","","","","","",""
"","ITI","","html-keyboard-response","302","363492","0.0-1.0-405.0","0","0","13066","","null","","","null","44","","","","","","","","","","","","","","","NaN",""
"","S1","","html-keyboard-response","303","363745","0.0-1.0-407.0","0","0","13066","","null","","","null","45","","","","","","","","","","","","","","","",""
"","ISI","","html-keyboard-response","304","364747","0.0-1.0-408.0","0","0","13066","","null","","","null","45","NaN","","","","","","","","","","","","","","",""
"","S2","","html-keyboard-response","305","364999","0.0-1.0-409.0","0","0","13066","","null","","","null","45","","NaN","","","","","","","","","","","","","",""
"","response","","html-keyboard-response","306","365718","0.0-1.0-410.0-0.0","0","0","13066","","718","","","75","45","","","1","45","training","adjacent","EF","5","6","O.jpg","M.jpg","0","1","0","",""
"","feedback","","html-keyboard-response","307","366721","0.0-1.0-411.0-0.0","0","0","13066","","null","","","null","45","","","","","","","","","","","","","","","",""
"","time_out","","html-keyboard-response","308","368723","0.0-1.0-413.0-0.0","0","0","13066","","null","","","null","45","","","","","","","","","","","","","","","",""
"","ITI","","html-keyboard-response","309","369724","0.0-1.0-414.0","0","0","13066","","null","","","null","45","","","","","","","","","","","","","","","NaN",""
"","S1","","html-keyboard-response","310","369977","0.0-1.0-416.0","0","0","13066","","null","","","null","46","","","","","","","","","","","","","","","",""
"","ISI","","html-keyboard-response","311","370979","0.0-1.0-417.0","0","0","13066","","null","","","null","46","NaN","","","","","","","","","","","","","","",""
"","S2","","html-keyboard-response","312","371231","0.0-1.0-418.0","0","0","13066","","null","","","null","46","","NaN","","","","","","","","","","","","","",""
"","response","","html-keyboard-response","313","371626","0.0-1.0-419.0-0.0","0","0","13066","","395","","","75","46","","","1","46","training","adjacent","CD","3","4","R.jpg","L.jpg","0","1","0","",""
"","feedback","","html-keyboard-response","314","372629","0.0-1.0-420.0-0.0","0","0","13066","","null","","","null","46","","","","","","","","","","","","","","","",""
"","time_out","","html-keyboard-response","315","374631","0.0-1.0-422.0-0.0","0","0","13066","","null","","","null","46","","","","","","","","","","","","","","","",""
"","ITI","","html-keyboard-response","316","375633","0.0-1.0-423.0","0","0","13066","","null","","","null","46","","","","","","","","","","","","","","","NaN",""
"","S1","","html-keyboard-response","317","375892","0.0-1.0-425.0","0","0","13066","","null","","","null","47","","","","","","","","","","","","","","","",""
"","ISI","","html-keyboard-response","318","376893","0.0-1.0-426.0","0","0","13066","","null","","","null","47","NaN","","","","","","","","","","","","","","",""
"","S2","","html-keyboard-response","319","377145","0.0-1.0-427.0","0","0","13066","","null","","","null","47","","NaN","","","","","","","","","","","","","",""
"","response","","html-keyboard-response","320","377633","0.0-1.0-428.0-0.0","0","0","13066","","487","","","68","47","","","1","47","training","adjacent","FG","6","7","M.jpg","N.jpg","1","1","1","",""
"","feedback","","html-keyboard-response","321","378636","0.0-1.0-429.0-0.0","0","0","13066","","null","","","null","47","","","","","","","","","","","","","","","",""
"","ITI","","html-keyboard-response","322","379638","0.0-1.0-432.0","0","0","13066","","null","","","null","47","","","","","","","","","","","","","","","NaN",""
"","block_over","","html-keyboard-response","323","388825","0.0-1.0-433.0-0.0","0","0","13066","","9186","","","32","47","","","","","","","","","","","","","","","",""
"","S1","","html-keyboard-response","324","389078","0.0-1.0-434.0","0","0","13066","","null","","","null","48","","","","","","","","","","","","","","","",""
"","ISI","","html-keyboard-response","325","390079","0.0-1.0-435.0","0","0","13066","","null","","","null","48","NaN","","","","","","","","","","","","","","",""
"","S2","","html-keyboard-response","326","390332","0.0-1.0-436.0","0","0","13066","","null","","","null","48","","NaN","","","","","","","","","","","","","",""
"","response","","html-keyboard-response","327","390947","0.0-1.0-437.0-0.0","0","0","13066","","614","","","68","48","","","2","48","training","adjacent","DC","4","3","L.jpg","R.jpg","1","0","0","",""
"","feedback","","html-keyboard-response","328","391950","0.0-1.0-438.0-0.0","0","0","13066","","null","","","null","48","","","","","","","","","","","","","","","",""
"","time_out","","html-keyboard-response","329","393951","0.0-1.0-440.0-0.0","0","0","13066","","null","","","null","48","","","","","","","","","","","","","","","",""
"","ITI","","html-keyboard-response","330","394953","0.0-1.0-441.0","0","0","13066","","null","","","null","48","","","","","","","","","","","","","","","NaN",""
"","S1","","html-keyboard-response","331","395205","0.0-1.0-443.0","0","0","13066","","null","","","null","49","","","","","","","","","","","","","","","",""
"","ISI","","html-keyboard-response","332","396206","0.0-1.0-444.0","0","0","13066","","null","","","null","49","NaN","","","","","","","","","","","","","","",""
"","S2","","html-keyboard-response","333","396459","0.0-1.0-445.0","0","0","13066","","null","","","null","49","","NaN","","","","","","","","","","","","","",""
"","response","","html-keyboard-response","334","397155","0.0-1.0-446.0-0.0","0","0","13066","","695","","","68","49","","","2","49","training","adjacent","FG","6","7","M.jpg","N.jpg","1","1","1","",""
"","feedback","","html-keyboard-response","335","398157","0.0-1.0-447.0-0.0","0","0","13066","","null","","","null","49","","","","","","","","","","","","","","","",""
"","ITI","","html-keyboard-response","336","399160","0.0-1.0-450.0","0","0","13066","","null","","","null","49","","","","","","","","","","","","","","","NaN",""
"","S1","","html-keyboard-response","337","399411","0.0-1.0-452.0","0","0","13066","","null","","","null","50","","","","","","","","","","","","","","","",""
"","ISI","","html-keyboard-response","338","400412","0.0-1.0-453.0","0","0","13066","","null","","","null","50","NaN","","","","","","","","","","","","","","",""
"","S2","","html-keyboard-response","339","400664","0.0-1.0-454.0","0","0","13066","","null","","","null","50","","NaN","","","","","","","","","","","","","",""
"","response","","html-keyboard-response","340","400959","0.0-1.0-455.0-0.0","0","0","13066","","293","","","75","50","","","2","50","training","adjacent","GF","7","6","N.jpg","M.jpg","0","0","1","",""
"","feedback","","html-keyboard-response","341","401962","0.0-1.0-456.0-0.0","0","0","13066","","null","","","null","50","","","","","","","","","","","","","","","",""
"","ITI","","html-keyboard-response","342","402963","0.0-1.0-459.0","0","0","13066","","null","","","null","50","","","","","","","","","","","","","","","NaN",""
"","S1","","html-keyboard-response","343","403215","0.0-1.0-461.0","0","0","13066","","null","","","null","51","","","","","","","","","","","","","","","",""
"","ISI","","html-keyboard-response","344","404217","0.0-1.0-462.0","0","0","13066","","null","","","null","51","NaN","","","","","","","","","","","","","","",""
"","S2","","html-keyboard-response","345","404470","0.0-1.0-463.0","0","0","13066","","null","","","null","51","","NaN","","","","","","","","","","","","","",""
"","response","","html-keyboard-response","346","404991","0.0-1.0-464.0-0.0","0","0","13066","","520","","","68","51","","","2","51","training","adjacent","BA","2","1","P.jpg","Q.jpg","1","0","0","",""
"","feedback","","html-keyboard-response","347","405993","0.0-1.0-465.0-0.0","0","0","13066","","null","","","null","51","","","","","","","","","","","","","","","",""
"","time_out","","html-keyboard-response","348","407995","0.0-1.0-467.0-0.0","0","0","13066","","null","","","null","51","","","","","","","","","","","","","","","",""
"","ITI","","html-keyboard-response","349","408997","0.0-1.0-468.0","0","0","13066","","null","","","null","51","","","","","","","","","","","","","","","NaN",""
"","S1","","html-keyboard-response","350","409249","0.0-1.0-470.0","0","0","13066","","null","","","null","52","","","","","","","","","","","","","","","",""
"","ISI","","html-keyboard-response","351","410251","0.0-1.0-471.0","0","0","13066","","null","","","null","52","NaN","","","","","","","","","","","","","","",""
"","S2","","html-keyboard-response","352","410504","0.0-1.0-472.0","0","0","13066","","null","","","null","52","","NaN","","","","","","","","","","","","","",""
"","response","","html-keyboard-response","353","410600","0.0-1.0-473.0-0.0","0","0","13066","","94","","","68","52","","","2","52","training","adjacent","FE","6","5","M.jpg","O.jpg","1","0","0","",""
"","feedback","","html-keyboard-response","354","411602","0.0-1.0-474.0-0.0","0","0","13066","","null","","","null","52","","","","","","","","","","","","","","","",""
"","time_out","","html-keyboard-response","355","413604","0.0-1.0-476.0-0.0","0","0","13066","","null","","","null","52","","","","","","","","","","","","","","","",""
"","ITI","","html-keyboard-response","356","414606","0.0-1.0-477.0","0","0","13066","","null","","","null","52","","","","","","","","","","","","","","","NaN",""
"","S1","","html-keyboard-response","357","414857","0.0-1.0-479.0","0","0","13066","","null","","","null","53","","","","","","","","","","","","","","","",""
"","ISI","","html-keyboard-response","358","415859","0.0-1.0-480.0","0","0","13066","","null","","","null","53","NaN","","","","","","","","","","","","","","",""
"","S2","","html-keyboard-response","359","416110","0.0-1.0-481.0","0","0","13066","","null","","","null","53","","NaN","","","","","","","","","","","","","",""
"","response","","html-keyboard-response","360","416634","0.0-1.0-482.0-0.0","0","0","13066","","522","","","68","53","","","2","53","training","adjacent","ED","5","4","O.jpg","L.jpg","1","0","0","",""
"","feedback","","html-keyboard-response","361","417636","0.0-1.0-483.0-0.0","0","0","13066","","null","","","null","53","","","","","","","","","","","","","","","",""
"","time_out","","html-keyboard-response","362","419637","0.0-1.0-485.0-0.0","0","0","13066","","null","","","null","53","","","","","","","","","","","","","","","",""
"","ITI","","html-keyboard-response","363","420639","0.0-1.0-486.0","0","0","13066","","null","","","null","53","","","","","","","","","","","","","","","NaN",""
"","S1","","html-keyboard-response","364","420891","0.0-1.0-488.0","0","0","13066","","null","","","null","54","","","","","","","","","","","","","","","",""
"","ISI","","html-keyboard-response","365","421892","0.0-1.0-489.0","0","0","13066","","null","","","null","54","NaN","","","","","","","","","","","","","","",""
"","S2","","html-keyboard-response","366","422144","0.0-1.0-490.0","0","0","13066","","null","","","null","54","","NaN","","","","","","","","","","","","","",""
"","response","","html-keyboard-response","367","422373","0.0-1.0-491.0-0.0","0","0","13066","","227","","","75","54","","","2","54","training","adjacent","AB","1","2","Q.jpg","P.jpg","0","1","0","",""
"","feedback","","html-keyboard-response","368","423375","0.0-1.0-492.0-0.0","0","0","13066","","null","","","null","54","","","","","","","","","","","","","","","",""
"","time_out","","html-keyboard-response","369","425377","0.0-1.0-494.0-0.0","0","0","13066","","null","","","null","54","","","","","","","","","","","","","","","",""
"","ITI","","html-keyboard-response","370","426379","0.0-1.0-495.0","0","0","13066","","null","","","null","54","","","","","","","","","","","","","","","NaN",""
"","S1","","html-keyboard-response","371","426631","0.0-1.0-497.0","0","0","13066","","null","","","null","55","","","","","","","","","","","","","","","",""
"","ISI","","html-keyboard-response","372","427634","0.0-1.0-498.0","0","0","13066","","null","","","null","55","NaN","","","","","","","","","","","","","","",""
"","S2","","html-keyboard-response","373","427886","0.0-1.0-499.0","0","0","13066","","null","","","null","55","","NaN","","","","","","","","","","","","","",""
"","response","","html-keyboard-response","374","428622","0.0-1.0-500.0-0.0","0","0","13066","","734","","","68","55","","","2","55","training","adjacent","FG","6","7","M.jpg","N.jpg","1","1","1","",""
"","feedback","","html-keyboard-response","375","429624","0.0-1.0-501.0-0.0","0","0","13066","","null","","","null","55","","","","","","","","","","","","","","","",""
"","ITI","","html-keyboard-response","376","430626","0.0-1.0-504.0","0","0","13066","","null","","","null","55","","","","","","","","","","","","","","","NaN",""
"","S1","","html-keyboard-response","377","430878","0.0-1.0-506.0","0","0","13066","","null","","","null","56","","","","","","","","","","","","","","","",""
"","ISI","","html-keyboard-response","378","431880","0.0-1.0-507.0","0","0","13066","","null","","","null","56","NaN","","","","","","","","","","","","","","",""
"","S2","","html-keyboard-response","379","432132","0.0-1.0-508.0","0","0","13066","","null","","","null","56","","NaN","","","","","","","","","","","","","",""
"","response","","html-keyboard-response","380","432821","0.0-1.0-509.0-0.0","0","0","13066","","687","","","68","56","","","2","56","training","adjacent","CD","3","4","R.jpg","L.jpg","1","1","1","",""
"","feedback","","html-keyboard-response","381","433822","0.0-1.0-510.0-0.0","0","0","13066","","null","","","null","56","","","","","","","","","","","","","","","",""
"","ITI","","html-keyboard-response","382","434825","0.0-1.0-513.0","0","0","13066","","null","","","null","56","","","","","","","","","","","","","","","NaN",""
"","S1","","html-keyboard-response","383","435077","0.0-1.0-515.0","0","0","13066","","null","","","null","57","","","","","","","","","","","","","","","",""
"","ISI","","html-keyboard-response","384","436080","0.0-1.0-516.0","0","0","13066","","null","","","null","57","NaN","","","","","","","","","","","","","","",""
"","S2","","html-keyboard-response","385","436332","0.0-1.0-517.0","0","0","13066","","null","","","null","57","","NaN","","","","","","","","","","","","","",""
"","response","","html-keyboard-response","386","436775","0.0-1.0-518.0-0.0","0","0","13066","","441","","","75","57","","","2","57","training","adjacent","GF","7","6","N.jpg","M.jpg","0","0","1","",""
"","feedback","","html-keyboard-response","387","437778","0.0-1.0-519.0-0.0","0","0","13066","","null","","","null","57","","","","","","","","","","","","","","","",""
"","ITI","","html-keyboard-response","388","438780","0.0-1.0-522.0","0","0","13066","","null","","","null","57","","","","","","","","","","","","","","","NaN",""
"","S1","","html-keyboard-response","389","439032","0.0-1.0-524.0","0","0","13066","","null","","","null","58","","","","","","","","","","","","","","","",""
"","ISI","","html-keyboard-response","390","440034","0.0-1.0-525.0","0","0","13066","","null","","","null","58","NaN","","","","","","","","","","","","","","",""
"","S2","","html-keyboard-response","391","440286","0.0-1.0-526.0","0","0","13066","","null","","","null","58","","NaN","","","","","","","","","","","","","",""
"","response","","html-keyboard-response","392","440541","0.0-1.0-527.0-0.0","0","0","13066","","253","","","75","58","","","2","58","training","adjacent","CB","3","2","R.jpg","P.jpg","0","0","1","",""
"","feedback","","html-keyboard-response","393","441542","0.0-1.0-528.0-0.0","0","0","13066","","null","","","null","58","","","","","","","","","","","","","","","",""
"","ITI","","html-keyboard-response","394","442544","0.0-1.0-531.0","0","0","13066","","null","","","null","58","","","","","","","","","","","","","","","NaN",""
"","S1","","html-keyboard-response","395","442795","0.0-1.0-533.0","0","0","13066","","null","","","null","59","","","","","","","","","","","","","","","",""
"","ISI","","html-keyboard-response","396","443797","0.0-1.0-534.0","0","0","13066","","null","","","null","59","NaN","","","","","","","","","","","","","","",""
"","S2","","html-keyboard-response","397","444049","0.0-1.0-535.0","0","0","13066","","null","","","null","59","","NaN","","","","","","","","","","","","","",""
"","response","","html-keyboard-response","398","444398","0.0-1.0-536.0-0.0","0","0","13066","","347","","","75","59","","","2","59","training","adjacent","DE","4","5","L.jpg","O.jpg","0","1","0","",""
"","feedback","","html-keyboard-response","399","445400","0.0-1.0-537.0-0.0","0","0","13066","","null","","","null","59","","","","","","","","","","","","","","","",""
"","time_out","","html-keyboard-response","400","447402","0.0-1.0-539.0-0.0","0","0","13066","","null","","","null","59","","","","","","","","","","","","","","","",""
"","ITI","","html-keyboard-response","401","448404","0.0-1.0-540.0","0","0","13066","","null","","","null","59","","","","","","","","","","","","","","","NaN",""
"","S1","","html-keyboard-response","402","448656","0.0-1.0-542.0","0","0","13066","","null","","","null","60","","","","","","","","","","","","","","","",""
"","ISI","","html-keyboard-response","403","449658","0.0-1.0-543.0","0","0","13066","","null","","","null","60","NaN","","","","","","","","","","","","","","",""
"","S2","","html-keyboard-response","404","449910","0.0-1.0-544.0","0","0","13066","","null","","","null","60","","NaN","","","","","","","","","","","","","",""
"","response","","html-keyboard-response","405","451365","0.0-1.0-545.0-0.0","0","0","13066","","1453","","","68","60","","","2","60","training","adjacent","CB","3","2","R.jpg","P.jpg","1","0","0","",""
"","feedback","","html-keyboard-response","406","452367","0.0-1.0-546.0-0.0","0","0","13066","","null","","","null","60","","","","","","","","","","","","","","","",""
"","time_out","","html-keyboard-response","407","454369","0.0-1.0-548.0-0.0","0","0","13066","","null","","","null","60","","","","","","","","","","","","","","","",""
"","ITI","","html-keyboard-response","408","455371","0.0-1.0-549.0","0","0","13066","","null","","","null","60","","","","","","","","","","","","","","","NaN",""
"","S1","","html-keyboard-response","409","455625","0.0-1.0-551.0","0","0","13066","","null","","","null","61","","","","","","","","","","","","","","","",""
"","ISI","","html-keyboard-response","410","456626","0.0-1.0-552.0","0","0","13066","","null","","","null","61","NaN","","","","","","","","","","","","","","",""
"","S2","","html-keyboard-response","411","456878","0.0-1.0-553.0","0","0","13066","","null","","","null","61","","NaN","","","","","","","","","","","","","",""
"","response","","html-keyboard-response","412","457219","0.0-1.0-554.0-0.0","0","0","13066","","339","","","68","61","","","2","61","training","adjacent","EF","5","6","O.jpg","M.jpg","1","1","1","",""
"","feedback","","html-keyboard-response","413","458221","0.0-1.0-555.0-0.0","0","0","13066","","null","","","null","61","","","","","","","","","","","","","","","",""
"","ITI","","html-keyboard-response","414","459222","0.0-1.0-558.0","0","0","13066","","null","","","null","61","","","","","","","","","","","","","","","NaN",""
"","S1","","html-keyboard-response","415","459474","0.0-1.0-560.0","0","0","13066","","null","","","null","62","","","","","","","","","","","","","","","",""
"","ISI","","html-keyboard-response","416","460475","0.0-1.0-561.0","0","0","13066","","null","","","null","62","NaN","","","","","","","","","","","","","","",""
"","S2","","html-keyboard-response","417","460728","0.0-1.0-562.0","0","0","13066","","null","","","null","62","","NaN","","","","","","","","","","","","","",""
"","response","","html-keyboard-response","418","461052","0.0-1.0-563.0-0.0","0","0","13066","","322","","","68","62","","","2","62","training","adjacent","DC","4","3","L.jpg","R.jpg","1","0","0","",""
"","feedback","","html-keyboard-response","419","462069","0.0-1.0-564.0-0.0","0","0","13066","","null","","","null","62","","","","","","","","","","","","","","","",""
"","time_out","","html-keyboard-response","420","464071","0.0-1.0-566.0-0.0","0","0","13066","","null","","","null","62","","","","","","","","","","","","","","","",""
"","ITI","","html-keyboard-response","421","465072","0.0-1.0-567.0","0","0","13066","","null","","","null","62","","","","","","","","","","","","","","","NaN",""
"","S1","","html-keyboard-response","422","465324","0.0-1.0-569.0","0","0","13066","","null","","","null","63","","","","","","","","","","","","","","","",""
"","ISI","","html-keyboard-response","423","466326","0.0-1.0-570.0","0","0","13066","","null","","","null","63","NaN","","","","","","","","","","","","","","",""
"","S2","","html-keyboard-response","424","466578","0.0-1.0-571.0","0","0","13066","","null","","","null","63","","NaN","","","","","","","","","","","","","",""
"","response","","html-keyboard-response","425","466818","0.0-1.0-572.0-0.0","0","0","13066","","238","","","75","63","","","2","63","training","adjacent","DC","4","3","L.jpg","R.jpg","0","0","1","",""
"","feedback","","html-keyboard-response","426","467820","0.0-1.0-573.0-0.0","0","0","13066","","null","","","null","63","","","","","","","","","","","","","","","",""
"","ITI","","html-keyboard-response","427","468822","0.0-1.0-576.0","0","0","13066","","null","","","null","63","","","","","","","","","","","","","","","NaN",""
"","S1","","html-keyboard-response","428","469073","0.0-1.0-578.0","0","0","13066","","null","","","null","64","","","","","","","","","","","","","","","",""
"","ISI","","html-keyboard-response","429","470075","0.0-1.0-579.0","0","0","13066","","null","","","null","64","NaN","","","","","","","","","","","","","","",""
"","S2","","html-keyboard-response","430","470327","0.0-1.0-580.0","0","0","13066","","null","","","null","64","","NaN","","","","","","","","","","","","","",""
"","response","","html-keyboard-response","431","470565","0.0-1.0-581.0-0.0","0","0","13066","","237","","","68","64","","","2","64","training","adjacent","ED","5","4","O.jpg","L.jpg","1","0","0","",""
"","feedback","","html-keyboard-response","432","471567","0.0-1.0-582.0-0.0","0","0","13066","","null","","","null","64","","","","","","","","","","","","","","","",""
"","time_out","","html-keyboard-response","433","473569","0.0-1.0-584.0-0.0","0","0","13066","","null","","","null","64","","","","","","","","","","","","","","","",""
"","ITI","","html-keyboard-response","434","474571","0.0-1.0-585.0","0","0","13066","","null","","","null","64","","","","","","","","","","","","","","","NaN",""
"","S1","","html-keyboard-response","435","474823","0.0-1.0-587.0","0","0","13066","","null","","","null","65","","","","","","","","","","","","","","","",""
"","ISI","","html-keyboard-response","436","475825","0.0-1.0-588.0","0","0","13066","","null","","","null","65","NaN","","","","","","","","","","","","","","",""
"","S2","","html-keyboard-response","437","476077","0.0-1.0-589.0","0","0","13066","","null","","","null","65","","NaN","","","","","","","","","","","","","",""
"","response","","html-keyboard-response","438","476621","0.0-1.0-590.0-0.0","0","0","13066","","542","","","75","65","","","2","65","training","adjacent","FE","6","5","M.jpg","O.jpg","0","0","1","",""
"","feedback","","html-keyboard-response","439","477622","0.0-1.0-591.0-0.0","0","0","13066","","null","","","null","65","","","","","","","","","","","","","","","",""
"","ITI","","html-keyboard-response","440","478625","0.0-1.0-594.0","0","0","13066","","null","","","null","65","","","","","","","","","","","","","","","NaN",""
"","S1","","html-keyboard-response","441","478877","0.0-1.0-596.0","0","0","13066","","null","","","null","66","","","","","","","","","","","","","","","",""
"","ISI","","html-keyboard-response","442","479878","0.0-1.0-597.0","0","0","13066","","null","","","null","66","NaN","","","","","","","","","","","","","","",""
"","S2","","html-keyboard-response","443","480130","0.0-1.0-598.0","0","0","13066","","null","","","null","66","","NaN","","","","","","","","","","","","","",""
"","response","","html-keyboard-response","444","480414","0.0-1.0-599.0-0.0","0","0","13066","","282","","","68","66","","","2","66","training","adjacent","FG","6","7","M.jpg","N.jpg","1","1","1","",""
"","feedback","","html-keyboard-response","445","481416","0.0-1.0-600.0-0.0","0","0","13066","","null","","","null","66","","","","","","","","","","","","","","","",""
"","ITI","","html-keyboard-response","446","482418","0.0-1.0-603.0","0","0","13066","","null","","","null","66","","","","","","","","","","","","","","","NaN",""
"","S1","","html-keyboard-response","447","482670","0.0-1.0-605.0","0","0","13066","","null","","","null","67","","","","","","","","","","","","","","","",""
"","ISI","","html-keyboard-response","448","483672","0.0-1.0-606.0","0","0","13066","","null","","","null","67","NaN","","","","","","","","","","","","","","",""
"","S2","","html-keyboard-response","449","483924","0.0-1.0-607.0","0","0","13066","","null","","","null","67","","NaN","","","","","","","","","","","","","",""
"","response","","html-keyboard-response","450","484233","0.0-1.0-608.0-0.0","0","0","13066","","307","","","68","67","","","2","67","training","adjacent","BA","2","1","P.jpg","Q.jpg","1","0","0","",""
"","feedback","","html-keyboard-response","451","485235","0.0-1.0-609.0-0.0","0","0","13066","","null","","","null","67","","","","","","","","","","","","","","","",""
"","time_out","","html-keyboard-response","452","487237","0.0-1.0-611.0-0.0","0","0","13066","","null","","","null","67","","","","","","","","","","","","","","","",""
"","ITI","","html-keyboard-response","453","488239","0.0-1.0-612.0","0","0","13066","","null","","","null","67","","","","","","","","","","","","","","","NaN",""
"","S1","","html-keyboard-response","454","488491","0.0-1.0-614.0","0","0","13066","","null","","","null","68","","","","","","","","","","","","","","","",""
"","ISI","","html-keyboard-response","455","489493","0.0-1.0-615.0","0","0","13066","","null","","","null","68","NaN","","","","","","","","","","","","","","",""
"","S2","","html-keyboard-response","456","489745","0.0-1.0-616.0","0","0","13066","","null","","","null","68","","NaN","","","","","","","","","","","","","",""
"","response","","html-keyboard-response","457","489886","0.0-1.0-617.0-0.0","0","0","13066","","139","","","75","68","","","2","68","training","adjacent","AB","1","2","Q.jpg","P.jpg","0","1","0","",""
"","feedback","","html-keyboard-response","458","490888","0.0-1.0-618.0-0.0","0","0","13066","","null","","","null","68","","","","","","","","","","","","","","","",""
"","time_out","","html-keyboard-response","459","492890","0.0-1.0-620.0-0.0","0","0","13066","","null","","","null","68","","","","","","","","","","","","","","","",""
"","ITI","","html-keyboard-response","460","493892","0.0-1.0-621.0","0","0","13066","","null","","","null","68","","","","","","","","","","","","","","","NaN",""
"","S1","","html-keyboard-response","461","494145","0.0-1.0-623.0","0","0","13066","","null","","","null","69","","","","","","","","","","","","","","","",""
"","ISI","","html-keyboard-response","462","495147","0.0-1.0-624.0","0","0","13066","","null","","","null","69","NaN","","","","","","","","","","","","","","",""
"","S2","","html-keyboard-response","463","495399","0.0-1.0-625.0","0","0","13066","","null","","","null","69","","NaN","","","","","","","","","","","","","",""
"","response","","html-keyboard-response","464","495903","0.0-1.0-626.0-0.0","0","0","13066","","502","","","75","69","","","2","69","training","adjacent","DC","4","3","L.jpg","R.jpg","0","0","1","",""
"","feedback","","html-keyboard-response","465","496904","0.0-1.0-627.0-0.0","0","0","13066","","null","","","null","69","","","","","","","","","","","","","","","",""
"","ITI","","html-keyboard-response","466","497906","0.0-1.0-630.0","0","0","13066","","null","","","null","69","","","","","","","","","","","","","","","NaN",""
"","S1","","html-keyboard-response","467","498158","0.0-1.0-632.0","0","0","13066","","null","","","null","70","","","","","","","","","","","","","","","",""
"","ISI","","html-keyboard-response","468","499160","0.0-1.0-633.0","0","0","13066","","null","","","null","70","NaN","","","","","","","","","","","","","","",""
"","S2","","html-keyboard-response","469","499412","0.0-1.0-634.0","0","0","13066","","null","","","null","70","","NaN","","","","","","","","","","","","","",""
"","response","","html-keyboard-response","470","499562","0.0-1.0-635.0-0.0","0","0","13066","","148","","","75","70","","","2","70","training","adjacent","CB","3","2","R.jpg","P.jpg","0","0","1","",""
"","feedback","","html-keyboard-response","471","500563","0.0-1.0-636.0-0.0","0","0","13066","","null","","","null","70","","","","","","","","","","","","","","","",""
"","ITI","","html-keyboard-response","472","501566","0.0-1.0-639.0","0","0","13066","","null","","","null","70","","","","","","","","","","","","","","","NaN",""
"","S1","","html-keyboard-response","473","501818","0.0-1.0-641.0","0","0","13066","","null","","","null","71","","","","","","","","","","","","","","","",""
"","ISI","","html-keyboard-response","474","502820","0.0-1.0-642.0","0","0","13066","","null","","","null","71","NaN","","","","","","","","","","","","","","",""
"","S2","","html-keyboard-response","475","503072","0.0-1.0-643.0","0","0","13066","","null","","","null","71","","NaN","","","","","","","","","","","","","",""
"","response","","html-keyboard-response","476","503706","0.0-1.0-644.0-0.0","0","0","13066","","632","","","75","71","","","2","71","training","adjacent","CD","3","4","R.jpg","L.jpg","0","1","0","",""
"","feedback","","html-keyboard-response","477","504708","0.0-1.0-645.0-0.0","0","0","13066","","null","","","null","71","","","","","","","","","","","","","","","",""
"","time_out","","html-keyboard-response","478","506710","0.0-1.0-647.0-0.0","0","0","13066","","null","","","null","71","","","","","","","","","","","","","","","",""
"","ITI","","html-keyboard-response","479","507712","0.0-1.0-648.0","0","0","13066","","null","","","null","71","","","","","","","","","","","","","","","NaN",""
"","S1","","html-keyboard-response","480","507964","0.0-1.0-650.0","0","0","13066","","null","","","null","72","","","","","","","","","","","","","","","",""
"","ISI","","html-keyboard-response","481","508966","0.0-1.0-651.0","0","0","13066","","null","","","null","72","NaN","","","","","","","","","","","","","","",""
"","S2","","html-keyboard-response","482","509218","0.0-1.0-652.0","0","0","13066","","null","","","null","72","","NaN","","","","","","","","","","","","","",""
"","response","","html-keyboard-response","483","509619","0.0-1.0-653.0-0.0","0","0","13066","","400","","","75","72","","","2","72","training","adjacent","ED","5","4","O.jpg","L.jpg","0","0","1","",""
"","feedback","","html-keyboard-response","484","510622","0.0-1.0-654.0-0.0","0","0","13066","","null","","","null","72","","","","","","","","","","","","","","","",""
"","ITI","","html-keyboard-response","485","511624","0.0-1.0-657.0","0","0","13066","","null","","","null","72","","","","","","","","","","","","","","","NaN",""
"","S1","","html-keyboard-response","486","511876","0.0-1.0-659.0","0","0","13066","","null","","","null","73","","","","","","","","","","","","","","","",""
"","ISI","","html-keyboard-response","487","512878","0.0-1.0-660.0","0","0","13066","","null","","","null","73","NaN","","","","","","","","","","","","","","",""
"","S2","","html-keyboard-response","488","513130","0.0-1.0-661.0","0","0","13066","","null","","","null","73","","NaN","","","","","","","","","","","","","",""
"","response","","html-keyboard-response","489","513437","0.0-1.0-662.0-0.0","0","0","13066","","305","","","75","73","","","2","73","training","adjacent","FE","6","5","M.jpg","O.jpg","0","0","1","",""
"","feedback","","html-keyboard-response","490","514439","0.0-1.0-663.0-0.0","0","0","13066","","null","","","null","73","","","","","","","","","","","","","","","",""
"","ITI","","html-keyboard-response","491","515441","0.0-1.0-666.0","0","0","13066","","null","","","null","73","","","","","","","","","","","","","","","NaN",""
"","S1","","html-keyboard-response","492","515693","0.0-1.0-668.0","0","0","13066","","null","","","null","74","","","","","","","","","","","","","","","",""
"","ISI","","html-keyboard-response","493","516695","0.0-1.0-669.0","0","0","13066","","null","","","null","74","NaN","","","","","","","","","","","","","","",""
"","S2","","html-keyboard-response","494","516947","0.0-1.0-670.0","0","0","13066","","null","","","null","74","","NaN","","","","","","","","","","","","","",""
"","response","","html-keyboard-response","495","517345","0.0-1.0-671.0-0.0","0","0","13066","","396","","","75","74","","","2","74","training","adjacent","AB","1","2","Q.jpg","P.jpg","0","1","0","",""
"","feedback","","html-keyboard-response","496","518347","0.0-1.0-672.0-0.0","0","0","13066","","null","","","null","74","","","","","","","","","","","","","","","",""
"","time_out","","html-keyboard-response","497","520349","0.0-1.0-674.0-0.0","0","0","13066","","null","","","null","74","","","","","","","","","","","","","","","",""
"","ITI","","html-keyboard-response","498","521351","0.0-1.0-675.0","0","0","13066","","null","","","null","74","","","","","","","","","","","","","","","NaN",""
"","S1","","html-keyboard-response","499","521604","0.0-1.0-677.0","0","0","13066","","null","","","null","75","","","","","","","","","","","","","","","",""
"","ISI","","html-keyboard-response","500","522606","0.0-1.0-678.0","0","0","13066","","null","","","null","75","NaN","","","","","","","","","","","","","","",""
"","S2","","html-keyboard-response","501","522858","0.0-1.0-679.0","0","0","13066","","null","","","null","75","","NaN","","","","","","","","","","","","","",""
"","response","","html-keyboard-response","502","523152","0.0-1.0-680.0-0.0","0","0","13066","","293","","","68","75","","","2","75","training","adjacent","BC","2","3","P.jpg","R.jpg","1","1","1","",""
"","feedback","","html-keyboard-response","503","524155","0.0-1.0-681.0-0.0","0","0","13066","","null","","","null","75","","","","","","","","","","","","","","","",""
"","ITI","","html-keyboard-response","504","525156","0.0-1.0-684.0","0","0","13066","","null","","","null","75","","","","","","","","","","","","","","","NaN",""
"","S1","","html-keyboard-response","505","525408","0.0-1.0-686.0","0","0","13066","","null","","","null","76","","","","","","","","","","","","","","","",""
"","ISI","","html-keyboard-response","506","526410","0.0-1.0-687.0","0","0","13066","","null","","","null","76","NaN","","","","","","","","","","","","","","",""
"","S2","","html-keyboard-response","507","526662","0.0-1.0-688.0","0","0","13066","","null","","","null","76","","NaN","","","","","","","","","","","","","",""
"","response","","html-keyboard-response","508","527130","0.0-1.0-689.0-0.0","0","0","13066","","466","","","75","76","","","2","76","training","adjacent","CD","3","4","R.jpg","L.jpg","0","1","0","",""
"","feedback","","html-keyboard-response","509","528132","0.0-1.0-690.0-0.0","0","0","13066","","null","","","null","76","","","","","","","","","","","","","","","",""
"","time_out","","html-keyboard-response","510","530134","0.0-1.0-692.0-0.0","0","0","13066","","null","","","null","76","","","","","","","","","","","","","","","",""
"","ITI","","html-keyboard-response","511","531136","0.0-1.0-693.0","0","0","13066","","null","","","null","76","","","","","","","","","","","","","","","NaN",""
"","S1","","html-keyboard-response","512","531388","0.0-1.0-695.0","0","0","13066","","null","","","null","77","","","","","","","","","","","","","","","",""
"","ISI","","html-keyboard-response","513","532390","0.0-1.0-696.0","0","0","13066","","null","","","null","77","NaN","","","","","","","","","","","","","","",""
"","S2","","html-keyboard-response","514","532642","0.0-1.0-697.0","0","0","13066","","null","","","null","77","","NaN","","","","","","","","","","","","","",""
"","response","","html-keyboard-response","515","533144","0.0-1.0-698.0-0.0","0","0","13066","","500","","","68","77","","","2","77","training","adjacent","ED","5","4","O.jpg","L.jpg","1","0","0","",""
"","feedback","","html-keyboard-response","516","534146","0.0-1.0-699.0-0.0","0","0","13066","","null","","","null","77","","","","","","","","","","","","","","","",""
"","time_out","","html-keyboard-response","517","536149","0.0-1.0-701.0-0.0","0","0","13066","","null","","","null","77","","","","","","","","","","","","","","","",""
"","ITI","","html-keyboard-response","518","537151","0.0-1.0-702.0","0","0","13066","","null","","","null","77","","","","","","","","","","","","","","","NaN",""
"","S1","","html-keyboard-response","519","537403","0.0-1.0-704.0","0","0","13066","","null","","","null","78","","","","","","","","","","","","","","","",""
"","ISI","","html-keyboard-response","520","538405","0.0-1.0-705.0","0","0","13066","","null","","","null","78","NaN","","","","","","","","","","","","","","",""
"","S2","","html-keyboard-response","521","538657","0.0-1.0-706.0","0","0","13066","","null","","","null","78","","NaN","","","","","","","","","","","","","",""
"","response","","html-keyboard-response","522","538986","0.0-1.0-707.0-0.0","0","0","13066","","327","","","68","78","","","2","78","training","adjacent","BC","2","3","P.jpg","R.jpg","1","1","1","",""
"","feedback","","html-keyboard-response","523","539988","0.0-1.0-708.0-0.0","0","0","13066","","null","","","null","78","","","","","","","","","","","","","","","",""
"","ITI","","html-keyboard-response","524","540990","0.0-1.0-711.0","0","0","13066","","null","","","null","78","","","","","","","","","","","","","","","NaN",""
"","S1","","html-keyboard-response","525","541242","0.0-1.0-713.0","0","0","13066","","null","","","null","79","","","","","","","","","","","","","","","",""
"","ISI","","html-keyboard-response","526","542243","0.0-1.0-714.0","0","0","13066","","null","","","null","79","NaN","","","","","","","","","","","","","","",""
"","S2","","html-keyboard-response","527","542502","0.0-1.0-715.0","0","0","13066","","null","","","null","79","","NaN","","","","","","","","","","","","","",""
"","response","","html-keyboard-response","528","542917","0.0-1.0-716.0-0.0","0","0","13066","","413","","","75","79","","","2","79","training","adjacent","EF","5","6","O.jpg","M.jpg","0","1","0","",""
"","feedback","","html-keyboard-response","529","543919","0.0-1.0-717.0-0.0","0","0","13066","","null","","","null","79","","","","","","","","","","","","","","","",""
"","time_out","","html-keyboard-response","530","545921","0.0-1.0-719.0-0.0","0","0","13066","","null","","","null","79","","","","","","","","","","","","","","","",""
"","ITI","","html-keyboard-response","531","546922","0.0-1.0-720.0","0","0","13066","","null","","","null","79","","","","","","","","","","","","","","","NaN",""
"","S1","","html-keyboard-response","532","547174","0.0-1.0-722.0","0","0","13066","","null","","","null","80","","","","","","","","","","","","","","","",""
"","ISI","","html-keyboard-response","533","548176","0.0-1.0-723.0","0","0","13066","","null","","","null","80","NaN","","","","","","","","","","","","","","",""
"","S2","","html-keyboard-response","534","548428","0.0-1.0-724.0","0","0","13066","","null","","","null","80","","NaN","","","","","","","","","","","","","",""
"","response","","html-keyboard-response","535","548884","0.0-1.0-725.0-0.0","0","0","13066","","454","","","68","80","","","2","80","training","adjacent","BC","2","3","P.jpg","R.jpg","1","1","1","",""
"","feedback","","html-keyboard-response","536","549886","0.0-1.0-726.0-0.0","0","0","13066","","null","","","null","80","","","","","","","","","","","","","","","",""
"","ITI","","html-keyboard-response","537","550889","0.0-1.0-729.0","0","0","13066","","null","","","null","80","","","","","","","","","","","","","","","NaN",""
"","S1","","html-keyboard-response","538","551141","0.0-1.0-731.0","0","0","13066","","null","","","null","81","","","","","","","","","","","","","","","",""
"","ISI","","html-keyboard-response","539","552143","0.0-1.0-732.0","0","0","13066","","null","","","null","81","NaN","","","","","","","","","","","","","","",""
"","S2","","html-keyboard-response","540","552396","0.0-1.0-733.0","0","0","13066","","null","","","null","81","","NaN","","","","","","","","","","","","","",""
"","response","","html-keyboard-response","541","552756","0.0-1.0-734.0-0.0","0","0","13066","","358","","","75","81","","","2","81","training","adjacent","BA","2","1","P.jpg","Q.jpg","0","0","1","",""
"","feedback","","html-keyboard-response","542","553758","0.0-1.0-735.0-0.0","0","0","13066","","null","","","null","81","","","","","","","","","","","","","","","",""
"","ITI","","html-keyboard-response","543","554760","0.0-1.0-738.0","0","0","13066","","null","","","null","81","","","","","","","","","","","","","","","NaN",""
"","S1","","html-keyboard-response","544","555012","0.0-1.0-740.0","0","0","13066","","null","","","null","82","","","","","","","","","","","","","","","",""
"","ISI","","html-keyboard-response","545","556013","0.0-1.0-741.0","0","0","13066","","null","","","null","82","NaN","","","","","","","","","","","","","","",""
"","S2","","html-keyboard-response","546","556265","0.0-1.0-742.0","0","0","13066","","null","","","null","82","","NaN","","","","","","","","","","","","","",""
"","response","","html-keyboard-response","547","556690","0.0-1.0-743.0-0.0","0","0","13066","","423","","","75","82","","","2","82","training","adjacent","DE","4","5","L.jpg","O.jpg","0","1","0","",""
"","feedback","","html-keyboard-response","548","557692","0.0-1.0-744.0-0.0","0","0","13066","","null","","","null","82","","","","","","","","","","","","","","","",""
"","time_out","","html-keyboard-response","549","559695","0.0-1.0-746.0-0.0","0","0","13066","","null","","","null","82","","","","","","","","","","","","","","","",""
"","ITI","","html-keyboard-response","550","560697","0.0-1.0-747.0","0","0","13066","","null","","","null","82","","","","","","","","","","","","","","","NaN",""
"","S1","","html-keyboard-response","551","560949","0.0-1.0-749.0","0","0","13066","","null","","","null","83","","","","","","","","","","","","","","","",""
"","ISI","","html-keyboard-response","552","561951","0.0-1.0-750.0","0","0","13066","","null","","","null","83","NaN","","","","","","","","","","","","","","",""
"","S2","","html-keyboard-response","553","562204","0.0-1.0-751.0","0","0","13066","","null","","","null","83","","NaN","","","","","","","","","","","","","",""
"","response","","html-keyboard-response","554","562388","0.0-1.0-752.0-0.0","0","0","13066","","183","","","75","83","","","2","83","training","adjacent","GF","7","6","N.jpg","M.jpg","0","0","1","",""
"","feedback","","html-keyboard-response","555","563390","0.0-1.0-753.0-0.0","0","0","13066","","null","","","null","83","","","","","","","","","","","","","","","",""
"","ITI","","html-keyboard-response","556","564392","0.0-1.0-756.0","0","0","13066","","null","","","null","83","","","","","","","","","","","","","","","NaN",""
"","S1","","html-keyboard-response","557","564645","0.0-1.0-758.0","0","0","13066","","null","","","null","84","","","","","","","","","","","","","","","",""
"","ISI","","html-keyboard-response","558","565647","0.0-1.0-759.0","0","0","13066","","null","","","null","84","NaN","","","","","","","","","","","","","","",""
"","S2","","html-keyboard-response","559","565899","0.0-1.0-760.0","0","0","13066","","null","","","null","84","","NaN","","","","","","","","","","","","","",""
"","response","","html-keyboard-response","560","566149","0.0-1.0-761.0-0.0","0","0","13066","","249","","","75","84","","","2","84","training","adjacent","CB","3","2","R.jpg","P.jpg","0","0","1","",""
"","feedback","","html-keyboard-response","561","567152","0.0-1.0-762.0-0.0","0","0","13066","","null","","","null","84","","","","","","","","","","","","","","","",""
"","ITI","","html-keyboard-response","562","568154","0.0-1.0-765.0","0","0","13066","","null","","","null","84","","","","","","","","","","","","","","","NaN",""
"","S1","","html-keyboard-response","563","568406","0.0-1.0-767.0","0","0","13066","","null","","","null","85","","","","","","","","","","","","","","","",""
"","ISI","","html-keyboard-response","564","569408","0.0-1.0-768.0","0","0","13066","","null","","","null","85","NaN","","","","","","","","","","","","","","",""
"","S2","","html-keyboard-response","565","569660","0.0-1.0-769.0","0","0","13066","","null","","","null","85","","NaN","","","","","","","","","","","","","",""
"","response","","html-keyboard-response","566","570135","0.0-1.0-770.0-0.0","0","0","13066","","473","","","68","85","","","2","85","training","adjacent","EF","5","6","O.jpg","M.jpg","1","1","1","",""
"","feedback","","html-keyboard-response","567","571137","0.0-1.0-771.0-0.0","0","0","13066","","null","","","null","85","","","","","","","","","","","","","","","",""
"","ITI","","html-keyboard-response","568","572140","0.0-1.0-774.0","0","0","13066","","null","","","null","85","","","","","","","","","","","","","","","NaN",""
"","S1","","html-keyboard-response","569","572392","0.0-1.0-776.0","0","0","13066","","null","","","null","86","","","","","","","","","","","","","","","",""
"","ISI","","html-keyboard-response","570","573398","0.0-1.0-777.0","0","0","13066","","null","","","null","86","NaN","","","","","","","","","","","","","","",""
"","S2","","html-keyboard-response","571","573651","0.0-1.0-778.0","0","0","13066","","null","","","null","86","","NaN","","","","","","","","","","","","","",""
"","response","","html-keyboard-response","572","574047","0.0-1.0-779.0-0.0","0","0","13066","","395","","","68","86","","","2","86","training","adjacent","BC","2","3","P.jpg","R.jpg","1","1","1","",""
"","feedback","","html-keyboard-response","573","575049","0.0-1.0-780.0-0.0","0","0","13066","","null","","","null","86","","","","","","","","","","","","","","","",""
"","ITI","","html-keyboard-response","574","576051","0.0-1.0-783.0","0","0","13066","","null","","","null","86","","","","","","","","","","","","","","","NaN",""
"","S1","","html-keyboard-response","575","576303","0.0-1.0-785.0","0","0","13066","","null","","","null","87","","","","","","","","","","","","","","","",""
"","ISI","","html-keyboard-response","576","577305","0.0-1.0-786.0","0","0","13066","","null","","","null","87","NaN","","","","","","","","","","","","","","",""
"","S2","","html-keyboard-response","577","577558","0.0-1.0-787.0","0","0","13066","","null","","","null","87","","NaN","","","","","","","","","","","","","",""
"","response","","html-keyboard-response","578","577882","0.0-1.0-788.0-0.0","0","0","13066","","324","","","75","87","","","2","87","training","adjacent","DE","4","5","L.jpg","O.jpg","0","1","0","",""
"","feedback","","html-keyboard-response","579","578885","0.0-1.0-789.0-0.0","0","0","13066","","null","","","null","87","","","","","","","","","","","","","","","",""
"","time_out","","html-keyboard-response","580","580887","0.0-1.0-791.0-0.0","0","0","13066","","null","","","null","87","","","","","","","","","","","","","","","",""
