"success","ttype","start_time","trial_type","trial_index","time_elapsed","internal_node_id","warning","missed_checkup","PID","view_history","rt","responses","repeat_instructions","key_press","index","keypress_isi","keypress_S2","block","trial_num","phase","group_type","pair_type","S1_stim","S2_stim","S1_img","S2_img","S1_chosen","S1_higher","accuracy","keypress_iti","total_bonus_tally"
"true","full_screen","d03032023hr1955","fullscreen","0","10783","0.0-0.0","0","0","26537","","","","","","","","","","","","","","","","","","","","","",""
"","instructions","","instructions","1","43096","0.0-1.0-0.0-0.0","0","0","26537","[{""page_index"":0,""viewing_time"":3039},{""page_index"":1,""viewing_time"":17592},{""page_index"":2,""viewing_time"":10136},{""page_index"":3,""viewing_time"":1544}]","32311","","","","","","","","","","","","","","","","","","","",""
"","comprehension_check","","survey-multi-choice","2","77107","0.0-1.0-0.0-1.0","0","0","26537","","34007","{""Q0"":""True"",""Q1"":""D"",""Q2"":""Once the second image appears and while the screen 'MAKE A CHOICE' is shown"",""Q3"":""Green mark"",""Q4"":""either D or K""}","1","","","","","","","","","","","","","","","","","",""
"","missed_instruction_checkup","","html-keyboard-response","3","79280","0.0-1.0-0.0-2.0-0.0","0","1","26537","","2168","","","32","","","","","","","","","","","","","","","","",""
"","instructions","","instructions","4","85487","0.0-1.0-0.1-0.1","0","0","26537","[{""page_index"":0,""viewing_time"":1278},{""page_index"":1,""viewing_time"":2212},{""page_index"":2,""viewing_time"":1494},{""page_index"":3,""viewing_time"":1219}]","6203","","","","","","","","","","","","","","","","","","","",""
"","comprehension_check","","survey-multi-choice","5","93051","0.0-1.0-0.1-1.1","0","0","26537","","7560","{""Q0"":""True"",""Q1"":""D"",""Q2"":""Only when the screen 'MAKE A CHOICE' is shown"",""Q3"":""Green mark"",""Q4"":""either D or K""}","1","","","","","","","","","","","","","","","","","",""
"","missed_instruction_checkup","","html-keyboard-response","6","94818","0.0-1.0-0.1-2.1-0.1","0","1","26537","","1764","","","32","","","","","","","","","","","","","","","","",""
"","instructions","","instructions","7","110086","0.0-1.0-0.2-0.2","0","0","26537","[{""page_index"":0,""viewing_time"":2203},{""page_index"":1,""viewing_time"":10458},{""page_index"":2,""viewing_time"":1612},{""page_index"":3,""viewing_time"":994}]","15267","","","","","","","","","","","","","","","","","","","",""
"","comprehension_check","","survey-multi-choice","8","117830","0.0-1.0-0.2-1.2","0","0","26537","","7741","{""Q0"":""True"",""Q1"":""K"",""Q2"":""Once the second image appears and while the screen 'MAKE A CHOICE' is shown"",""Q3"":""Green mark"",""Q4"":""either D or K""}","0","","","","","","","","","","","","","","","","","",""
"","start_exp","","html-keyboard-response","9","119164","0.0-1.0-1.0","0","0","26537","","1333","","","32","","","","","","","","","","","","","","","","",""
"","S1","","html-keyboard-response","10","119417","0.0-1.0-2.0","0","0","26537","","null","","","null","0","","","","","","","","","","","","","","","",""
"","ISI","","html-keyboard-response","11","119920","0.0-1.0-3.0","0","0","26537","","null","","","null","0","NaN","","","","","","","","","","","","","","",""
"","S2","","html-keyboard-response","12","120173","0.0-1.0-4.0","0","0","26537","","null","","","null","0","","NaN","","","","","","","","","","","","","",""
"","response","","html-keyboard-response","13","121354","0.0-1.0-5.0-0.0","0","0","26537","","1180","","","75","0","","","1","0","training","adjacent","BA","2","1","M.jpg","O.jpg","1","0","0","",""
"","feedback","","html-keyboard-response","14","122358","0.0-1.0-6.0-0.0","0","0","26537","","null","","","null","0","","","","","","","","","","","","","","","",""
"","time_out","","html-keyboard-response","15","124361","0.0-1.0-8.0-0.0","0","0","26537","","null","","","null","0","","","","","","","","","","","","","","","",""
"","ITI","","html-keyboard-response","16","125365","0.0-1.0-9.0","0","0","26537","","null","","","null","0","","","","","","","","","","","","","","","NaN",""
"","S1","","html-keyboard-response","17","125634","0.0-1.0-11.0","0","0","26537","","null","","","null","1","","","","","","","","","","","","","","","",""
"","ISI","","html-keyboard-response","18","126136","0.0-1.0-12.0","0","0","26537","","null","","","null","1","NaN","","","","","","","","","","","","","","",""
"","S2","","html-keyboard-response","19","126394","0.0-1.0-13.0","0","0","26537","","null","","","null","1","","NaN","","","","","","","","","","","","","",""
"","response","","html-keyboard-response","20","127499","0.0-1.0-14.0-0.0","0","0","26537","","1102","","","68","1","","","1","1","training","adjacent","FG","6","7","Q.jpg","P.jpg","0","1","0","",""
"","feedback","","html-keyboard-response","21","128503","0.0-1.0-15.0-0.0","0","0","26537","","null","","","null","1","","","","","","","","","","","","","","","",""
"","time_out","","html-keyboard-response","22","130506","0.0-1.0-17.0-0.0","0","0","26537","","null","","","null","1","","","","","","","","","","","","","","","",""
"","ITI","","html-keyboard-response","23","131509","0.0-1.0-18.0","0","0","26537","","null","","","null","1","","","","","","","","","","","","","","","NaN",""
"","S1","","html-keyboard-response","24","131762","0.0-1.0-20.0","0","0","26537","","null","","","null","2","","","","","","","","","","","","","","","",""
"","ISI","","html-keyboard-response","25","132266","0.0-1.0-21.0","0","0","26537","","null","","","null","2","NaN","","","","","","","","","","","","","","",""
"","S2","","html-keyboard-response","26","132520","0.0-1.0-22.0","0","0","26537","","null","","","null","2","","NaN","","","","","","","","","","","","","",""
"","response","","html-keyboard-response","27","133560","0.0-1.0-23.0-0.0","0","0","26537","","1036","","","75","2","","","1","2","training","adjacent","EF","5","6","N.jpg","Q.jpg","1","1","1","",""
"","feedback","","html-keyboard-response","28","134564","0.0-1.0-24.0-0.0","0","0","26537","","null","","","null","2","","","","","","","","","","","","","","","",""
"","ITI","","html-keyboard-response","29","135567","0.0-1.0-27.0","0","0","26537","","null","","","null","2","","","","","","","","","","","","","","","NaN",""
"","S1","","html-keyboard-response","30","135821","0.0-1.0-29.0","0","0","26537","","null","","","null","3","","","","","","","","","","","","","","","",""
"","ISI","","html-keyboard-response","31","136325","0.0-1.0-30.0","0","0","26537","","null","","","null","3","NaN","","","","","","","","","","","","","","",""
"","S2","","html-keyboard-response","32","136578","0.0-1.0-31.0","0","0","26537","","null","","","null","3","","NaN","","","","","","","","","","","","","",""
"","response","","html-keyboard-response","33","137789","0.0-1.0-32.0-0.0","0","0","26537","","1208","","","75","3","","","1","3","training","adjacent","BC","2","3","M.jpg","L.jpg","1","1","1","",""
"","feedback","","html-keyboard-response","34","138792","0.0-1.0-33.0-0.0","0","0","26537","","null","","","null","3","","","","","","","","","","","","","","","",""
"","ITI","","html-keyboard-response","35","139795","0.0-1.0-36.0","0","0","26537","","null","","","null","3","","","","","","","","","","","","","","","NaN",""
"","S1","","html-keyboard-response","36","140049","0.0-1.0-38.0","0","0","26537","","null","","","null","4","","","","","","","","","","","","","","","",""
"","ISI","","html-keyboard-response","37","140551","0.0-1.0-39.0","0","0","26537","","null","","","null","4","NaN","","","","","","","","","","","","","","",""
"","S2","","html-keyboard-response","38","140804","0.0-1.0-40.0","0","0","26537","","null","","","null","4","","NaN","","","","","","","","","","","","","",""
"","response","","html-keyboard-response","39","141626","0.0-1.0-41.0-0.0","0","0","26537","","820","","","75","4","","","1","4","training","adjacent","BA","2","1","M.jpg","O.jpg","1","0","0","",""
"","feedback","","html-keyboard-response","40","142629","0.0-1.0-42.0-0.0","0","0","26537","","null","","","null","4","","","","","","","","","","","","","","","",""
"","time_out","","html-keyboard-response","41","144630","0.0-1.0-44.0-0.0","0","0","26537","","null","","","null","4","","","","","","","","","","","","","","","",""
"","ITI","","html-keyboard-response","42","145634","0.0-1.0-45.0","0","0","26537","","null","","","null","4","","","","","","","","","","","","","","","NaN",""
"","S1","","html-keyboard-response","43","145888","0.0-1.0-47.0","0","0","26537","","null","","","null","5","","","","","","","","","","","","","","","",""
"","ISI","","html-keyboard-response","44","146390","0.0-1.0-48.0","0","0","26537","","null","","","null","5","NaN","","","","","","","","","","","","","","",""
"","S2","","html-keyboard-response","45","146651","0.0-1.0-49.0","0","0","26537","","null","","","null","5","","NaN","","","","","","","","","","","","","",""
"","response","","html-keyboard-response","46","147733","0.0-1.0-50.0-0.0","0","0","26537","","1081","","","68","5","","","1","5","training","adjacent","FE","6","5","Q.jpg","N.jpg","0","0","1","",""
"","feedback","","html-keyboard-response","47","148736","0.0-1.0-51.0-0.0","0","0","26537","","null","","","null","5","","","","","","","","","","","","","","","",""
"","ITI","","html-keyboard-response","48","149739","0.0-1.0-54.0","0","0","26537","","null","","","null","5","","","","","","","","","","","","","","","NaN",""
"","S1","","html-keyboard-response","49","149992","0.0-1.0-56.0","0","0","26537","","null","","","null","6","","","","","","","","","","","","","","","",""
"","ISI","","html-keyboard-response","50","150495","0.0-1.0-57.0","0","0","26537","","null","","","null","6","NaN","","","","","","","","","","","","","","",""
"","S2","","html-keyboard-response","51","150749","0.0-1.0-58.0","0","0","26537","","null","","","null","6","","NaN","","","","","","","","","","","","","",""
"","response","","html-keyboard-response","52","152337","0.0-1.0-59.0-0.0","0","0","26537","","1586","","","68","6","","","1","6","training","adjacent","DE","4","5","R.jpg","N.jpg","0","1","0","",""
"","feedback","","html-keyboard-response","53","153339","0.0-1.0-60.0-0.0","0","0","26537","","null","","","null","6","","","","","","","","","","","","","","","",""
"","time_out","","html-keyboard-response","54","155341","0.0-1.0-62.0-0.0","0","0","26537","","null","","","null","6","","","","","","","","","","","","","","","",""
"","ITI","","html-keyboard-response","55","156344","0.0-1.0-63.0","0","0","26537","","null","","","null","6","","","","","","","","","","","","","","","NaN",""
"","S1","","html-keyboard-response","56","156598","0.0-1.0-65.0","0","0","26537","","null","","","null","7","","","","","","","","","","","","","","","",""
"","ISI","","html-keyboard-response","57","157100","0.0-1.0-66.0","0","0","26537","","null","","","null","7","NaN","","","","","","","","","","","","","","",""
"","S2","","html-keyboard-response","58","157353","0.0-1.0-67.0","0","0","26537","","null","","","null","7","","NaN","","","","","","","","","","","","","",""
"","response","","html-keyboard-response","59","158329","0.0-1.0-68.0-0.0","0","0","26537","","975","","","75","7","","","1","7","training","adjacent","GF","7","6","P.jpg","Q.jpg","1","0","0","",""
"","feedback","","html-keyboard-response","60","159331","0.0-1.0-69.0-0.0","0","0","26537","","null","","","null","7","","","","","","","","","","","","","","","",""
"","time_out","","html-keyboard-response","61","161334","0.0-1.0-71.0-0.0","0","0","26537","","null","","","null","7","","","","","","","","","","","","","","","",""
"","ITI","","html-keyboard-response","62","162338","0.0-1.0-72.0","0","0","26537","","null","","","null","7","","","","","","","","","","","","","","","NaN",""
"","S1","","html-keyboard-response","63","162592","0.0-1.0-74.0","0","0","26537","","null","","","null","8","","","","","","","","","","","","","","","",""
"","ISI","","html-keyboard-response","64","163094","0.0-1.0-75.0","0","0","26537","","null","","","null","8","NaN","","","","","","","","","","","","","","",""
"","S2","","html-keyboard-response","65","163348","0.0-1.0-76.0","0","0","26537","","null","","","null","8","","NaN","","","","","","","","","","","","","",""
"","response","","html-keyboard-response","66","164105","0.0-1.0-77.0-0.0","0","0","26537","","754","","","68","8","","","1","8","training","adjacent","DE","4","5","R.jpg","N.jpg","0","1","0","",""
"","feedback","","html-keyboard-response","67","165107","0.0-1.0-78.0-0.0","0","0","26537","","null","","","null","8","","","","","","","","","","","","","","","",""
"","time_out","","html-keyboard-response","68","167109","0.0-1.0-80.0-0.0","0","0","26537","","null","","","null","8","","","","","","","","","","","","","","","",""
"","ITI","","html-keyboard-response","69","168113","0.0-1.0-81.0","0","0","26537","","null","","","null","8","","","","","","","","","","","","","","","NaN",""
"","S1","","html-keyboard-response","70","168368","0.0-1.0-83.0","0","0","26537","","null","","","null","9","","","","","","","","","","","","","","","",""
"","ISI","","html-keyboard-response","71","168872","0.0-1.0-84.0","0","0","26537","","null","","","null","9","NaN","","","","","","","","","","","","","","",""
"","S2","","html-keyboard-response","72","169125","0.0-1.0-85.0","0","0","26537","","null","","","null","9","","NaN","","","","","","","","","","","","","",""
"","response","","html-keyboard-response","73","169864","0.0-1.0-86.0-0.0","0","0","26537","","734","","","75","9","","","1","9","training","adjacent","EF","5","6","N.jpg","Q.jpg","1","1","1","",""
"","feedback","","html-keyboard-response","74","170868","0.0-1.0-87.0-0.0","0","0","26537","","null","","","null","9","","","","","","","","","","","","","","","",""
"","ITI","","html-keyboard-response","75","171873","0.0-1.0-90.0","0","0","26537","","null","","","null","9","","","","","","","","","","","","","","","NaN",""
"","S1","","html-keyboard-response","76","172137","0.0-1.0-92.0","0","0","26537","","null","","","null","10","","","","","","","","","","","","","","","",""
"","ISI","","html-keyboard-response","77","172640","0.0-1.0-93.0","0","0","26537","","null","","","null","10","NaN","","","","","","","","","","","","","","",""
"","S2","","html-keyboard-response","78","172894","0.0-1.0-94.0","0","0","26537","","null","","","null","10","","NaN","","","","","","","","","","","","","",""
"","response","","html-keyboard-response","79","173978","0.0-1.0-95.0-0.0","0","0","26537","","1080","","","68","10","","","1","10","training","adjacent","CD","3","4","L.jpg","R.jpg","0","1","0","",""
"","feedback","","html-keyboard-response","80","174983","0.0-1.0-96.0-0.0","0","0","26537","","null","","","null","10","","","","","","","","","","","","","","","",""
"","time_out","","html-keyboard-response","81","176987","0.0-1.0-98.0-0.0","0","0","26537","","null","","","null","10","","","","","","","","","","","","","","","",""
"","ITI","","html-keyboard-response","82","177989","0.0-1.0-99.0","0","0","26537","","null","","","null","10","","","","","","","","","","","","","","","NaN",""
"","S1","","html-keyboard-response","83","178241","0.0-1.0-101.0","0","0","26537","","null","","","null","11","","","","","","","","","","","","","","","",""
"","ISI","","html-keyboard-response","84","178744","0.0-1.0-102.0","0","0","26537","","null","","","null","11","NaN","","","","","","","","","","","","","","",""
"","S2","","html-keyboard-response","85","178997","0.0-1.0-103.0","0","0","26537","","null","","","null","11","","NaN","","","","","","","","","","","","","",""
"","response","","html-keyboard-response","86","179730","0.0-1.0-104.0-0.0","0","0","26537","","730","","","75","11","","","1","11","training","adjacent","CB","3","2","L.jpg","M.jpg","1","0","0","",""
"","feedback","","html-keyboard-response","87","180734","0.0-1.0-105.0-0.0","0","0","26537","","null","","","null","11","","","","","","","","","","","","","","","",""
"","time_out","","html-keyboard-response","88","182737","0.0-1.0-107.0-0.0","0","0","26537","","null","","","null","11","","","","","","","","","","","","","","","",""
"","ITI","","html-keyboard-response","89","183741","0.0-1.0-108.0","0","0","26537","","null","","","null","11","","","","","","","","","","","","","","","NaN",""
"","S1","","html-keyboard-response","90","183995","0.0-1.0-110.0","0","0","26537","","null","","","null","12","","","","","","","","","","","","","","","",""
"","ISI","","html-keyboard-response","91","184509","0.0-1.0-111.0","0","0","26537","","null","","","null","12","NaN","","","","","","","","","","","","","","",""
"","S2","","html-keyboard-response","92","184762","0.0-1.0-112.0","0","0","26537","","null","","","null","12","","NaN","","","","","","","","","","","","","",""
"","response","","html-keyboard-response","93","185812","0.0-1.0-113.0-0.0","0","0","26537","","1049","","","68","12","","","1","12","training","adjacent","CB","3","2","L.jpg","M.jpg","0","0","1","",""
"","feedback","","html-keyboard-response","94","186816","0.0-1.0-114.0-0.0","0","0","26537","","null","","","null","12","","","","","","","","","","","","","","","",""
"","ITI","","html-keyboard-response","95","187820","0.0-1.0-117.0","0","0","26537","","null","","","null","12","","","","","","","","","","","","","","","NaN",""
"","S1","","html-keyboard-response","96","188074","0.0-1.0-119.0","0","0","26537","","null","","","null","13","","","","","","","","","","","","","","","",""
"","ISI","","html-keyboard-response","97","188577","0.0-1.0-120.0","0","0","26537","","null","","","null","13","NaN","","","","","","","","","","","","","","",""
"","S2","","html-keyboard-response","98","188831","0.0-1.0-121.0","0","0","26537","","null","","","null","13","","NaN","","","","","","","","","","","","","",""
"","response","","html-keyboard-response","99","190327","0.0-1.0-122.0-0.0","0","0","26537","","1495","","","68","13","","","1","13","training","adjacent","AB","1","2","O.jpg","M.jpg","0","1","0","",""
"","feedback","","html-keyboard-response","100","191331","0.0-1.0-123.0-0.0","0","0","26537","","null","","","null","13","","","","","","","","","","","","","","","",""
"","time_out","","html-keyboard-response","101","193334","0.0-1.0-125.0-0.0","0","0","26537","","null","","","null","13","","","","","","","","","","","","","","","",""
"","ITI","","html-keyboard-response","102","194337","0.0-1.0-126.0","0","0","26537","","null","","","null","13","","","","","","","","","","","","","","","NaN",""
"","S1","","html-keyboard-response","103","194591","0.0-1.0-128.0","0","0","26537","","null","","","null","14","","","","","","","","","","","","","","","",""
"","ISI","","html-keyboard-response","104","195093","0.0-1.0-129.0","0","0","26537","","null","","","null","14","NaN","","","","","","","","","","","","","","",""
"","S2","","html-keyboard-response","105","195347","0.0-1.0-130.0","0","0","26537","","null","","","null","14","","NaN","","","","","","","","","","","","","",""
"","response","","html-keyboard-response","106","196159","0.0-1.0-131.0-0.0","0","0","26537","","809","","","68","14","","","1","14","training","adjacent","BC","2","3","M.jpg","L.jpg","0","1","0","",""
"","feedback","","html-keyboard-response","107","197163","0.0-1.0-132.0-0.0","0","0","26537","","null","","","null","14","","","","","","","","","","","","","","","",""
"","time_out","","html-keyboard-response","108","199166","0.0-1.0-134.0-0.0","0","0","26537","","null","","","null","14","","","","","","","","","","","","","","","",""
"","ITI","","html-keyboard-response","109","200169","0.0-1.0-135.0","0","0","26537","","null","","","null","14","","","","","","","","","","","","","","","NaN",""
"","S1","","html-keyboard-response","110","200423","0.0-1.0-137.0","0","0","26537","","null","","","null","15","","","","","","","","","","","","","","","",""
"","ISI","","html-keyboard-response","111","200925","0.0-1.0-138.0","0","0","26537","","null","","","null","15","NaN","","","","","","","","","","","","","","",""
"","S2","","html-keyboard-response","112","201178","0.0-1.0-139.0","0","0","26537","","null","","","null","15","","NaN","","","","","","","","","","","","","",""
"","response","","html-keyboard-response","113","201990","0.0-1.0-140.0-0.0","0","0","26537","","809","","","68","15","","","1","15","training","adjacent","FG","6","7","Q.jpg","P.jpg","0","1","0","",""
"","feedback","","html-keyboard-response","114","202993","0.0-1.0-141.0-0.0","0","0","26537","","null","","","null","15","","","","","","","","","","","","","","","",""
"","time_out","","html-keyboard-response","115","204996","0.0-1.0-143.0-0.0","0","0","26537","","null","","","null","15","","","","","","","","","","","","","","","",""
"","ITI","","html-keyboard-response","116","205998","0.0-1.0-144.0","0","0","26537","","null","","","null","15","","","","","","","","","","","","","","","NaN",""
"","S1","","html-keyboard-response","117","206251","0.0-1.0-146.0","0","0","26537","","null","","","null","16","","","","","","","","","","","","","","","",""
"","ISI","","html-keyboard-response","118","206756","0.0-1.0-147.0","0","0","26537","","null","","","null","16","NaN","","","","","","","","","","","","","","",""
"","S2","","html-keyboard-response","119","207016","0.0-1.0-148.0","0","0","26537","","null","","","null","16","","NaN","","","","","","","","","","","","","",""
"","response","","html-keyboard-response","120","207954","0.0-1.0-149.0-0.0","0","0","26537","","936","","","68","16","","","1","16","training","adjacent","DC","4","3","R.jpg","L.jpg","0","0","1","",""
"","feedback","","html-keyboard-response","121","208958","0.0-1.0-150.0-0.0","0","0","26537","","null","","","null","16","","","","","","","","","","","","","","","",""
"","ITI","","html-keyboard-response","122","209962","0.0-1.0-153.0","0","0","26537","","null","","","null","16","","","","","","","","","","","","","","","NaN",""
"","S1","","html-keyboard-response","123","210215","0.0-1.0-155.0","0","0","26537","","null","","","null","17","","","","","","","","","","","","","","","",""
"","ISI","","html-keyboard-response","124","210729","0.0-1.0-156.0","0","0","26537","","null","","","null","17","NaN","","","","","","","","","","","","","","",""
"","S2","","html-keyboard-response","125","210983","0.0-1.0-157.0","0","0","26537","","null","","","null","17","","NaN","","","","","","","","","","","","","",""
"","response","","html-keyboard-response","126","211564","0.0-1.0-158.0-0.0","0","0","26537","","578","","","68","17","","","1","17","training","adjacent","FE","6","5","Q.jpg","N.jpg","0","0","1","",""
"","feedback","","html-keyboard-response","127","212569","0.0-1.0-159.0-0.0","0","0","26537","","null","","","null","17","","","","","","","","","","","","","","","",""
"","ITI","","html-keyboard-response","128","213573","0.0-1.0-162.0","0","0","26537","","null","","","null","17","","","","","","","","","","","","","","","NaN",""
"","S1","","html-keyboard-response","129","213825","0.0-1.0-164.0","0","0","26537","","null","","","null","18","","","","","","","","","","","","","","","",""
"","ISI","","html-keyboard-response","130","214327","0.0-1.0-165.0","0","0","26537","","null","","","null","18","NaN","","","","","","","","","","","","","","",""
"","S2","","html-keyboard-response","131","214580","0.0-1.0-166.0","0","0","26537","","null","","","null","18","","NaN","","","","","","","","","","","","","",""
"","response","","html-keyboard-response","132","215552","0.0-1.0-167.0-0.0","0","0","26537","","969","","","75","18","","","1","18","training","adjacent","EF","5","6","N.jpg","Q.jpg","1","1","1","",""
"","feedback","","html-keyboard-response","133","216557","0.0-1.0-168.0-0.0","0","0","26537","","null","","","null","18","","","","","","","","","","","","","","","",""
"","ITI","","html-keyboard-response","134","217561","0.0-1.0-171.0","0","0","26537","","null","","","null","18","","","","","","","","","","","","","","","NaN",""
"","S1","","html-keyboard-response","135","217813","0.0-1.0-173.0","0","0","26537","","null","","","null","19","","","","","","","","","","","","","","","",""
"","ISI","","html-keyboard-response","136","218318","0.0-1.0-174.0","0","0","26537","","null","","","null","19","NaN","","","","","","","","","","","","","","",""
"","S2","","html-keyboard-response","137","218571","0.0-1.0-175.0","0","0","26537","","null","","","null","19","","NaN","","","","","","","","","","","","","",""
"","response","","html-keyboard-response","138","219677","0.0-1.0-176.0-0.0","0","0","26537","","1103","","","68","19","","","1","19","training","adjacent","BA","2","1","M.jpg","O.jpg","0","0","1","",""
"","feedback","","html-keyboard-response","139","220682","0.0-1.0-177.0-0.0","0","0","26537","","null","","","null","19","","","","","","","","","","","","","","","",""
"","ITI","","html-keyboard-response","140","221698","0.0-1.0-180.0","0","0","26537","","null","","","null","19","","","","","","","","","","","","","","","NaN",""
"","S1","","html-keyboard-response","141","221952","0.0-1.0-182.0","0","0","26537","","null","","","null","20","","","","","","","","","","","","","","","",""
"","ISI","","html-keyboard-response","142","222456","0.0-1.0-183.0","0","0","26537","","null","","","null","20","NaN","","","","","","","","","","","","","","",""
"","S2","","html-keyboard-response","143","222709","0.0-1.0-184.0","0","0","26537","","null","","","null","20","","NaN","","","","","","","","","","","","","",""
"","response","","html-keyboard-response","144","223472","0.0-1.0-185.0-0.0","0","0","26537","","761","","","68","20","","","1","20","training","adjacent","FE","6","5","Q.jpg","N.jpg","0","0","1","",""
"","feedback","","html-keyboard-response","145","224477","0.0-1.0-186.0-0.0","0","0","26537","","null","","","null","20","","","","","","","","","","","","","","","",""
"","ITI","","html-keyboard-response","146","225481","0.0-1.0-189.0","0","0","26537","","null","","","null","20","","","","","","","","","","","","","","","NaN",""
"","S1","","html-keyboard-response","147","225735","0.0-1.0-191.0","0","0","26537","","null","","","null","21","","","","","","","","","","","","","","","",""
"","ISI","","html-keyboard-response","148","226238","0.0-1.0-192.0","0","0","26537","","null","","","null","21","NaN","","","","","","","","","","","","","","",""
"","S2","","html-keyboard-response","149","226492","0.0-1.0-193.0","0","0","26537","","null","","","null","21","","NaN","","","","","","","","","","","","","",""
"","response","","html-keyboard-response","150","227553","0.0-1.0-194.0-0.0","0","0","26537","","1059","","","68","21","","","1","21","training","adjacent","DC","4","3","R.jpg","L.jpg","0","0","1","",""
"","feedback","","html-keyboard-response","151","228558","0.0-1.0-195.0-0.0","0","0","26537","","null","","","null","21","","","","","","","","","","","","","","","",""
"","ITI","","html-keyboard-response","152","229561","0.0-1.0-198.0","0","0","26537","","null","","","null","21","","","","","","","","","","","","","","","NaN",""
"","S1","","html-keyboard-response","153","229814","0.0-1.0-200.0","0","0","26537","","null","","","null","22","","","","","","","","","","","","","","","",""
"","ISI","","html-keyboard-response","154","230317","0.0-1.0-201.0","0","0","26537","","null","","","null","22","NaN","","","","","","","","","","","","","","",""
"","S2","","html-keyboard-response","155","230570","0.0-1.0-202.0","0","0","26537","","null","","","null","22","","NaN","","","","","","","","","","","","","",""
"","response","","html-keyboard-response","156","231462","0.0-1.0-203.0-0.0","0","0","26537","","889","","","68","22","","","1","22","training","adjacent","DE","4","5","R.jpg","N.jpg","0","1","0","",""
"","feedback","","html-keyboard-response","157","232465","0.0-1.0-204.0-0.0","0","0","26537","","null","","","null","22","","","","","","","","","","","","","","","",""
"","time_out","","html-keyboard-response","158","234468","0.0-1.0-206.0-0.0","0","0","26537","","null","","","null","22","","","","","","","","","","","","","","","",""
"","ITI","","html-keyboard-response","159","235473","0.0-1.0-207.0","0","0","26537","","null","","","null","22","","","","","","","","","","","","","","","NaN",""
"","S1","","html-keyboard-response","160","235728","0.0-1.0-209.0","0","0","26537","","null","","","null","23","","","","","","","","","","","","","","","",""
"","ISI","","html-keyboard-response","161","236230","0.0-1.0-210.0","0","0","26537","","null","","","null","23","NaN","","","","","","","","","","","","","","",""
"","S2","","html-keyboard-response","162","236483","0.0-1.0-211.0","0","0","26537","","null","","","null","23","","NaN","","","","","","","","","","","","","",""
"","response","","html-keyboard-response","163","236983","0.0-1.0-212.0-0.0","0","0","26537","","498","","","75","23","","","1","23","training","adjacent","CD","3","4","L.jpg","R.jpg","1","1","1","",""
"","feedback","","html-keyboard-response","164","237987","0.0-1.0-213.0-0.0","0","0","26537","","null","","","null","23","","","","","","","","","","","","","","","",""
"","ITI","","html-keyboard-response","165","238988","0.0-1.0-216.0","0","0","26537","","null","","","null","23","","","","","","","","","","","","","","","NaN",""
"","S1","","html-keyboard-response","166","239240","0.0-1.0-218.0","0","0","26537","","null","","","null","24","","","","","","","","","","","","","","","",""
"","ISI","","html-keyboard-response","167","239744","0.0-1.0-219.0","0","0","26537","","null","","","null","24","NaN","","","","","","","","","","","","","","",""
"","S2","","html-keyboard-response","168","240006","0.0-1.0-220.0","0","0","26537","","null","","","null","24","","NaN","","","","","","","","","","","","","",""
"","response","","html-keyboard-response","169","240939","0.0-1.0-221.0-0.0","0","0","26537","","930","","","75","24","","","1","24","training","adjacent","ED","5","4","N.jpg","R.jpg","1","0","0","",""
"","feedback","","html-keyboard-response","170","241953","0.0-1.0-222.0-0.0","0","0","26537","","null","","","null","24","","","","","","","","","","","","","","","",""
"","time_out","","html-keyboard-response","171","243957","0.0-1.0-224.0-0.0","0","0","26537","","null","","","null","24","","","","","","","","","","","","","","","",""
"","ITI","","html-keyboard-response","172","244959","0.0-1.0-225.0","0","0","26537","","null","","","null","24","","","","","","","","","","","","","","","NaN",""
"","S1","","html-keyboard-response","173","245211","0.0-1.0-227.0","0","0","26537","","null","","","null","25","","","","","","","","","","","","","","","",""
"","ISI","","html-keyboard-response","174","245714","0.0-1.0-228.0","0","0","26537","","null","","","null","25","NaN","","","","","","","","","","","","","","",""
"","S2","","html-keyboard-response","175","245967","0.0-1.0-229.0","0","0","26537","","null","","","null","25","","NaN","","","","","","","","","","","","","",""
"","response","","html-keyboard-response","176","246711","0.0-1.0-230.0-0.0","0","0","26537","","742","","","75","25","","","1","25","training","adjacent","EF","5","6","N.jpg","Q.jpg","1","1","1","",""
"","feedback","","html-keyboard-response","177","247715","0.0-1.0-231.0-0.0","0","0","26537","","null","","","null","25","","","","","","","","","","","","","","","",""
"","ITI","","html-keyboard-response","178","248719","0.0-1.0-234.0","0","0","26537","","null","","","null","25","","","","","","","","","","","","","","","NaN",""
"","S1","","html-keyboard-response","179","248973","0.0-1.0-236.0","0","0","26537","","null","","","null","26","","","","","","","","","","","","","","","",""
"","ISI","","html-keyboard-response","180","249477","0.0-1.0-237.0","0","0","26537","","null","","","null","26","NaN","","","","","","","","","","","","","","",""
"","S2","","html-keyboard-response","181","249730","0.0-1.0-238.0","0","0","26537","","null","","","null","26","","NaN","","","","","","","","","","","","","",""
"","response","","html-keyboard-response","182","250558","0.0-1.0-239.0-0.0","0","0","26537","","825","","","68","26","","","1","26","training","adjacent","BC","2","3","M.jpg","L.jpg","0","1","0","",""
"","feedback","","html-keyboard-response","183","251561","0.0-1.0-240.0-0.0","0","0","26537","","null","","","null","26","","","","","","","","","","","","","","","",""
"","time_out","","html-keyboard-response","184","253578","0.0-1.0-242.0-0.0","0","0","26537","","null","","","null","26","","","","","","","","","","","","","","","",""
"","ITI","","html-keyboard-response","185","254582","0.0-1.0-243.0","0","0","26537","","null","","","null","26","","","","","","","","","","","","","","","NaN",""
"","S1","","html-keyboard-response","186","254835","0.0-1.0-245.0","0","0","26537","","null","","","null","27","","","","","","","","","","","","","","","",""
"","ISI","","html-keyboard-response","187","255338","0.0-1.0-246.0","0","0","26537","","null","","","null","27","NaN","","","","","","","","","","","","","","",""
"","S2","","html-keyboard-response","188","255592","0.0-1.0-247.0","0","0","26537","","null","","","null","27","","NaN","","","","","","","","","","","","","",""
"","response","","html-keyboard-response","189","256191","0.0-1.0-248.0-0.0","0","0","26537","","596","","","75","27","","","1","27","training","adjacent","GF","7","6","P.jpg","Q.jpg","1","0","0","",""
"","feedback","","html-keyboard-response","190","257195","0.0-1.0-249.0-0.0","0","0","26537","","null","","","null","27","","","","","","","","","","","","","","","",""
"","time_out","","html-keyboard-response","191","259199","0.0-1.0-251.0-0.0","0","0","26537","","null","","","null","27","","","","","","","","","","","","","","","",""
"","ITI","","html-keyboard-response","192","260202","0.0-1.0-252.0","0","0","26537","","null","","","null","27","","","","","","","","","","","","","","","NaN",""
"","S1","","html-keyboard-response","193","260457","0.0-1.0-254.0","0","0","26537","","null","","","null","28","","","","","","","","","","","","","","","",""
"","ISI","","html-keyboard-response","194","260961","0.0-1.0-255.0","0","0","26537","","null","","","null","28","NaN","","","","","","","","","","","","","","",""
"","S2","","html-keyboard-response","195","261215","0.0-1.0-256.0","0","0","26537","","null","","","null","28","","NaN","","","","","","","","","","","","","",""
"","response","","html-keyboard-response","196","262043","0.0-1.0-257.0-0.0","0","0","26537","","826","","","68","28","","","1","28","training","adjacent","DC","4","3","R.jpg","L.jpg","0","0","1","",""
"","feedback","","html-keyboard-response","197","263046","0.0-1.0-258.0-0.0","0","0","26537","","null","","","null","28","","","","","","","","","","","","","","","",""
"","ITI","","html-keyboard-response","198","264048","0.0-1.0-261.0","0","0","26537","","null","","","null","28","","","","","","","","","","","","","","","NaN",""
"","S1","","html-keyboard-response","199","264301","0.0-1.0-263.0","0","0","26537","","null","","","null","29","","","","","","","","","","","","","","","",""
"","ISI","","html-keyboard-response","200","264806","0.0-1.0-264.0","0","0","26537","","null","","","null","29","NaN","","","","","","","","","","","","","","",""
"","S2","","html-keyboard-response","201","265061","0.0-1.0-265.0","0","0","26537","","null","","","null","29","","NaN","","","","","","","","","","","","","",""
"","response","","html-keyboard-response","202","266170","0.0-1.0-266.0-0.0","0","0","26537","","1106","","","75","29","","","1","29","training","adjacent","CB","3","2","L.jpg","M.jpg","1","0","0","",""
"","feedback","","html-keyboard-response","203","267173","0.0-1.0-267.0-0.0","0","0","26537","","null","","","null","29","","","","","","","","","","","","","","","",""
"","time_out","","html-keyboard-response","204","269177","0.0-1.0-269.0-0.0","0","0","26537","","null","","","null","29","","","","","","","","","","","","","","","",""
"","ITI","","html-keyboard-response","205","270180","0.0-1.0-270.0","0","0","26537","","null","","","null","29","","","","","","","","","","","","","","","NaN",""
"","S1","","html-keyboard-response","206","270433","0.0-1.0-272.0","0","0","26537","","null","","","null","30","","","","","","","","","","","","","","","",""
"","ISI","","html-keyboard-response","207","270937","0.0-1.0-273.0","0","0","26537","","null","","","null","30","NaN","","","","","","","","","","","","","","",""
"","S2","","html-keyboard-response","208","271191","0.0-1.0-274.0","0","0","26537","","null","","","null","30","","NaN","","","","","","","","","","","","","",""
"","response","","html-keyboard-response","209","272026","0.0-1.0-275.0-0.0","0","0","26537","","833","","","75","30","","","1","30","training","adjacent","DE","4","5","R.jpg","N.jpg","1","1","1","",""
"","feedback","","html-keyboard-response","210","273030","0.0-1.0-276.0-0.0","0","0","26537","","null","","","null","30","","","","","","","","","","","","","","","",""
"","ITI","","html-keyboard-response","211","274033","0.0-1.0-279.0","0","0","26537","","null","","","null","30","","","","","","","","","","","","","","","NaN",""
"","S1","","html-keyboard-response","212","274287","0.0-1.0-281.0","0","0","26537","","null","","","null","31","","","","","","","","","","","","","","","",""
"","ISI","","html-keyboard-response","213","274790","0.0-1.0-282.0","0","0","26537","","null","","","null","31","NaN","","","","","","","","","","","","","","",""
"","S2","","html-keyboard-response","214","275042","0.0-1.0-283.0","0","0","26537","","null","","","null","31","","NaN","","","","","","","","","","","","","",""
"","response","","html-keyboard-response","215","275988","0.0-1.0-284.0-0.0","0","0","26537","","944","","","68","31","","","1","31","training","adjacent","FG","6","7","Q.jpg","P.jpg","0","1","0","",""
"","feedback","","html-keyboard-response","216","276992","0.0-1.0-285.0-0.0","0","0","26537","","null","","","null","31","","","","","","","","","","","","","","","",""
"","time_out","","html-keyboard-response","217","278996","0.0-1.0-287.0-0.0","0","0","26537","","null","","","null","31","","","","","","","","","","","","","","","",""
"","ITI","","html-keyboard-response","218","279999","0.0-1.0-288.0","0","0","26537","","null","","","null","31","","","","","","","","","","","","","","","NaN",""
"","S1","","html-keyboard-response","219","280252","0.0-1.0-290.0","0","0","26537","","null","","","null","32","","","","","","","","","","","","","","","",""
"","ISI","","html-keyboard-response","220","280755","0.0-1.0-291.0","0","0","26537","","null","","","null","32","NaN","","","","","","","","","","","","","","",""
"","S2","","html-keyboard-response","221","281007","0.0-1.0-292.0","0","0","26537","","null","","","null","32","","NaN","","","","","","","","","","","","","",""
"","response","","html-keyboard-response","222","281453","0.0-1.0-293.0-0.0","0","0","26537","","443","","","75","32","","","1","32","training","adjacent","ED","5","4","N.jpg","R.jpg","1","0","0","",""
"","feedback","","html-keyboard-response","223","282456","0.0-1.0-294.0-0.0","0","0","26537","","null","","","null","32","","","","","","","","","","","","","","","",""
"","time_out","","html-keyboard-response","224","284459","0.0-1.0-296.0-0.0","0","0","26537","","null","","","null","32","","","","","","","","","","","","","","","",""
"","ITI","","html-keyboard-response","225","285463","0.0-1.0-297.0","0","0","26537","","null","","","null","32","","","","","","","","","","","","","","","NaN",""
"","S1","","html-keyboard-response","226","285717","0.0-1.0-299.0","0","0","26537","","null","","","null","33","","","","","","","","","","","","","","","",""
"","ISI","","html-keyboard-response","227","286221","0.0-1.0-300.0","0","0","26537","","null","","","null","33","NaN","","","","","","","","","","","","","","",""
"","S2","","html-keyboard-response","228","286487","0.0-1.0-301.0","0","0","26537","","null","","","null","33","","NaN","","","","","","","","","","","","","",""
"","response","","html-keyboard-response","229","286955","0.0-1.0-302.0-0.0","0","0","26537","","465","","","75","33","","","1","33","training","adjacent","CD","3","4","L.jpg","R.jpg","1","1","1","",""
"","feedback","","html-keyboard-response","230","287960","0.0-1.0-303.0-0.0","0","0","26537","","null","","","null","33","","","","","","","","","","","","","","","",""
"","ITI","","html-keyboard-response","231","288963","0.0-1.0-306.0","0","0","26537","","null","","","null","33","","","","","","","","","","","","","","","NaN",""
"","S1","","html-keyboard-response","232","289217","0.0-1.0-308.0","0","0","26537","","null","","","null","34","","","","","","","","","","","","","","","",""
"","ISI","","html-keyboard-response","233","289720","0.0-1.0-309.0","0","0","26537","","null","","","null","34","NaN","","","","","","","","","","","","","","",""
"","S2","","html-keyboard-response","234","289972","0.0-1.0-310.0","0","0","26537","","null","","","null","34","","NaN","","","","","","","","","","","","","",""
"","response","","html-keyboard-response","235","290957","0.0-1.0-311.0-0.0","0","0","26537","","984","","","68","34","","","1","34","training","adjacent","AB","1","2","O.jpg","M.jpg","0","1","0","",""
"","feedback","","html-keyboard-response","236","291960","0.0-1.0-312.0-0.0","0","0","26537","","null","","","null","34","","","","","","","","","","","","","","","",""
"","time_out","","html-keyboard-response","237","293964","0.0-1.0-314.0-0.0","0","0","26537","","null","","","null","34","","","","","","","","","","","","","","","",""
"","ITI","","html-keyboard-response","238","294967","0.0-1.0-315.0","0","0","26537","","null","","","null","34","","","","","","","","","","","","","","","NaN",""
"","S1","","html-keyboard-response","239","295221","0.0-1.0-317.0","0","0","26537","","null","","","null","35","","","","","","","","","","","","","","","",""
"","ISI","","html-keyboard-response","240","295723","0.0-1.0-318.0","0","0","26537","","null","","","null","35","NaN","","","","","","","","","","","","","","",""
"","S2","","html-keyboard-response","241","295976","0.0-1.0-319.0","0","0","26537","","null","","","null","35","","NaN","","","","","","","","","","","","","",""
"","response","","html-keyboard-response","242","296344","0.0-1.0-320.0-0.0","0","0","26537","","367","","","75","35","","","1","35","training","adjacent","GF","7","6","P.jpg","Q.jpg","1","0","0","",""
"","feedback","","html-keyboard-response","243","297347","0.0-1.0-321.0-0.0","0","0","26537","","null","","","null","35","","","","","","","","","","","","","","","",""
"","time_out","","html-keyboard-response","244","299351","0.0-1.0-323.0-0.0","0","0","26537","","null","","","null","35","","","","","","","","","","","","","","","",""
"","ITI","","html-keyboard-response","245","300354","0.0-1.0-324.0","0","0","26537","","null","","","null","35","","","","","","","","","","","","","","","NaN",""
"","S1","","html-keyboard-response","246","300607","0.0-1.0-326.0","0","0","26537","","null","","","null","36","","","","","","","","","","","","","","","",""
"","ISI","","html-keyboard-response","247","301109","0.0-1.0-327.0","0","0","26537","","null","","","null","36","NaN","","","","","","","","","","","","","","",""
"","S2","","html-keyboard-response","248","301363","0.0-1.0-328.0","0","0","26537","","null","","","null","36","","NaN","","","","","","","","","","","","","",""
"","response","","html-keyboard-response","249","301682","0.0-1.0-329.0-0.0","0","0","26537","","317","","","68","36","","","1","36","training","adjacent","AB","1","2","O.jpg","M.jpg","0","1","0","",""
"","feedback","","html-keyboard-response","250","302685","0.0-1.0-330.0-0.0","0","0","26537","","null","","","null","36","","","","","","","","","","","","","","","",""
"","time_out","","html-keyboard-response","251","304688","0.0-1.0-332.0-0.0","0","0","26537","","null","","","null","36","","","","","","","","","","","","","","","",""
"","ITI","","html-keyboard-response","252","305692","0.0-1.0-333.0","0","0","26537","","null","","","null","36","","","","","","","","","","","","","","","NaN",""
"","S1","","html-keyboard-response","253","305946","0.0-1.0-335.0","0","0","26537","","null","","","null","37","","","","","","","","","","","","","","","",""
"","ISI","","html-keyboard-response","254","306449","0.0-1.0-336.0","0","0","26537","","null","","","null","37","NaN","","","","","","","","","","","","","","",""
"","S2","","html-keyboard-response","255","306702","0.0-1.0-337.0","0","0","26537","","null","","","null","37","","NaN","","","","","","","","","","","","","",""
"","response","","html-keyboard-response","256","307195","0.0-1.0-338.0-0.0","0","0","26537","","492","","","68","37","","","1","37","training","adjacent","FE","6","5","Q.jpg","N.jpg","0","0","1","",""
"","feedback","","html-keyboard-response","257","308199","0.0-1.0-339.0-0.0","0","0","26537","","null","","","null","37","","","","","","","","","","","","","","","",""
"","ITI","","html-keyboard-response","258","309202","0.0-1.0-342.0","0","0","26537","","null","","","null","37","","","","","","","","","","","","","","","NaN",""
"","S1","","html-keyboard-response","259","309455","0.0-1.0-344.0","0","0","26537","","null","","","null","38","","","","","","","","","","","","","","","",""
"","ISI","","html-keyboard-response","260","309969","0.0-1.0-345.0","0","0","26537","","null","","","null","38","NaN","","","","","","","","","","","","","","",""
"","S2","","html-keyboard-response","261","310223","0.0-1.0-346.0","0","0","26537","","null","","","null","38","","NaN","","","","","","","","","","","","","",""
"","response","","html-keyboard-response","262","311042","0.0-1.0-347.0-0.0","0","0","26537","","816","","","68","38","","","1","38","training","adjacent","BC","2","3","M.jpg","L.jpg","0","1","0","",""
"","feedback","","html-keyboard-response","263","312046","0.0-1.0-348.0-0.0","0","0","26537","","null","","","null","38","","","","","","","","","","","","","","","",""
"","time_out","","html-keyboard-response","264","314049","0.0-1.0-350.0-0.0","0","0","26537","","null","","","null","38","","","","","","","","","","","","","","","",""
"","ITI","","html-keyboard-response","265","315054","0.0-1.0-351.0","0","0","26537","","null","","","null","38","","","","","","","","","","","","","","","NaN",""
"","S1","","html-keyboard-response","266","315307","0.0-1.0-353.0","0","0","26537","","null","","","null","39","","","","","","","","","","","","","","","",""
"","ISI","","html-keyboard-response","267","315819","0.0-1.0-354.0","0","0","26537","","null","","","null","39","NaN","","","","","","","","","","","","","","",""
"","S2","","html-keyboard-response","268","316084","0.0-1.0-355.0","0","0","26537","","null","","","null","39","","NaN","","","","","","","","","","","","","",""
"","response","","html-keyboard-response","269","316715","0.0-1.0-356.0-0.0","0","0","26537","","629","","","68","39","","","1","39","training","adjacent","DC","4","3","R.jpg","L.jpg","0","0","1","",""
"","feedback","","html-keyboard-response","270","317719","0.0-1.0-357.0-0.0","0","0","26537","","null","","","null","39","","","","","","","","","","","","","","","",""
"","ITI","","html-keyboard-response","271","318722","0.0-1.0-360.0","0","0","26537","","null","","","null","39","","","","","","","","","","","","","","","NaN",""
"","S1","","html-keyboard-response","272","318974","0.0-1.0-362.0","0","0","26537","","null","","","null","40","","","","","","","","","","","","","","","",""
"","ISI","","html-keyboard-response","273","319478","0.0-1.0-363.0","0","0","26537","","null","","","null","40","NaN","","","","","","","","","","","","","","",""
"","S2","","html-keyboard-response","274","319731","0.0-1.0-364.0","0","0","26537","","null","","","null","40","","NaN","","","","","","","","","","","","","",""
"","response","","html-keyboard-response","275","320150","0.0-1.0-365.0-0.0","0","0","26537","","417","","","75","40","","","1","40","training","adjacent","CB","3","2","L.jpg","M.jpg","1","0","0","",""
"","feedback","","html-keyboard-response","276","321154","0.0-1.0-366.0-0.0","0","0","26537","","null","","","null","40","","","","","","","","","","","","","","","",""
"","time_out","","html-keyboard-response","277","323158","0.0-1.0-368.0-0.0","0","0","26537","","null","","","null","40","","","","","","","","","","","","","","","",""
"","ITI","","html-keyboard-response","278","324172","0.0-1.0-369.0","0","0","26537","","null","","","null","40","","","","","","","","","","","","","","","NaN",""
"","S1","","html-keyboard-response","279","324425","0.0-1.0-371.0","0","0","26537","","null","","","null","41","","","","","","","","","","","","","","","",""
"","ISI","","html-keyboard-response","280","324928","0.0-1.0-372.0","0","0","26537","","null","","","null","41","NaN","","","","","","","","","","","","","","",""
"","S2","","html-keyboard-response","281","325183","0.0-1.0-373.0","0","0","26537","","null","","","null","41","","NaN","","","","","","","","","","","","","",""
"","response","","html-keyboard-response","282","325622","0.0-1.0-374.0-0.0","0","0","26537","","437","","","75","41","","","1","41","training","adjacent","CD","3","4","L.jpg","R.jpg","1","1","1","",""
"","feedback","","html-keyboard-response","283","326624","0.0-1.0-375.0-0.0","0","0","26537","","null","","","null","41","","","","","","","","","","","","","","","",""
"","ITI","","html-keyboard-response","284","327627","0.0-1.0-378.0","0","0","26537","","null","","","null","41","","","","","","","","","","","","","","","NaN",""
"","S1","","html-keyboard-response","285","327879","0.0-1.0-380.0","0","0","26537","","null","","","null","42","","","","","","","","","","","","","","","",""
"","ISI","","html-keyboard-response","286","328392","0.0-1.0-381.0","0","0","26537","","null","","","null","42","NaN","","","","","","","","","","","","","","",""
"","S2","","html-keyboard-response","287","328646","0.0-1.0-382.0","0","0","26537","","null","","","null","42","","NaN","","","","","","","","","","","","","",""
"","response","","html-keyboard-response","288","329819","0.0-1.0-383.0-0.0","0","0","26537","","1171","","","68","42","","","1","42","training","adjacent","ED","5","4","N.jpg","R.jpg","0","0","1","",""
"","feedback","","html-keyboard-response","289","330824","0.0-1.0-384.0-0.0","0","0","26537","","null","","","null","42","","","","","","","","","","","","","","","",""
"","ITI","","html-keyboard-response","290","331828","0.0-1.0-387.0","0","0","26537","","null","","","null","42","","","","","","","","","","","","","","","NaN",""
"","S1","","html-keyboard-response","291","332080","0.0-1.0-389.0","0","0","26537","","null","","","null","43","","","","","","","","","","","","","","","",""
"","ISI","","html-keyboard-response","292","332583","0.0-1.0-390.0","0","0","26537","","null","","","null","43","NaN","","","","","","","","","","","","","","",""
"","S2","","html-keyboard-response","293","332837","0.0-1.0-391.0","0","0","26537","","null","","","null","43","","NaN","","","","","","","","","","","","","",""
"","response","","html-keyboard-response","294","333573","0.0-1.0-392.0-0.0","0","0","26537","","733","","","75","43","","","1","43","training","adjacent","AB","1","2","O.jpg","M.jpg","1","1","1","",""
"","feedback","","html-keyboard-response","295","334578","0.0-1.0-393.0-0.0","0","0","26537","","null","","","null","43","","","","","","","","","","","","","","","",""
"","ITI","","html-keyboard-response","296","335582","0.0-1.0-396.0","0","0","26537","","null","","","null","43","","","","","","","","","","","","","","","NaN",""
"","S1","","html-keyboard-response","297","335836","0.0-1.0-398.0","0","0","26537","","null","","","null","44","","","","","","","","","","","","","","","",""
"","ISI","","html-keyboard-response","298","336339","0.0-1.0-399.0","0","0","26537","","null","","","null","44","NaN","","","","","","","","","","","","","","",""
"","S2","","html-keyboard-response","299","336592","0.0-1.0-400.0","0","0","26537","","null","","","null","44","","NaN","","","","","","","","","","","","","",""
"","response","","html-keyboard-response","300","337255","0.0-1.0-401.0-0.0","0","0","26537","","661","","","68","44","","","1","44","training","adjacent","BA","2","1","M.jpg","O.jpg","0","0","1","",""
"","feedback","","html-keyboard-response","301","338258","0.0-1.0-402.0-0.0","0","0","26537","","null","","","null","44","","","","","","","","","","","","","","","",""
"","ITI","","html-keyboard-response","302","339269","0.0-1.0-405.0","0","0","26537","","null","","","null","44","","","","","","","","","","","","","","","NaN",""
"","S1","","html-keyboard-response","303","339522","0.0-1.0-407.0","0","0","26537","","null","","","null","45","","","","","","","","","","","","","","","",""
"","ISI","","html-keyboard-response","304","340026","0.0-1.0-408.0","0","0","26537","","null","","","null","45","NaN","","","","","","","","","","","","","","",""
"","S2","","html-keyboard-response","305","340279","0.0-1.0-409.0","0","0","26537","","null","","","null","45","","NaN","","","","","","","","","","","","","",""
"","response","","html-keyboard-response","306","340816","0.0-1.0-410.0-0.0","0","0","26537","","534","","","68","45","","","1","45","training","adjacent","FG","6","7","Q.jpg","P.jpg","0","1","0","",""
"","feedback","","html-keyboard-response","307","341820","0.0-1.0-411.0-0.0","0","0","26537","","null","","","null","45","","","","","","","","","","","","","","","",""
"","time_out","","html-keyboard-response","308","343822","0.0-1.0-413.0-0.0","0","0","26537","","null","","","null","45","","","","","","","","","","","","","","","",""
"","ITI","","html-keyboard-response","309","344824","0.0-1.0-414.0","0","0","26537","","null","","","null","45","","","","","","","","","","","","","","","NaN",""
"","S1","","html-keyboard-response","310","345076","0.0-1.0-416.0","0","0","26537","","null","","","null","46","","","","","","","","","","","","","","","",""
"","ISI","","html-keyboard-response","311","345579","0.0-1.0-417.0","0","0","26537","","null","","","null","46","NaN","","","","","","","","","","","","","","",""
"","S2","","html-keyboard-response","312","345832","0.0-1.0-418.0","0","0","26537","","null","","","null","46","","NaN","","","","","","","","","","","","","",""
"","response","","html-keyboard-response","313","346265","0.0-1.0-419.0-0.0","0","0","26537","","430","","","75","46","","","1","46","training","adjacent","ED","5","4","N.jpg","R.jpg","1","0","0","",""
"","feedback","","html-keyboard-response","314","347279","0.0-1.0-420.0-0.0","0","0","26537","","null","","","null","46","","","","","","","","","","","","","","","",""
"","time_out","","html-keyboard-response","315","349282","0.0-1.0-422.0-0.0","0","0","26537","","null","","","null","46","","","","","","","","","","","","","","","",""
"","ITI","","html-keyboard-response","316","350285","0.0-1.0-423.0","0","0","26537","","null","","","null","46","","","","","","","","","","","","","","","NaN",""
"","S1","","html-keyboard-response","317","350537","0.0-1.0-425.0","0","0","26537","","null","","","null","47","","","","","","","","","","","","","","","",""
"","ISI","","html-keyboard-response","318","351040","0.0-1.0-426.0","0","0","26537","","null","","","null","47","NaN","","","","","","","","","","","","","","",""
"","S2","","html-keyboard-response","319","351294","0.0-1.0-427.0","0","0","26537","","null","","","null","47","","NaN","","","","","","","","","","","","","",""
"","response","","html-keyboard-response","320","351667","0.0-1.0-428.0-0.0","0","0","26537","","370","","","75","47","","","1","47","training","adjacent","GF","7","6","P.jpg","Q.jpg","1","0","0","",""
"","feedback","","html-keyboard-response","321","352671","0.0-1.0-429.0-0.0","0","0","26537","","null","","","null","47","","","","","","","","","","","","","","","",""
"","time_out","","html-keyboard-response","322","354674","0.0-1.0-431.0-0.0","0","0","26537","","null","","","null","47","","","","","","","","","","","","","","","",""
"","ITI","","html-keyboard-response","323","355677","0.0-1.0-432.0","0","0","26537","","null","","","null","47","","","","","","","","","","","","","","","NaN",""
"","block_over","","html-keyboard-response","324","368096","0.0-1.0-433.0-0.0","0","0","26537","","12418","","","32","47","","","","","","","","","","","","","","","",""
"","S1","","html-keyboard-response","325","368350","0.0-1.0-434.0","0","0","26537","","null","","","null","48","","","","","","","","","","","","","","","",""
"","ISI","","html-keyboard-response","326","368866","0.0-1.0-435.0","0","0","26537","","null","","","null","48","NaN","","","","","","","","","","","","","","",""
"","S2","","html-keyboard-response","327","369118","0.0-1.0-436.0","0","0","26537","","null","","","null","48","","NaN","","","","","","","","","","","","","",""
"","response","","html-keyboard-response","328","370025","0.0-1.0-437.0-0.0","0","0","26537","","905","","","68","48","","","2","48","training","adjacent","DE","4","5","R.jpg","N.jpg","0","1","0","",""
"","feedback","","html-keyboard-response","329","371030","0.0-1.0-438.0-0.0","0","0","26537","","null","","","null","48","","","","","","","","","","","","","","","",""
"","time_out","","html-keyboard-response","330","373033","0.0-1.0-440.0-0.0","0","0","26537","","null","","","null","48","","","","","","","","","","","","","","","",""
"","ITI","","html-keyboard-response","331","374037","0.0-1.0-441.0","0","0","26537","","null","","","null","48","","","","","","","","","","","","","","","NaN",""
"","S1","","html-keyboard-response","332","374290","0.0-1.0-443.0","0","0","26537","","null","","","null","49","","","","","","","","","","","","","","","",""
"","ISI","","html-keyboard-response","333","374792","0.0-1.0-444.0","0","0","26537","","null","","","null","49","NaN","","","","","","","","","","","","","","",""
"","S2","","html-keyboard-response","334","375046","0.0-1.0-445.0","0","0","26537","","null","","","null","49","","NaN","","","","","","","","","","","","","",""
"","response","","html-keyboard-response","335","375309","0.0-1.0-446.0-0.0","0","0","26537","","261","","","75","49","","","2","49","training","adjacent","ED","5","4","N.jpg","R.jpg","1","0","0","",""
"","feedback","","html-keyboard-response","336","376312","0.0-1.0-447.0-0.0","0","0","26537","","null","","","null","49","","","","","","","","","","","","","","","",""
"","time_out","","html-keyboard-response","337","378316","0.0-1.0-449.0-0.0","0","0","26537","","null","","","null","49","","","","","","","","","","","","","","","",""
"","ITI","","html-keyboard-response","338","379323","0.0-1.0-450.0","0","0","26537","","null","","","null","49","","","","","","","","","","","","","","","NaN",""
"","S1","","html-keyboard-response","339","379577","0.0-1.0-452.0","0","0","26537","","null","","","null","50","","","","","","","","","","","","","","","",""
"","ISI","","html-keyboard-response","340","380080","0.0-1.0-453.0","0","0","26537","","null","","","null","50","NaN","","","","","","","","","","","","","","",""
"","S2","","html-keyboard-response","341","380335","0.0-1.0-454.0","0","0","26537","","null","","","null","50","","NaN","","","","","","","","","","","","","",""
"","response","","html-keyboard-response","342","380692","0.0-1.0-455.0-0.0","0","0","26537","","355","","","68","50","","","2","50","training","adjacent","DE","4","5","R.jpg","N.jpg","0","1","0","",""
"","feedback","","html-keyboard-response","343","381703","0.0-1.0-456.0-0.0","0","0","26537","","null","","","null","50","","","","","","","","","","","","","","","",""
"","time_out","","html-keyboard-response","344","383708","0.0-1.0-458.0-0.0","0","0","26537","","null","","","null","50","","","","","","","","","","","","","","","",""
"","ITI","","html-keyboard-response","345","384711","0.0-1.0-459.0","0","0","26537","","null","","","null","50","","","","","","","","","","","","","","","NaN",""
"","S1","","html-keyboard-response","346","384966","0.0-1.0-461.0","0","0","26537","","null","","","null","51","","","","","","","","","","","","","","","",""
"","ISI","","html-keyboard-response","347","385469","0.0-1.0-462.0","0","0","26537","","null","","","null","51","NaN","","","","","","","","","","","","","","",""
"","S2","","html-keyboard-response","348","385723","0.0-1.0-463.0","0","0","26537","","null","","","null","51","","NaN","","","","","","","","","","","","","",""
"","response","","html-keyboard-response","349","386049","0.0-1.0-464.0-0.0","0","0","26537","","325","","","75","51","","","2","51","training","adjacent","GF","7","6","P.jpg","Q.jpg","1","0","0","",""
"","feedback","","html-keyboard-response","350","387051","0.0-1.0-465.0-0.0","0","0","26537","","null","","","null","51","","","","","","","","","","","","","","","",""
"","time_out","","html-keyboard-response","351","389054","0.0-1.0-467.0-0.0","0","0","26537","","null","","","null","51","","","","","","","","","","","","","","","",""
"","ITI","","html-keyboard-response","352","390057","0.0-1.0-468.0","0","0","26537","","null","","","null","51","","","","","","","","","","","","","","","NaN",""
"","S1","","html-keyboard-response","353","390311","0.0-1.0-470.0","0","0","26537","","null","","","null","52","","","","","","","","","","","","","","","",""
"","ISI","","html-keyboard-response","354","390815","0.0-1.0-471.0","0","0","26537","","null","","","null","52","NaN","","","","","","","","","","","","","","",""
"","S2","","html-keyboard-response","355","391076","0.0-1.0-472.0","0","0","26537","","null","","","null","52","","NaN","","","","","","","","","","","","","",""
"","response","","html-keyboard-response","356","391473","0.0-1.0-473.0-0.0","0","0","26537","","396","","","75","52","","","2","52","training","adjacent","CB","3","2","L.jpg","M.jpg","1","0","0","",""
"","feedback","","html-keyboard-response","357","392476","0.0-1.0-474.0-0.0","0","0","26537","","null","","","null","52","","","","","","","","","","","","","","","",""
"","time_out","","html-keyboard-response","358","394478","0.0-1.0-476.0-0.0","0","0","26537","","null","","","null","52","","","","","","","","","","","","","","","",""
"","ITI","","html-keyboard-response","359","395482","0.0-1.0-477.0","0","0","26537","","null","","","null","52","","","","","","","","","","","","","","","NaN",""
"","S1","","html-keyboard-response","360","395735","0.0-1.0-479.0","0","0","26537","","null","","","null","53","","","","","","","","","","","","","","","",""
"","ISI","","html-keyboard-response","361","396237","0.0-1.0-480.0","0","0","26537","","null","","","null","53","NaN","","","","","","","","","","","","","","",""
"","S2","","html-keyboard-response","362","396490","0.0-1.0-481.0","0","0","26537","","null","","","null","53","","NaN","","","","","","","","","","","","","",""
"","response","","html-keyboard-response","363","396801","0.0-1.0-482.0-0.0","0","0","26537","","310","","","68","53","","","2","53","training","adjacent","DC","4","3","R.jpg","L.jpg","0","0","1","",""
"","feedback","","html-keyboard-response","364","397804","0.0-1.0-483.0-0.0","0","0","26537","","null","","","null","53","","","","","","","","","","","","","","","",""
"","ITI","","html-keyboard-response","365","398806","0.0-1.0-486.0","0","0","26537","","null","","","null","53","","","","","","","","","","","","","","","NaN",""
"","S1","","html-keyboard-response","366","399059","0.0-1.0-488.0","0","0","26537","","null","","","null","54","","","","","","","","","","","","","","","",""
"","ISI","","html-keyboard-response","367","399562","0.0-1.0-489.0","0","0","26537","","null","","","null","54","NaN","","","","","","","","","","","","","","",""
"","S2","","html-keyboard-response","368","399815","0.0-1.0-490.0","0","0","26537","","null","","","null","54","","NaN","","","","","","","","","","","","","",""
"","response","","html-keyboard-response","369","400477","0.0-1.0-491.0-0.0","0","0","26537","","660","","","75","54","","","2","54","training","adjacent","GF","7","6","P.jpg","Q.jpg","1","0","0","",""
"","feedback","","html-keyboard-response","370","401481","0.0-1.0-492.0-0.0","0","0","26537","","null","","","null","54","","","","","","","","","","","","","","","",""
"","time_out","","html-keyboard-response","371","403484","0.0-1.0-494.0-0.0","0","0","26537","","null","","","null","54","","","","","","","","","","","","","","","",""
"","ITI","","html-keyboard-response","372","404487","0.0-1.0-495.0","0","0","26537","","null","","","null","54","","","","","","","","","","","","","","","NaN",""
"","S1","","html-keyboard-response","373","404740","0.0-1.0-497.0","0","0","26537","","null","","","null","55","","","","","","","","","","","","","","","",""
"","ISI","","html-keyboard-response","374","405241","0.0-1.0-498.0","0","0","26537","","null","","","null","55","NaN","","","","","","","","","","","","","","",""
"","S2","","html-keyboard-response","375","405495","0.0-1.0-499.0","0","0","26537","","null","","","null","55","","NaN","","","","","","","","","","","","","",""
"","response","","html-keyboard-response","376","405884","0.0-1.0-500.0-0.0","0","0","26537","","387","","","75","55","","","2","55","training","adjacent","CB","3","2","L.jpg","M.jpg","1","0","0","",""
"","feedback","","html-keyboard-response","377","406888","0.0-1.0-501.0-0.0","0","0","26537","","null","","","null","55","","","","","","","","","","","","","","","",""
"","time_out","","html-keyboard-response","378","408892","0.0-1.0-503.0-0.0","0","0","26537","","null","","","null","55","","","","","","","","","","","","","","","",""
"","ITI","","html-keyboard-response","379","409896","0.0-1.0-504.0","0","0","26537","","null","","","null","55","","","","","","","","","","","","","","","NaN",""
"","S1","","html-keyboard-response","380","410150","0.0-1.0-506.0","0","0","26537","","null","","","null","56","","","","","","","","","","","","","","","",""
"","ISI","","html-keyboard-response","381","410653","0.0-1.0-507.0","0","0","26537","","null","","","null","56","NaN","","","","","","","","","","","","","","",""
"","S2","","html-keyboard-response","382","410907","0.0-1.0-508.0","0","0","26537","","null","","","null","56","","NaN","","","","","","","","","","","","","",""
"","response","","html-keyboard-response","383","411925","0.0-1.0-509.0-0.0","0","0","26537","","1015","","","75","56","","","2","56","training","adjacent","FE","6","5","Q.jpg","N.jpg","1","0","0","",""
"","feedback","","html-keyboard-response","384","412930","0.0-1.0-510.0-0.0","0","0","26537","","null","","","null","56","","","","","","","","","","","","","","","",""
"","time_out","","html-keyboard-response","385","414933","0.0-1.0-512.0-0.0","0","0","26537","","null","","","null","56","","","","","","","","","","","","","","","",""
"","ITI","","html-keyboard-response","386","415935","0.0-1.0-513.0","0","0","26537","","null","","","null","56","","","","","","","","","","","","","","","NaN",""
"","S1","","html-keyboard-response","387","416187","0.0-1.0-515.0","0","0","26537","","null","","","null","57","","","","","","","","","","","","","","","",""
"","ISI","","html-keyboard-response","388","416690","0.0-1.0-516.0","0","0","26537","","null","","","null","57","NaN","","","","","","","","","","","","","","",""
"","S2","","html-keyboard-response","389","416945","0.0-1.0-517.0","0","0","26537","","null","","","null","57","","NaN","","","","","","","","","","","","","",""
"","response","","html-keyboard-response","390","417613","0.0-1.0-518.0-0.0","0","0","26537","","666","","","68","57","","","2","57","training","adjacent","BC","2","3","M.jpg","L.jpg","0","1","0","",""
"","feedback","","html-keyboard-response","391","418616","0.0-1.0-519.0-0.0","0","0","26537","","null","","","null","57","","","","","","","","","","","","","","","",""
"","time_out","","html-keyboard-response","392","420620","0.0-1.0-521.0-0.0","0","0","26537","","null","","","null","57","","","","","","","","","","","","","","","",""
"","ITI","","html-keyboard-response","393","421624","0.0-1.0-522.0","0","0","26537","","null","","","null","57","","","","","","","","","","","","","","","NaN",""
"","S1","","html-keyboard-response","394","421893","0.0-1.0-524.0","0","0","26537","","null","","","null","58","","","","","","","","","","","","","","","",""
"","ISI","","html-keyboard-response","395","422396","0.0-1.0-525.0","0","0","26537","","null","","","null","58","NaN","","","","","","","","","","","","","","",""
"","S2","","html-keyboard-response","396","422651","0.0-1.0-526.0","0","0","26537","","null","","","null","58","","NaN","","","","","","","","","","","","","",""
"","response","","html-keyboard-response","397","423235","0.0-1.0-527.0-0.0","0","0","26537","","581","","","68","58","","","2","58","training","adjacent","DE","4","5","R.jpg","N.jpg","0","1","0","",""
"","feedback","","html-keyboard-response","398","424240","0.0-1.0-528.0-0.0","0","0","26537","","null","","","null","58","","","","","","","","","","","","","","","",""
"","time_out","","html-keyboard-response","399","426251","0.0-1.0-530.0-0.0","0","0","26537","","null","","","null","58","","","","","","","","","","","","","","","",""
"","ITI","","html-keyboard-response","400","427253","0.0-1.0-531.0","0","0","26537","","null","","","null","58","","","","","","","","","","","","","","","NaN",""
"","S1","","html-keyboard-response","401","427507","0.0-1.0-533.0","0","0","26537","","null","","","null","59","","","","","","","","","","","","","","","",""
"","ISI","","html-keyboard-response","402","428011","0.0-1.0-534.0","0","0","26537","","null","","","null","59","NaN","","","","","","","","","","","","","","",""
"","S2","","html-keyboard-response","403","428271","0.0-1.0-535.0","0","0","26537","","null","","","null","59","","NaN","","","","","","","","","","","","","",""
"","response","","html-keyboard-response","404","428639","0.0-1.0-536.0-0.0","0","0","26537","","365","","","75","59","","","2","59","training","adjacent","FG","6","7","Q.jpg","P.jpg","1","1","1","",""
"","feedback","","html-keyboard-response","405","429643","0.0-1.0-537.0-0.0","0","0","26537","","null","","","null","59","","","","","","","","","","","","","","","",""
"","ITI","","html-keyboard-response","406","430647","0.0-1.0-540.0","0","0","26537","","null","","","null","59","","","","","","","","","","","","","","","NaN",""
"","S1","","html-keyboard-response","407","430901","0.0-1.0-542.0","0","0","26537","","null","","","null","60","","","","","","","","","","","","","","","",""
"","ISI","","html-keyboard-response","408","431403","0.0-1.0-543.0","0","0","26537","","null","","","null","60","NaN","","","","","","","","","","","","","","",""
"","S2","","html-keyboard-response","409","431657","0.0-1.0-544.0","0","0","26537","","null","","","null","60","","NaN","","","","","","","","","","","","","",""
"","response","","html-keyboard-response","410","432235","0.0-1.0-545.0-0.0","0","0","26537","","574","","","75","60","","","2","60","training","adjacent","AB","1","2","O.jpg","M.jpg","1","1","1","",""
"","feedback","","html-keyboard-response","411","433241","0.0-1.0-546.0-0.0","0","0","26537","","null","","","null","60","","","","","","","","","","","","","","","",""
"","ITI","","html-keyboard-response","412","434245","0.0-1.0-549.0","0","0","26537","","null","","","null","60","","","","","","","","","","","","","","","NaN",""
"","S1","","html-keyboard-response","413","434499","0.0-1.0-551.0","0","0","26537","","null","","","null","61","","","","","","","","","","","","","","","",""
"","ISI","","html-keyboard-response","414","435003","0.0-1.0-552.0","0","0","26537","","null","","","null","61","NaN","","","","","","","","","","","","","","",""
"","S2","","html-keyboard-response","415","435258","0.0-1.0-553.0","0","0","26537","","null","","","null","61","","NaN","","","","","","","","","","","","","",""
"","response","","html-keyboard-response","416","435678","0.0-1.0-554.0-0.0","0","0","26537","","417","","","68","61","","","2","61","training","adjacent","FE","6","5","Q.jpg","N.jpg","0","0","1","",""
"","feedback","","html-keyboard-response","417","436682","0.0-1.0-555.0-0.0","0","0","26537","","null","","","null","61","","","","","","","","","","","","","","","",""
"","ITI","","html-keyboard-response","418","437687","0.0-1.0-558.0","0","0","26537","","null","","","null","61","","","","","","","","","","","","","","","NaN",""
"","S1","","html-keyboard-response","419","437941","0.0-1.0-560.0","0","0","26537","","null","","","null","62","","","","","","","","","","","","","","","",""
"","ISI","","html-keyboard-response","420","438444","0.0-1.0-561.0","0","0","26537","","null","","","null","62","NaN","","","","","","","","","","","","","","",""
"","S2","","html-keyboard-response","421","438699","0.0-1.0-562.0","0","0","26537","","null","","","null","62","","NaN","","","","","","","","","","","","","",""
"","response","","html-keyboard-response","422","439554","0.0-1.0-563.0-0.0","0","0","26537","","852","","","68","62","","","2","62","training","adjacent","EF","5","6","N.jpg","Q.jpg","0","1","0","",""
"","feedback","","html-keyboard-response","423","440559","0.0-1.0-564.0-0.0","0","0","26537","","null","","","null","62","","","","","","","","","","","","","","","",""
"","time_out","","html-keyboard-response","424","442564","0.0-1.0-566.0-0.0","0","0","26537","","null","","","null","62","","","","","","","","","","","","","","","",""
"","ITI","","html-keyboard-response","425","443568","0.0-1.0-567.0","0","0","26537","","null","","","null","62","","","","","","","","","","","","","","","NaN",""
"","S1","","html-keyboard-response","426","443821","0.0-1.0-569.0","0","0","26537","","null","","","null","63","","","","","","","","","","","","","","","",""
"","ISI","","html-keyboard-response","427","444324","0.0-1.0-570.0","0","0","26537","","null","","","null","63","NaN","","","","","","","","","","","","","","",""
"","S2","","html-keyboard-response","428","444579","0.0-1.0-571.0","0","0","26537","","null","","","null","63","","NaN","","","","","","","","","","","","","",""
"","response","","html-keyboard-response","429","445047","0.0-1.0-572.0-0.0","0","0","26537","","465","","","75","63","","","2","63","training","adjacent","ED","5","4","N.jpg","R.jpg","1","0","0","",""
"","feedback","","html-keyboard-response","430","446050","0.0-1.0-573.0-0.0","0","0","26537","","null","","","null","63","","","","","","","","","","","","","","","",""
"","time_out","","html-keyboard-response","431","448052","0.0-1.0-575.0-0.0","0","0","26537","","null","","","null","63","","","","","","","","","","","","","","","",""
"","ITI","","html-keyboard-response","432","449053","0.0-1.0-576.0","0","0","26537","","null","","","null","63","","","","","","","","","","","","","","","NaN",""
"","S1","","html-keyboard-response","433","449306","0.0-1.0-578.0","0","0","26537","","null","","","null","64","","","","","","","","","","","","","","","",""
"","ISI","","html-keyboard-response","434","449810","0.0-1.0-579.0","0","0","26537","","null","","","null","64","NaN","","","","","","","","","","","","","","",""
"","S2","","html-keyboard-response","435","450062","0.0-1.0-580.0","0","0","26537","","null","","","null","64","","NaN","","","","","","","","","","","","","",""
"","response","","html-keyboard-response","436","450468","0.0-1.0-581.0-0.0","0","0","26537","","402","","","75","64","","","2","64","training","adjacent","GF","7","6","P.jpg","Q.jpg","1","0","0","",""
"","feedback","","html-keyboard-response","437","451472","0.0-1.0-582.0-0.0","0","0","26537","","null","","","null","64","","","","","","","","","","","","","","","",""
"","time_out","","html-keyboard-response","438","453476","0.0-1.0-584.0-0.0","0","0","26537","","null","","","null","64","","","","","","","","","","","","","","","",""
"","ITI","","html-keyboard-response","439","454479","0.0-1.0-585.0","0","0","26537","","null","","","null","64","","","","","","","","","","","","","","","NaN",""
"","S1","","html-keyboard-response","440","454733","0.0-1.0-587.0","0","0","26537","","null","","","null","65","","","","","","","","","","","","","","","",""
"","ISI","","html-keyboard-response","441","455236","0.0-1.0-588.0","0","0","26537","","null","","","null","65","NaN","","","","","","","","","","","","","","",""
"","S2","","html-keyboard-response","442","455490","0.0-1.0-589.0","0","0","26537","","null","","","null","65","","NaN","","","","","","","","","","","","","",""
"","response","","html-keyboard-response","443","455773","0.0-1.0-590.0-0.0","0","0","26537","","282","","","75","65","","","2","65","training","adjacent","ED","5","4","N.jpg","R.jpg","1","0","0","",""
"","feedback","","html-keyboard-response","444","456774","0.0-1.0-591.0-0.0","0","0","26537","","null","","","null","65","","","","","","","","","","","","","","","",""
"","time_out","","html-keyboard-response","445","458776","0.0-1.0-593.0-0.0","0","0","26537","","null","","","null","65","","","","","","","","","","","","","","","",""
"","ITI","","html-keyboard-response","446","459779","0.0-1.0-594.0","0","0","26537","","null","","","null","65","","","","","","","","","","","","","","","NaN",""
"","S1","","html-keyboard-response","447","460033","0.0-1.0-596.0","0","0","26537","","null","","","null","66","","","","","","","","","","","","","","","",""
"","ISI","","html-keyboard-response","448","460538","0.0-1.0-597.0","0","0","26537","","null","","","null","66","NaN","","","","","","","","","","","","","","",""
"","S2","","html-keyboard-response","449","460791","0.0-1.0-598.0","0","0","26537","","null","","","null","66","","NaN","","","","","","","","","","","","","",""
"","response","","html-keyboard-response","450","461204","0.0-1.0-599.0-0.0","0","0","26537","","410","","","75","66","","","2","66","training","adjacent","CB","3","2","L.jpg","M.jpg","1","0","0","",""
"","feedback","","html-keyboard-response","451","462209","0.0-1.0-600.0-0.0","0","0","26537","","null","","","null","66","","","","","","","","","","","","","","","",""
"","time_out","","html-keyboard-response","452","464213","0.0-1.0-602.0-0.0","0","0","26537","","null","","","null","66","","","","","","","","","","","","","","","",""
"","ITI","","html-keyboard-response","453","465218","0.0-1.0-603.0","0","0","26537","","null","","","null","66","","","","","","","","","","","","","","","NaN",""
"","S1","","html-keyboard-response","454","465471","0.0-1.0-605.0","0","0","26537","","null","","","null","67","","","","","","","","","","","","","","","",""
"","ISI","","html-keyboard-response","455","465974","0.0-1.0-606.0","0","0","26537","","null","","","null","67","NaN","","","","","","","","","","","","","","",""
"","S2","","html-keyboard-response","456","466228","0.0-1.0-607.0","0","0","26537","","null","","","null","67","","NaN","","","","","","","","","","","","","",""
"","response","","html-keyboard-response","457","466674","0.0-1.0-608.0-0.0","0","0","26537","","443","","","75","67","","","2","67","training","adjacent","CD","3","4","L.jpg","R.jpg","1","1","1","",""
"","feedback","","html-keyboard-response","458","467679","0.0-1.0-609.0-0.0","0","0","26537","","null","","","null","67","","","","","","","","","","","","","","","",""
"","ITI","","html-keyboard-response","459","468682","0.0-1.0-612.0","0","0","26537","","null","","","null","67","","","","","","","","","","","","","","","NaN",""
"","S1","","html-keyboard-response","460","468936","0.0-1.0-614.0","0","0","26537","","null","","","null","68","","","","","","","","","","","","","","","",""
"","ISI","","html-keyboard-response","461","469439","0.0-1.0-615.0","0","0","26537","","null","","","null","68","NaN","","","","","","","","","","","","","","",""
"","S2","","html-keyboard-response","462","469693","0.0-1.0-616.0","0","0","26537","","null","","","null","68","","NaN","","","","","","","","","","","","","",""
"","response","","html-keyboard-response","463","470134","0.0-1.0-617.0-0.0","0","0","26537","","438","","","68","68","","","2","68","training","adjacent","DE","4","5","R.jpg","N.jpg","0","1","0","",""
"","feedback","","html-keyboard-response","464","471138","0.0-1.0-618.0-0.0","0","0","26537","","null","","","null","68","","","","","","","","","","","","","","","",""
"","time_out","","html-keyboard-response","465","473141","0.0-1.0-620.0-0.0","0","0","26537","","null","","","null","68","","","","","","","","","","","","","","","",""
"","ITI","","html-keyboard-response","466","474145","0.0-1.0-621.0","0","0","26537","","null","","","null","68","","","","","","","","","","","","","","","NaN",""
"","S1","","html-keyboard-response","467","474399","0.0-1.0-623.0","0","0","26537","","null","","","null","69","","","","","","","","","","","","","","","",""
"","ISI","","html-keyboard-response","468","474901","0.0-1.0-624.0","0","0","26537","","null","","","null","69","NaN","","","","","","","","","","","","","","",""
"","S2","","html-keyboard-response","469","475154","0.0-1.0-625.0","0","0","26537","","null","","","null","69","","NaN","","","","","","","","","","","","","",""
"","response","","html-keyboard-response","470","475401","0.0-1.0-626.0-0.0","0","0","26537","","244","","","75","69","","","2","69","training","adjacent","GF","7","6","P.jpg","Q.jpg","1","0","0","",""
"","feedback","","html-keyboard-response","471","476405","0.0-1.0-627.0-0.0","0","0","26537","","null","","","null","69","","","","","","","","","","","","","","","",""
"","time_out","","html-keyboard-response","472","478408","0.0-1.0-629.0-0.0","0","0","26537","","null","","","null","69","","","","","","","","","","","","","","","",""
"","ITI","","html-keyboard-response","473","479410","0.0-1.0-630.0","0","0","26537","","null","","","null","69","","","","","","","","","","","","","","","NaN",""
"","S1","","html-keyboard-response","474","479663","0.0-1.0-632.0","0","0","26537","","null","","","null","70","","","","","","","","","","","","","","","",""
"","ISI","","html-keyboard-response","475","480167","0.0-1.0-633.0","0","0","26537","","null","","","null","70","NaN","","","","","","","","","","","","","","",""
"","S2","","html-keyboard-response","476","480420","0.0-1.0-634.0","0","0","26537","","null","","","null","70","","NaN","","","","","","","","","","","","","",""
"","response","","html-keyboard-response","477","480850","0.0-1.0-635.0-0.0","0","0","26537","","429","","","75","70","","","2","70","training","adjacent","BA","2","1","M.jpg","O.jpg","1","0","0","",""
"","feedback","","html-keyboard-response","478","481853","0.0-1.0-636.0-0.0","0","0","26537","","null","","","null","70","","","","","","","","","","","","","","","",""
"","time_out","","html-keyboard-response","479","483856","0.0-1.0-638.0-0.0","0","0","26537","","null","","","null","70","","","","","","","","","","","","","","","",""
"","ITI","","html-keyboard-response","480","484859","0.0-1.0-639.0","0","0","26537","","null","","","null","70","","","","","","","","","","","","","","","NaN",""
"","S1","","html-keyboard-response","481","485113","0.0-1.0-641.0","0","0","26537","","null","","","null","71","","","","","","","","","","","","","","","",""
"","ISI","","html-keyboard-response","482","485616","0.0-1.0-642.0","0","0","26537","","null","","","null","71","NaN","","","","","","","","","","","","","","",""
"","S2","","html-keyboard-response","483","485870","0.0-1.0-643.0","0","0","26537","","null","","","null","71","","NaN","","","","","","","","","","","","","",""
"","response","","html-keyboard-response","484","486239","0.0-1.0-644.0-0.0","0","0","26537","","367","","","68","71","","","2","71","training","adjacent","FG","6","7","Q.jpg","P.jpg","0","1","0","",""
"","feedback","","html-keyboard-response","485","487242","0.0-1.0-645.0-0.0","0","0","26537","","null","","","null","71","","","","","","","","","","","","","","","",""
"","time_out","","html-keyboard-response","486","489246","0.0-1.0-647.0-0.0","0","0","26537","","null","","","null","71","","","","","","","","","","","","","","","",""
"","ITI","","html-keyboard-response","487","490250","0.0-1.0-648.0","0","0","26537","","null","","","null","71","","","","","","","","","","","","","","","NaN",""
"","S1","","html-keyboard-response","488","490505","0.0-1.0-650.0","0","0","26537","","null","","","null","72","","","","","","","","","","","","","","","",""
"","ISI","","html-keyboard-response","489","491008","0.0-1.0-651.0","0","0","26537","","null","","","null","72","NaN","","","","","","","","","","","","","","",""
"","S2","","html-keyboard-response","490","491261","0.0-1.0-652.0","0","0","26537","","null","","","null","72","","NaN","","","","","","","","","","","","","",""
"","response","","html-keyboard-response","491","491665","0.0-1.0-653.0-0.0","0","0","26537","","401","","","68","72","","","2","72","training","adjacent","DC","4","3","R.jpg","L.jpg","0","0","1","",""
"","feedback","","html-keyboard-response","492","492670","0.0-1.0-654.0-0.0","0","0","26537","","null","","","null","72","","","","","","","","","","","","","","","",""
"","ITI","","html-keyboard-response","493","493674","0.0-1.0-657.0","0","0","26537","","null","","","null","72","","","","","","","","","","","","","","","NaN",""
"","S1","","html-keyboard-response","494","493943","0.0-1.0-659.0","0","0","26537","","null","","","null","73","","","","","","","","","","","","","","","",""
"","ISI","","html-keyboard-response","495","494456","0.0-1.0-660.0","0","0","26537","","null","","","null","73","NaN","","","","","","","","","","","","","","",""
"","S2","","html-keyboard-response","496","494712","0.0-1.0-661.0","0","0","26537","","null","","","null","73","","NaN","","","","","","","","","","","","","",""
"","response","","html-keyboard-response","497","495366","0.0-1.0-662.0-0.0","0","0","26537","","651","","","75","73","","","2","73","training","adjacent","FE","6","5","Q.jpg","N.jpg","1","0","0","",""
"","feedback","","html-keyboard-response","498","496370","0.0-1.0-663.0-0.0","0","0","26537","","null","","","null","73","","","","","","","","","","","","","","","",""
"","time_out","","html-keyboard-response","499","498374","0.0-1.0-665.0-0.0","0","0","26537","","null","","","null","73","","","","","","","","","","","","","","","",""
"","ITI","","html-keyboard-response","500","499379","0.0-1.0-666.0","0","0","26537","","null","","","null","73","","","","","","","","","","","","","","","NaN",""
"","S1","","html-keyboard-response","501","499632","0.0-1.0-668.0","0","0","26537","","null","","","null","74","","","","","","","","","","","","","","","",""
"","ISI","","html-keyboard-response","502","500135","0.0-1.0-669.0","0","0","26537","","null","","","null","74","NaN","","","","","","","","","","","","","","",""
"","S2","","html-keyboard-response","503","500389","0.0-1.0-670.0","0","0","26537","","null","","","null","74","","NaN","","","","","","","","","","","","","",""
"","response","","html-keyboard-response","504","500835","0.0-1.0-671.0-0.0","0","0","26537","","443","","","75","74","","","2","74","training","adjacent","DC","4","3","R.jpg","L.jpg","1","0","0","",""
"","feedback","","html-keyboard-response","505","501839","0.0-1.0-672.0-0.0","0","0","26537","","null","","","null","74","","","","","","","","","","","","","","","",""
"","time_out","","html-keyboard-response","506","503843","0.0-1.0-674.0-0.0","0","0","26537","","null","","","null","74","","","","","","","","","","","","","","","",""
"","ITI","","html-keyboard-response","507","504846","0.0-1.0-675.0","0","0","26537","","null","","","null","74","","","","","","","","","","","","","","","NaN",""
"","S1","","html-keyboard-response","508","505100","0.0-1.0-677.0","0","0","26537","","null","","","null","75","","","","","","","","","","","","","","","",""
"","ISI","","html-keyboard-response","509","505602","0.0-1.0-678.0","0","0","26537","","null","","","null","75","NaN","","","","","","","","","","","","","","",""
"","S2","","html-keyboard-response","510","505856","0.0-1.0-679.0","0","0","26537","","null","","","null","75","","NaN","","","","","","","","","","","","","",""
"","response","","html-keyboard-response","511","506291","0.0-1.0-680.0-0.0","0","0","26537","","433","","","75","75","","","2","75","training","adjacent","DC","4","3","R.jpg","L.jpg","1","0","0","",""
"","feedback","","html-keyboard-response","512","507294","0.0-1.0-681.0-0.0","0","0","26537","","null","","","null","75","","","","","","","","","","","","","","","",""
"","time_out","","html-keyboard-response","513","509297","0.0-1.0-683.0-0.0","0","0","26537","","null","","","null","75","","","","","","","","","","","","","","","",""
"","ITI","","html-keyboard-response","514","510300","0.0-1.0-684.0","0","0","26537","","null","","","null","75","","","","","","","","","","","","","","","NaN",""
"","S1","","html-keyboard-response","515","510553","0.0-1.0-686.0","0","0","26537","","null","","","null","76","","","","","","","","","","","","","","","",""
"","ISI","","html-keyboard-response","516","511056","0.0-1.0-687.0","0","0","26537","","null","","","null","76","NaN","","","","","","","","","","","","","","",""
"","S2","","html-keyboard-response","517","511309","0.0-1.0-688.0","0","0","26537","","null","","","null","76","","NaN","","","","","","","","","","","","","",""
"","response","","html-keyboard-response","518","511700","0.0-1.0-689.0-0.0","0","0","26537","","387","","","75","76","","","2","76","training","adjacent","EF","5","6","N.jpg","Q.jpg","1","1","1","",""
"","feedback","","html-keyboard-response","519","512705","0.0-1.0-690.0-0.0","0","0","26537","","null","","","null","76","","","","","","","","","","","","","","","",""
"","ITI","","html-keyboard-response","520","513710","0.0-1.0-693.0","0","0","26537","","null","","","null","76","","","","","","","","","","","","","","","NaN",""
"","S1","","html-keyboard-response","521","513964","0.0-1.0-695.0","0","0","26537","","null","","","null","77","","","","","","","","","","","","","","","",""
"","ISI","","html-keyboard-response","522","514468","0.0-1.0-696.0","0","0","26537","","null","","","null","77","NaN","","","","","","","","","","","","","","",""
"","S2","","html-keyboard-response","523","514723","0.0-1.0-697.0","0","0","26537","","null","","","null","77","","NaN","","","","","","","","","","","","","",""
"","response","","html-keyboard-response","524","515137","0.0-1.0-698.0-0.0","0","0","26537","","412","","","68","77","","","2","77","training","adjacent","FG","6","7","Q.jpg","P.jpg","0","1","0","",""
"","feedback","","html-keyboard-response","525","516139","0.0-1.0-699.0-0.0","0","0","26537","","null","","","null","77","","","","","","","","","","","","","","","",""
"","time_out","","html-keyboard-response","526","518141","0.0-1.0-701.0-0.0","0","0","26537","","null","","","null","77","","","","","","","","","","","","","","","",""
"","ITI","","html-keyboard-response","527","519151","0.0-1.0-702.0","0","0","26537","","null","","","null","77","","","","","","","","","","","","","","","NaN",""
"","S1","","html-keyboard-response","528","519403","0.0-1.0-704.0","0","0","26537","","null","","","null","78","","","","","","","","","","","","","","","",""
"","ISI","","html-keyboard-response","529","519905","0.0-1.0-705.0","0","0","26537","","null","","","null","78","NaN","","","","","","","","","","","","","","",""
"","S2","","html-keyboard-response","530","520158","0.0-1.0-706.0","0","0","26537","","null","","","null","78","","NaN","","","","","","","","","","","","","",""
"","response","","html-keyboard-response","531","520773","0.0-1.0-707.0-0.0","0","0","26537","","614","","","68","78","","","2","78","training","adjacent","FE","6","5","Q.jpg","N.jpg","0","0","1","",""
"","feedback","","html-keyboard-response","532","521775","0.0-1.0-708.0-0.0","0","0","26537","","null","","","null","78","","","","","","","","","","","","","","","",""
"","ITI","","html-keyboard-response","533","522777","0.0-1.0-711.0","0","0","26537","","null","","","null","78","","","","","","","","","","","","","","","NaN",""
"","S1","","html-keyboard-response","534","523029","0.0-1.0-713.0","0","0","26537","","null","","","null","79","","","","","","","","","","","","","","","",""
"","ISI","","html-keyboard-response","535","523533","0.0-1.0-714.0","0","0","26537","","null","","","null","79","NaN","","","","","","","","","","","","","","",""
"","S2","","html-keyboard-response","536","523786","0.0-1.0-715.0","0","0","26537","","null","","","null","79","","NaN","","","","","","","","","","","","","",""
"","response","","html-keyboard-response","537","524580","0.0-1.0-716.0-0.0","0","0","26537","","793","","","68","79","","","2","79","training","adjacent","BC","2","3","M.jpg","L.jpg","0","1","0","",""
"","feedback","","html-keyboard-response","538","525583","0.0-1.0-717.0-0.0","0","0","26537","","null","","","null","79","","","","","","","","","","","","","","","",""
"","time_out","","html-keyboard-response","539","527587","0.0-1.0-719.0-0.0","0","0","26537","","null","","","null","79","","","","","","","","","","","","","","","",""
"","ITI","","html-keyboard-response","540","528591","0.0-1.0-720.0","0","0","26537","","null","","","null","79","","","","","","","","","","","","","","","NaN",""
"","S1","","html-keyboard-response","541","528844","0.0-1.0-722.0","0","0","26537","","null","","","null","80","","","","","","","","","","","","","","","",""
"","ISI","","html-keyboard-response","542","529347","0.0-1.0-723.0","0","0","26537","","null","","","null","80","NaN","","","","","","","","","","","","","","",""
"","S2","","html-keyboard-response","543","529602","0.0-1.0-724.0","0","0","26537","","null","","","null","80","","NaN","","","","","","","","","","","","","",""
"","response","","html-keyboard-response","544","529970","0.0-1.0-725.0-0.0","0","0","26537","","368","","","75","80","","","2","80","training","adjacent","AB","1","2","O.jpg","M.jpg","1","1","1","",""
"","feedback","","html-keyboard-response","545","530974","0.0-1.0-726.0-0.0","0","0","26537","","null","","","null","80","","","","","","","","","","","","","","","",""
"","ITI","","html-keyboard-response","546","531977","0.0-1.0-729.0","0","0","26537","","null","","","null","80","","","","","","","","","","","","","","","NaN",""
"","S1","","html-keyboard-response","547","532230","0.0-1.0-731.0","0","0","26537","","null","","","null","81","","","","","","","","","","","","","","","",""
"","ISI","","html-keyboard-response","548","532733","0.0-1.0-732.0","0","0","26537","","null","","","null","81","NaN","","","","","","","","","","","","","","",""
"","S2","","html-keyboard-response","549","532986","0.0-1.0-733.0","0","0","26537","","null","","","null","81","","NaN","","","","","","","","","","","","","",""
"","response","","html-keyboard-response","550","533761","0.0-1.0-734.0-0.0","0","0","26537","","772","","","68","81","","","2","81","training","adjacent","BC","2","3","M.jpg","L.jpg","0","1","0","",""
"","feedback","","html-keyboard-response","551","534765","0.0-1.0-735.0-0.0","0","0","26537","","null","","","null","81","","","","","","","","","","","","","","","",""
"","time_out","","html-keyboard-response","552","536768","0.0-1.0-737.0-0.0","0","0","26537","","null","","","null","81","","","","","","","","","","","","","","","",""
"","ITI","","html-keyboard-response","553","537771","0.0-1.0-738.0","0","0","26537","","null","","","null","81","","","","","","","","","","","","","","","NaN",""
"","S1","","html-keyboard-response","554","538024","0.0-1.0-740.0","0","0","26537","","null","","","null","82","","","","","","","","","","","","","","","",""
"","ISI","","html-keyboard-response","555","538539","0.0-1.0-741.0","0","0","26537","","null","","","null","82","NaN","","","","","","","","","","","","","","",""
"","S2","","html-keyboard-response","556","538792","0.0-1.0-742.0","0","0","26537","","null","","","null","82","","NaN","","","","","","","","","","","","","",""
"","response","","html-keyboard-response","557","539162","0.0-1.0-743.0-0.0","0","0","26537","","369","","","75","82","","","2","82","training","adjacent","BA","2","1","M.jpg","O.jpg","1","0","0","",""
"","feedback","","html-keyboard-response","558","540165","0.0-1.0-744.0-0.0","0","0","26537","","null","","","null","82","","","","","","","","","","","","","","","",""
"","time_out","","html-keyboard-response","559","542180","0.0-1.0-746.0-0.0","0","0","26537","","null","","","null","82","","","","","","","","","","","","","","","",""
"","ITI","","html-keyboard-response","560","543184","0.0-1.0-747.0","0","0","26537","","null","","","null","82","","","","","","","","","","","","","","","NaN",""
"","S1","","html-keyboard-response","561","543438","0.0-1.0-749.0","0","0","26537","","null","","","null","83","","","","","","","","","","","","","","","",""
"","ISI","","html-keyboard-response","562","543942","0.0-1.0-750.0","0","0","26537","","null","","","null","83","NaN","","","","","","","","","","","","","","",""
"","S2","","html-keyboard-response","563","544196","0.0-1.0-751.0","0","0","26537","","null","","","null","83","","NaN","","","","","","","","","","","","","",""
"","response","","html-keyboard-response","564","544606","0.0-1.0-752.0-0.0","0","0","26537","","408","","","75","83","","","2","83","training","adjacent","BA","2","1","M.jpg","O.jpg","1","0","0","",""
"","feedback","","html-keyboard-response","565","545611","0.0-1.0-753.0-0.0","0","0","26537","","null","","","null","83","","","","","","","","","","","","","","","",""
"","time_out","","html-keyboard-response","566","547614","0.0-1.0-755.0-0.0","0","0","26537","","null","","","null","83","","","","","","","","","","","","","","","",""
"","ITI","","html-keyboard-response","567","548617","0.0-1.0-756.0","0","0","26537","","null","","","null","83","","","","","","","","","","","","","","","NaN",""
"","S1","","html-keyboard-response","568","548871","0.0-1.0-758.0","0","0","26537","","null","","","null","84","","","","","","","","","","","","","","","",""
"","ISI","","html-keyboard-response","569","549373","0.0-1.0-759.0","0","0","26537","","null","","","null","84","NaN","","","","","","","","","","","","","","",""
"","S2","","html-keyboard-response","570","549628","0.0-1.0-760.0","0","0","26537","","null","","","null","84","","NaN","","","","","","","","","","","","","",""
"","response","","html-keyboard-response","571","549790","0.0-1.0-761.0-0.0","0","0","26537","","161","","","75","84","","","2","84","training","adjacent","CD","3","4","L.jpg","R.jpg","1","1","1","",""
"","feedback","","html-keyboard-response","572","550793","0.0-1.0-762.0-0.0","0","0","26537","","null","","","null","84","","","","","","","","","","","","","","","",""
"","ITI","","html-keyboard-response","573","551797","0.0-1.0-765.0","0","0","26537","","null","","","null","84","","","","","","","","","","","","","","","NaN",""
"","S1","","html-keyboard-response","574","552050","0.0-1.0-767.0","0","0","26537","","null","","","null","85","","","","","","","","","","","","","","","",""
"","ISI","","html-keyboard-response","575","552554","0.0-1.0-768.0","0","0","26537","","null","","","null","85","NaN","","","","","","","","","","","","","","",""
"","S2","","html-keyboard-response","576","552808","0.0-1.0-769.0","0","0","26537","","null","","","null","85","","NaN","","","","","","","","","","","","","",""
"","response","","html-keyboard-response","577","553580","0.0-1.0-770.0-0.0","0","0","26537","","770","","","68","85","","","2","85","training","adjacent","BA","2","1","M.jpg","O.jpg","0","0","1","",""
"","feedback","","html-keyboard-response","578","554584","0.0-1.0-771.0-0.0","0","0","26537","","null","","","null","85","","","","","","","","","","","","","","","",""
