"success","ttype","start_time","trial_type","trial_index","time_elapsed","internal_node_id","warning","missed_checkup","PID","view_history","rt","responses","repeat_instructions","key_press","index","keypress_isi","keypress_S2","block","trial_num","phase","group_type","pair_type","S1_stim","S2_stim","S1_img","S2_img","S1_chosen","S1_higher","accuracy","keypress_iti","total_bonus_tally"
"true","full_screen","d03082023hr1631","fullscreen","0","14090","0.0-0.0","0","0","75693","","","","","","","","","","","","","","","","","","","","","",""
"","instructions","","instructions","1","42617","0.0-1.0-0.0-0.0","0","0","75693","[{""page_index"":0,""viewing_time"":4405},{""page_index"":1,""viewing_time"":6636},{""page_index"":2,""viewing_time"":4489},{""page_index"":3,""viewing_time"":12993}]","28524","","","","","","","","","","","","","","","","","","","",""
"","comprehension_check","","survey-multi-choice","2","71043","0.0-1.0-0.0-1.0","0","0","75693","","28422","{""Q0"":""True"",""Q1"":""D"",""Q2"":""Only when the screen 'MAKE A CHOICE' is shown"",""Q3"":""Green mark"",""Q4"":""either D or K""}","1","","","","","","","","","","","","","","","","","",""
"","missed_instruction_checkup","","html-keyboard-response","3","75836","0.0-1.0-0.0-2.0-0.0","0","1","75693","","4790","","","32","","","","","","","","","","","","","","","","",""
"","instructions","","instructions","4","137587","0.0-1.0-0.1-0.1","0","0","75693","[{""page_index"":0,""viewing_time"":10415},{""page_index"":1,""viewing_time"":25821},{""page_index"":2,""viewing_time"":4940},{""page_index"":3,""viewing_time"":20573}]","61749","","","","","","","","","","","","","","","","","","","",""
"","comprehension_check","","survey-multi-choice","5","157194","0.0-1.0-0.1-1.1","0","0","75693","","19604","{""Q0"":""True"",""Q1"":""K"",""Q2"":""Once the second image appears and while the screen 'MAKE A CHOICE' is shown"",""Q3"":""Green mark"",""Q4"":""either D or K""}","0","","","","","","","","","","","","","","","","","",""
"","start_exp","","html-keyboard-response","6","160132","0.0-1.0-1.0","0","0","75693","","2937","","","32","","","","","","","","","","","","","","","","",""
"","S1","","html-keyboard-response","7","160388","0.0-1.0-2.0","0","0","75693","","null","","","null","0","","","","","","","","","","","","","","","",""
"","ISI","","html-keyboard-response","8","160546","0.0-1.0-3.0","0","0","75693","","null","","","null","0","NaN","","","","","","","","","","","","","","",""
"","S2","","html-keyboard-response","9","160813","0.0-1.0-4.0","0","0","75693","","null","","","null","0","","NaN","","","","","","","","","","","","","",""
"","response","","html-keyboard-response","10","162570","0.0-1.0-5.0-0.0","0","0","75693","","null","","","null","0","","","1","0","training","adjacent","EF","5","6","P.jpg","M.jpg","NaN","1","0","",""
"","too_slow_prompt","","html-keyboard-response","11","163578","0.0-1.0-7.0-0.0","1","0","75693","","null","","","null","","","","","","","","","","","","","","","","",""
"","time_out","","html-keyboard-response","12","165587","0.0-1.0-8.0-0.0","0","0","75693","","null","","","null","0","","","","","","","","","","","","","","","",""
"","ITI","","html-keyboard-response","13","166594","0.0-1.0-9.0","0","0","75693","","null","","","null","0","","","","","","","","","","","","","","","NaN",""
"","S1","","html-keyboard-response","14","166849","0.0-1.0-11.0","0","0","75693","","null","","","null","1","","","","","","","","","","","","","","","",""
"","ISI","","html-keyboard-response","15","167001","0.0-1.0-12.0","0","0","75693","","61","","","32","1","space","","","","","","","","","","","","","","",""
"","S2","","html-keyboard-response","16","167264","0.0-1.0-13.0","0","0","75693","","null","","","null","1","","NaN","","","","","","","","","","","","","",""
"","response","","html-keyboard-response","17","169017","0.0-1.0-14.0-0.0","0","0","75693","","null","","","null","1","","","1","1","training","adjacent","DC","4","3","L.jpg","N.jpg","NaN","0","0","",""
"","too_slow_prompt","","html-keyboard-response","18","170026","0.0-1.0-16.0-0.0","1","0","75693","","null","","","null","","","","","","","","","","","","","","","","",""
"","time_out","","html-keyboard-response","19","172033","0.0-1.0-17.0-0.0","0","0","75693","","null","","","null","1","","","","","","","","","","","","","","","",""
"","ITI","","html-keyboard-response","20","173043","0.0-1.0-18.0","0","0","75693","","null","","","null","1","","","","","","","","","","","","","","","NaN",""
"","S1","","html-keyboard-response","21","173298","0.0-1.0-20.0","0","0","75693","","null","","","null","2","","","","","","","","","","","","","","","",""
"","ISI","","html-keyboard-response","22","173450","0.0-1.0-21.0","0","0","75693","","null","","","null","2","NaN","","","","","","","","","","","","","","",""
"","S2","","html-keyboard-response","23","173704","0.0-1.0-22.0","0","0","75693","","null","","","null","2","","NaN","","","","","","","","","","","","","",""
"","response","","html-keyboard-response","24","175457","0.0-1.0-23.0-0.0","0","0","75693","","null","","","null","2","","","1","2","training","adjacent","BC","2","3","Q.jpg","N.jpg","NaN","1","0","",""
"","too_slow_prompt","","html-keyboard-response","25","176465","0.0-1.0-25.0-0.0","1","0","75693","","null","","","null","","","","","","","","","","","","","","","","",""
"","time_out","","html-keyboard-response","26","178473","0.0-1.0-26.0-0.0","0","0","75693","","null","","","null","2","","","","","","","","","","","","","","","",""
"","ITI","","html-keyboard-response","27","179498","0.0-1.0-27.0","0","0","75693","","null","","","null","2","","","","","","","","","","","","","","","NaN",""
"","S1","","html-keyboard-response","28","179753","0.0-1.0-29.0","0","0","75693","","null","","","null","3","","","","","","","","","","","","","","","",""
"","ISI","","html-keyboard-response","29","179905","0.0-1.0-30.0","0","0","75693","","null","","","null","3","NaN","","","","","","","","","","","","","","",""
"","S2","","html-keyboard-response","30","180162","0.0-1.0-31.0","0","0","75693","","null","","","null","3","","NaN","","","","","","","","","","","","","",""
"","response","","html-keyboard-response","31","181914","0.0-1.0-32.0-0.0","0","0","75693","","null","","","null","3","","","1","3","training","adjacent","FG","6","7","M.jpg","R.jpg","NaN","1","0","",""
"","too_slow_prompt","","html-keyboard-response","32","182922","0.0-1.0-34.0-0.0","1","0","75693","","null","","","null","","","","","","","","","","","","","","","","",""
"","time_out","","html-keyboard-response","33","184929","0.0-1.0-35.0-0.0","0","0","75693","","null","","","null","3","","","","","","","","","","","","","","","",""
"","ITI","","html-keyboard-response","34","185938","0.0-1.0-36.0","0","0","75693","","null","","","null","3","","","","","","","","","","","","","","","NaN",""
"","S1","","html-keyboard-response","35","186193","0.0-1.0-38.0","0","0","75693","","null","","","null","4","","","","","","","","","","","","","","","",""
"","ISI","","html-keyboard-response","36","186344","0.0-1.0-39.0","0","0","75693","","null","","","null","4","NaN","","","","","","","","","","","","","","",""
"","S2","","html-keyboard-response","37","186601","0.0-1.0-40.0","0","0","75693","","null","","","null","4","","NaN","","","","","","","","","","","","","",""
"","response","","html-keyboard-response","38","188371","0.0-1.0-41.0-0.0","0","0","75693","","null","","","null","4","","","1","4","training","adjacent","EF","5","6","P.jpg","M.jpg","NaN","1","0","",""
"","too_slow_prompt","","html-keyboard-response","39","189401","0.0-1.0-43.0-0.0","1","0","75693","","null","","","null","","","","","","","","","","","","","","","","",""
"","time_out","","html-keyboard-response","40","191408","0.0-1.0-44.0-0.0","0","0","75693","","null","","","null","4","","","","","","","","","","","","","","","",""
"","ITI","","html-keyboard-response","41","192416","0.0-1.0-45.0","0","0","75693","","427","","","32","4","","","","","","","","","","","","","","","space",""
"","S1","","html-keyboard-response","42","192673","0.0-1.0-47.0","0","0","75693","","null","","","null","5","","","","","","","","","","","","","","","",""
"","ISI","","html-keyboard-response","43","192824","0.0-1.0-48.0","0","0","75693","","null","","","null","5","NaN","","","","","","","","","","","","","","",""
"","S2","","html-keyboard-response","44","193080","0.0-1.0-49.0","0","0","75693","","null","","","null","5","","NaN","","","","","","","","","","","","","",""
"","response","","html-keyboard-response","45","194833","0.0-1.0-50.0-0.0","0","0","75693","","null","","","null","5","","","1","5","training","adjacent","AB","1","2","O.jpg","Q.jpg","NaN","1","0","",""
"","too_slow_prompt","","html-keyboard-response","46","195837","0.0-1.0-52.0-0.0","1","0","75693","","null","","","null","","","","","","","","","","","","","","","","",""
"","time_out","","html-keyboard-response","47","197841","0.0-1.0-53.0-0.0","0","0","75693","","null","","","null","5","","","","","","","","","","","","","","","",""
"","ITI","","html-keyboard-response","48","198848","0.0-1.0-54.0","0","0","75693","","null","","","null","5","","","","","","","","","","","","","","","NaN",""
"","S1","","html-keyboard-response","49","199106","0.0-1.0-56.0","0","0","75693","","null","","","null","6","","","","","","","","","","","","","","","",""
"","ISI","","html-keyboard-response","50","199258","0.0-1.0-57.0","0","0","75693","","null","","","null","6","NaN","","","","","","","","","","","","","","",""
"","S2","","html-keyboard-response","51","199512","0.0-1.0-58.0","0","0","75693","","null","","","null","6","","NaN","","","","","","","","","","","","","",""
"","response","","html-keyboard-response","52","201264","0.0-1.0-59.0-0.0","0","0","75693","","null","","","null","6","","","1","6","training","adjacent","CD","3","4","N.jpg","L.jpg","NaN","1","0","",""
"","too_slow_prompt","","html-keyboard-response","53","202274","0.0-1.0-61.0-0.0","1","0","75693","","null","","","null","","","","","","","","","","","","","","","","",""
"","time_out","","html-keyboard-response","54","204281","0.0-1.0-62.0-0.0","0","0","75693","","null","","","null","6","","","","","","","","","","","","","","","",""
"","ITI","","html-keyboard-response","55","205289","0.0-1.0-63.0","0","0","75693","","225","","","32","6","","","","","","","","","","","","","","","space",""
"","S1","","html-keyboard-response","56","205546","0.0-1.0-65.0","0","0","75693","","null","","","null","7","","","","","","","","","","","","","","","",""
"","ISI","","html-keyboard-response","57","205697","0.0-1.0-66.0","0","0","75693","","46","","","32","7","space","","","","","","","","","","","","","","",""
"","S2","","html-keyboard-response","58","205953","0.0-1.0-67.0","0","0","75693","","null","","","null","7","","NaN","","","","","","","","","","","","","",""
"","response","","html-keyboard-response","59","207704","0.0-1.0-68.0-0.0","0","0","75693","","null","","","null","7","","","1","7","training","adjacent","FG","6","7","M.jpg","R.jpg","NaN","1","0","",""
"","too_slow_prompt","","html-keyboard-response","60","208707","0.0-1.0-70.0-0.0","1","0","75693","","null","","","null","","","","","","","","","","","","","","","","",""
"","time_out","","html-keyboard-response","61","210712","0.0-1.0-71.0-0.0","0","0","75693","","null","","","null","7","","","","","","","","","","","","","","","",""
"","ITI","","html-keyboard-response","62","211720","0.0-1.0-72.0","0","0","75693","","null","","","null","7","","","","","","","","","","","","","","","NaN",""
"","S1","","html-keyboard-response","63","212003","0.0-1.0-74.0","0","0","75693","","null","","","null","8","","","","","","","","","","","","","","","",""
"","ISI","","html-keyboard-response","64","212162","0.0-1.0-75.0","0","0","75693","","null","","","null","8","NaN","","","","","","","","","","","","","","",""
"","S2","","html-keyboard-response","65","212417","0.0-1.0-76.0","0","0","75693","","null","","","null","8","","NaN","","","","","","","","","","","","","",""
"","response","","html-keyboard-response","66","214169","0.0-1.0-77.0-0.0","0","0","75693","","null","","","null","8","","","1","8","training","adjacent","FG","6","7","M.jpg","R.jpg","NaN","1","0","",""
"","too_slow_prompt","","html-keyboard-response","67","215177","0.0-1.0-79.0-0.0","1","0","75693","","null","","","null","","","","","","","","","","","","","","","","",""
"","time_out","","html-keyboard-response","68","217185","0.0-1.0-80.0-0.0","0","0","75693","","null","","","null","8","","","","","","","","","","","","","","","",""
"","ITI","","html-keyboard-response","69","218194","0.0-1.0-81.0","0","0","75693","","339","","","32","8","","","","","","","","","","","","","","","space",""
"","S1","","html-keyboard-response","70","218450","0.0-1.0-83.0","0","0","75693","","null","","","null","9","","","","","","","","","","","","","","","",""
"","ISI","","html-keyboard-response","71","218612","0.0-1.0-84.0","0","0","75693","","32","","","32","9","space","","","","","","","","","","","","","","",""
"","S2","","html-keyboard-response","72","218866","0.0-1.0-85.0","0","0","75693","","null","","","null","9","","NaN","","","","","","","","","","","","","",""
"","response","","html-keyboard-response","73","220617","0.0-1.0-86.0-0.0","0","0","75693","","null","","","null","9","","","1","9","training","adjacent","BA","2","1","Q.jpg","O.jpg","NaN","0","0","",""
"","too_slow_prompt","","html-keyboard-response","74","221625","0.0-1.0-88.0-0.0","1","0","75693","","null","","","null","","","","","","","","","","","","","","","","",""
"","time_out","","html-keyboard-response","75","223632","0.0-1.0-89.0-0.0","0","0","75693","","null","","","null","9","","","","","","","","","","","","","","","",""
"","ITI","","html-keyboard-response","76","224642","0.0-1.0-90.0","0","0","75693","","null","","","null","9","","","","","","","","","","","","","","","NaN",""
"","S1","","html-keyboard-response","77","224896","0.0-1.0-92.0","0","0","75693","","null","","","null","10","","","","","","","","","","","","","","","",""
"","ISI","","html-keyboard-response","78","225049","0.0-1.0-93.0","0","0","75693","","null","","","null","10","NaN","","","","","","","","","","","","","","",""
"","S2","","html-keyboard-response","79","225306","0.0-1.0-94.0","0","0","75693","","null","","","null","10","","NaN","","","","","","","","","","","","","",""
"","response","","html-keyboard-response","80","227058","0.0-1.0-95.0-0.0","0","0","75693","","null","","","null","10","","","1","10","training","adjacent","GF","7","6","R.jpg","M.jpg","NaN","0","0","",""
"","too_slow_prompt","","html-keyboard-response","81","228066","0.0-1.0-97.0-0.0","1","0","75693","","null","","","null","","","","","","","","","","","","","","","","",""
"","time_out","","html-keyboard-response","82","230073","0.0-1.0-98.0-0.0","0","0","75693","","null","","","null","10","","","","","","","","","","","","","","","",""
"","ITI","","html-keyboard-response","83","231081","0.0-1.0-99.0","0","0","75693","","140","","","32","10","","","","","","","","","","","","","","","space",""
"","S1","","html-keyboard-response","84","231336","0.0-1.0-101.0","0","0","75693","","null","","","null","11","","","","","","","","","","","","","","","",""
"","ISI","","html-keyboard-response","85","231488","0.0-1.0-102.0","0","0","75693","","127","","","32","11","space","","","","","","","","","","","","","","",""
"","S2","","html-keyboard-response","86","231746","0.0-1.0-103.0","0","0","75693","","null","","","null","11","","NaN","","","","","","","","","","","","","",""
"","response","","html-keyboard-response","87","233499","0.0-1.0-104.0-0.0","0","0","75693","","null","","","null","11","","","1","11","training","adjacent","ED","5","4","P.jpg","L.jpg","NaN","0","0","",""
"","too_slow_prompt","","html-keyboard-response","88","234507","0.0-1.0-106.0-0.0","1","0","75693","","null","","","null","","","","","","","","","","","","","","","","",""
"","time_out","","html-keyboard-response","89","236513","0.0-1.0-107.0-0.0","0","0","75693","","null","","","null","11","","","","","","","","","","","","","","","",""
"","ITI","","html-keyboard-response","90","237515","0.0-1.0-108.0","0","0","75693","","88","","","32","11","","","","","","","","","","","","","","","space",""
"","S1","","html-keyboard-response","91","237771","0.0-1.0-110.0","0","0","75693","","null","","","null","12","","","","","","","","","","","","","","","",""
"","ISI","","html-keyboard-response","92","237921","0.0-1.0-111.0","0","0","75693","","null","","","null","12","NaN","","","","","","","","","","","","","","",""
"","S2","","html-keyboard-response","93","238178","0.0-1.0-112.0","0","0","75693","","null","","","null","12","","NaN","","","","","","","","","","","","","",""
"","response","","html-keyboard-response","94","239931","0.0-1.0-113.0-0.0","0","0","75693","","null","","","null","12","","","1","12","training","adjacent","EF","5","6","P.jpg","M.jpg","NaN","1","0","",""
"","too_slow_prompt","","html-keyboard-response","95","240939","0.0-1.0-115.0-0.0","1","0","75693","","null","","","null","","","","","","","","","","","","","","","","",""
"","time_out","","html-keyboard-response","96","242946","0.0-1.0-116.0-0.0","0","0","75693","","null","","","null","12","","","","","","","","","","","","","","","",""
"","ITI","","html-keyboard-response","97","243953","0.0-1.0-117.0","0","0","75693","","null","","","null","12","","","","","","","","","","","","","","","NaN",""
"","S1","","html-keyboard-response","98","244210","0.0-1.0-119.0","0","0","75693","","null","","","null","13","","","","","","","","","","","","","","","",""
"","ISI","","html-keyboard-response","99","244362","0.0-1.0-120.0","0","0","75693","","null","","","null","13","NaN","","","","","","","","","","","","","","",""
"","S2","","html-keyboard-response","100","244618","0.0-1.0-121.0","0","0","75693","","null","","","null","13","","NaN","","","","","","","","","","","","","",""
"","response","","html-keyboard-response","101","246370","0.0-1.0-122.0-0.0","0","0","75693","","null","","","null","13","","","1","13","training","adjacent","FE","6","5","M.jpg","P.jpg","NaN","0","0","",""
"","too_slow_prompt","","html-keyboard-response","102","247378","0.0-1.0-124.0-0.0","1","0","75693","","null","","","null","","","","","","","","","","","","","","","","",""
"","time_out","","html-keyboard-response","103","249386","0.0-1.0-125.0-0.0","0","0","75693","","null","","","null","13","","","","","","","","","","","","","","","",""
"","ITI","","html-keyboard-response","104","250389","0.0-1.0-126.0","0","0","75693","","356","","","32","13","","","","","","","","","","","","","","","space",""
"","S1","","html-keyboard-response","105","250650","0.0-1.0-128.0","0","0","75693","","null","","","null","14","","","","","","","","","","","","","","","",""
"","ISI","","html-keyboard-response","106","250817","0.0-1.0-129.0","0","0","75693","","null","","","null","14","NaN","","","","","","","","","","","","","","",""
"","S2","","html-keyboard-response","107","251074","0.0-1.0-130.0","0","0","75693","","null","","","null","14","","NaN","","","","","","","","","","","","","",""
"","response","","html-keyboard-response","108","252827","0.0-1.0-131.0-0.0","0","0","75693","","null","","","null","14","","","1","14","training","adjacent","BA","2","1","Q.jpg","O.jpg","NaN","0","0","",""
"","too_slow_prompt","","html-keyboard-response","109","253835","0.0-1.0-133.0-0.0","1","0","75693","","null","","","null","","","","","","","","","","","","","","","","",""
"","time_out","","html-keyboard-response","110","255841","0.0-1.0-134.0-0.0","0","0","75693","","null","","","null","14","","","","","","","","","","","","","","","",""
"","ITI","","html-keyboard-response","111","256850","0.0-1.0-135.0","0","0","75693","","371","","","32","14","","","","","","","","","","","","","","","space",""
"","S1","","html-keyboard-response","112","257120","0.0-1.0-137.0","0","0","75693","","null","","","null","15","","","","","","","","","","","","","","","",""
"","ISI","","html-keyboard-response","113","257274","0.0-1.0-138.0","0","0","75693","","null","","","null","15","NaN","","","","","","","","","","","","","","",""
"","S2","","html-keyboard-response","114","257530","0.0-1.0-139.0","0","0","75693","","null","","","null","15","","NaN","","","","","","","","","","","","","",""
"","response","","html-keyboard-response","115","259289","0.0-1.0-140.0-0.0","0","0","75693","","null","","","null","15","","","1","15","training","adjacent","AB","1","2","O.jpg","Q.jpg","NaN","1","0","",""
"","too_slow_prompt","","html-keyboard-response","116","260289","0.0-1.0-142.0-0.0","1","0","75693","","null","","","null","","","","","","","","","","","","","","","","",""
"","time_out","","html-keyboard-response","117","262298","0.0-1.0-143.0-0.0","0","0","75693","","null","","","null","15","","","","","","","","","","","","","","","",""
"","ITI","","html-keyboard-response","118","263306","0.0-1.0-144.0","0","0","75693","","null","","","null","15","","","","","","","","","","","","","","","NaN",""
"","S1","","html-keyboard-response","119","263561","0.0-1.0-146.0","0","0","75693","","null","","","null","16","","","","","","","","","","","","","","","",""
"","ISI","","html-keyboard-response","120","263713","0.0-1.0-147.0","0","0","75693","","null","","","null","16","NaN","","","","","","","","","","","","","","",""
"","S2","","html-keyboard-response","121","263969","0.0-1.0-148.0","0","0","75693","","null","","","null","16","","NaN","","","","","","","","","","","","","",""
"","response","","html-keyboard-response","122","265723","0.0-1.0-149.0-0.0","0","0","75693","","null","","","null","16","","","1","16","training","adjacent","FE","6","5","M.jpg","P.jpg","NaN","0","0","",""
"","too_slow_prompt","","html-keyboard-response","123","266738","0.0-1.0-151.0-0.0","1","0","75693","","null","","","null","","","","","","","","","","","","","","","","",""
"","time_out","","html-keyboard-response","124","268746","0.0-1.0-152.0-0.0","0","0","75693","","null","","","null","16","","","","","","","","","","","","","","","",""
"","ITI","","html-keyboard-response","125","269754","0.0-1.0-153.0","0","0","75693","","null","","","null","16","","","","","","","","","","","","","","","NaN",""
"","S1","","html-keyboard-response","126","270011","0.0-1.0-155.0","0","0","75693","","null","","","null","17","","","","","","","","","","","","","","","",""
"","ISI","","html-keyboard-response","127","270161","0.0-1.0-156.0","0","0","75693","","null","","","null","17","NaN","","","","","","","","","","","","","","",""
"","S2","","html-keyboard-response","128","270419","0.0-1.0-157.0","0","0","75693","","null","","","null","17","","NaN","","","","","","","","","","","","","",""
"","response","","html-keyboard-response","129","272190","0.0-1.0-158.0-0.0","0","0","75693","","null","","","null","17","","","1","17","training","adjacent","FE","6","5","M.jpg","P.jpg","NaN","0","0","",""
"","too_slow_prompt","","html-keyboard-response","130","273194","0.0-1.0-160.0-0.0","1","0","75693","","null","","","null","","","","","","","","","","","","","","","","",""
"","time_out","","html-keyboard-response","131","275203","0.0-1.0-161.0-0.0","0","0","75693","","null","","","null","17","","","","","","","","","","","","","","","",""
"","ITI","","html-keyboard-response","132","276211","0.0-1.0-162.0","0","0","75693","","null","","","null","17","","","","","","","","","","","","","","","NaN",""
"","S1","","html-keyboard-response","133","276467","0.0-1.0-164.0","0","0","75693","","null","","","null","18","","","","","","","","","","","","","","","",""
"","ISI","","html-keyboard-response","134","276619","0.0-1.0-165.0","0","0","75693","","40","","","32","18","space","","","","","","","","","","","","","","",""
"","S2","","html-keyboard-response","135","276873","0.0-1.0-166.0","0","0","75693","","null","","","null","18","","NaN","","","","","","","","","","","","","",""
"","response","","html-keyboard-response","136","278637","0.0-1.0-167.0-0.0","0","0","75693","","null","","","null","18","","","1","18","training","adjacent","FG","6","7","M.jpg","R.jpg","NaN","1","0","",""
"","too_slow_prompt","","html-keyboard-response","137","279643","0.0-1.0-169.0-0.0","1","0","75693","","null","","","null","","","","","","","","","","","","","","","","",""
"","time_out","","html-keyboard-response","138","281653","0.0-1.0-170.0-0.0","0","0","75693","","null","","","null","18","","","","","","","","","","","","","","","",""
"","ITI","","html-keyboard-response","139","282658","0.0-1.0-171.0","0","0","75693","","null","","","null","18","","","","","","","","","","","","","","","NaN",""
"","S1","","html-keyboard-response","140","282923","0.0-1.0-173.0","0","0","75693","","null","","","null","19","","","","","","","","","","","","","","","",""
"","ISI","","html-keyboard-response","141","283082","0.0-1.0-174.0","0","0","75693","","null","","","null","19","NaN","","","","","","","","","","","","","","",""
"","S2","","html-keyboard-response","142","283339","0.0-1.0-175.0","0","0","75693","","null","","","null","19","","NaN","","","","","","","","","","","","","",""
"","response","","html-keyboard-response","143","285090","0.0-1.0-176.0-0.0","0","0","75693","","null","","","null","19","","","1","19","training","adjacent","CD","3","4","N.jpg","L.jpg","NaN","1","0","",""
"","too_slow_prompt","","html-keyboard-response","144","286099","0.0-1.0-178.0-0.0","1","0","75693","","null","","","null","","","","","","","","","","","","","","","","",""
"","time_out","","html-keyboard-response","145","288106","0.0-1.0-179.0-0.0","0","0","75693","","null","","","null","19","","","","","","","","","","","","","","","",""
"","ITI","","html-keyboard-response","146","289113","0.0-1.0-180.0","0","0","75693","","null","","","null","19","","","","","","","","","","","","","","","NaN",""
"","S1","","html-keyboard-response","147","289369","0.0-1.0-182.0","0","0","75693","","null","","","null","20","","","","","","","","","","","","","","","",""
"","ISI","","html-keyboard-response","148","289522","0.0-1.0-183.0","0","0","75693","","null","","","null","20","NaN","","","","","","","","","","","","","","",""
"","S2","","html-keyboard-response","149","289778","0.0-1.0-184.0","0","0","75693","","null","","","null","20","","NaN","","","","","","","","","","","","","",""
"","response","","html-keyboard-response","150","291531","0.0-1.0-185.0-0.0","0","0","75693","","null","","","null","20","","","1","20","training","adjacent","BA","2","1","Q.jpg","O.jpg","NaN","0","0","",""
"","too_slow_prompt","","html-keyboard-response","151","292537","0.0-1.0-187.0-0.0","1","0","75693","","null","","","null","","","","","","","","","","","","","","","","",""
"","time_out","","html-keyboard-response","152","294545","0.0-1.0-188.0-0.0","0","0","75693","","null","","","null","20","","","","","","","","","","","","","","","",""
"","ITI","","html-keyboard-response","153","295554","0.0-1.0-189.0","0","0","75693","","263","","","32","20","","","","","","","","","","","","","","","space",""
"","S1","","html-keyboard-response","154","295808","0.0-1.0-191.0","0","0","75693","","null","","","null","21","","","","","","","","","","","","","","","",""
"","ISI","","html-keyboard-response","155","295961","0.0-1.0-192.0","0","0","75693","","null","","","null","21","NaN","","","","","","","","","","","","","","",""
"","S2","","html-keyboard-response","156","296225","0.0-1.0-193.0","0","0","75693","","null","","","null","21","","NaN","","","","","","","","","","","","","",""
"","response","","html-keyboard-response","157","297985","0.0-1.0-194.0-0.0","0","0","75693","","null","","","null","21","","","1","21","training","adjacent","DE","4","5","L.jpg","P.jpg","NaN","1","0","",""
"","too_slow_prompt","","html-keyboard-response","158","298994","0.0-1.0-196.0-0.0","1","0","75693","","null","","","null","","","","","","","","","","","","","","","","",""
"","time_out","","html-keyboard-response","159","301001","0.0-1.0-197.0-0.0","0","0","75693","","null","","","null","21","","","","","","","","","","","","","","","",""
"","ITI","","html-keyboard-response","160","302003","0.0-1.0-198.0","0","0","75693","","231","","","32","21","","","","","","","","","","","","","","","space",""
"","S1","","html-keyboard-response","161","302258","0.0-1.0-200.0","0","0","75693","","null","","","null","22","","","","","","","","","","","","","","","",""
"","ISI","","html-keyboard-response","162","302409","0.0-1.0-201.0","0","0","75693","","null","","","null","22","NaN","","","","","","","","","","","","","","",""
"","S2","","html-keyboard-response","163","302667","0.0-1.0-202.0","0","0","75693","","null","","","null","22","","NaN","","","","","","","","","","","","","",""
"","response","","html-keyboard-response","164","304426","0.0-1.0-203.0-0.0","0","0","75693","","null","","","null","22","","","1","22","training","adjacent","DC","4","3","L.jpg","N.jpg","NaN","0","0","",""
"","too_slow_prompt","","html-keyboard-response","165","305430","0.0-1.0-205.0-0.0","1","0","75693","","null","","","null","","","","","","","","","","","","","","","","",""
"","time_out","","html-keyboard-response","166","307432","0.0-1.0-206.0-0.0","0","0","75693","","null","","","null","22","","","","","","","","","","","","","","","",""
"","ITI","","html-keyboard-response","167","308443","0.0-1.0-207.0","0","0","75693","","829","","","32","22","","","","","","","","","","","","","","","space",""
"","S1","","html-keyboard-response","168","308697","0.0-1.0-209.0","0","0","75693","","null","","","null","23","","","","","","","","","","","","","","","",""
"","ISI","","html-keyboard-response","169","308849","0.0-1.0-210.0","0","0","75693","","null","","","null","23","NaN","","","","","","","","","","","","","","",""
"","S2","","html-keyboard-response","170","309105","0.0-1.0-211.0","0","0","75693","","null","","","null","23","","NaN","","","","","","","","","","","","","",""
"","response","","html-keyboard-response","171","310857","0.0-1.0-212.0-0.0","0","0","75693","","null","","","null","23","","","1","23","training","adjacent","GF","7","6","R.jpg","M.jpg","NaN","0","0","",""
"","too_slow_prompt","","html-keyboard-response","172","311864","0.0-1.0-214.0-0.0","1","0","75693","","null","","","null","","","","","","","","","","","","","","","","",""
"","time_out","","html-keyboard-response","173","313874","0.0-1.0-215.0-0.0","0","0","75693","","null","","","null","23","","","","","","","","","","","","","","","",""
"","ITI","","html-keyboard-response","174","314880","0.0-1.0-216.0","0","0","75693","","49","","","32","23","","","","","","","","","","","","","","","space",""
"","S1","","html-keyboard-response","175","315137","0.0-1.0-218.0","0","0","75693","","null","","","null","24","","","","","","","","","","","","","","","",""
"","ISI","","html-keyboard-response","176","315288","0.0-1.0-219.0","0","0","75693","","74","","","32","24","space","","","","","","","","","","","","","","",""
"","S2","","html-keyboard-response","177","315545","0.0-1.0-220.0","0","0","75693","","null","","","null","24","","NaN","","","","","","","","","","","","","",""
"","response","","html-keyboard-response","178","317296","0.0-1.0-221.0-0.0","0","0","75693","","null","","","null","24","","","1","24","training","adjacent","CD","3","4","N.jpg","L.jpg","NaN","1","0","",""
"","too_slow_prompt","","html-keyboard-response","179","318305","0.0-1.0-223.0-0.0","1","0","75693","","null","","","null","","","","","","","","","","","","","","","","",""
"","time_out","","html-keyboard-response","180","320312","0.0-1.0-224.0-0.0","0","0","75693","","null","","","null","24","","","","","","","","","","","","","","","",""
"","ITI","","html-keyboard-response","181","321317","0.0-1.0-225.0","0","0","75693","","131","","","32","24","","","","","","","","","","","","","","","space",""
"","S1","","html-keyboard-response","182","321568","0.0-1.0-227.0","0","0","75693","","null","","","null","25","","","","","","","","","","","","","","","",""
"","ISI","","html-keyboard-response","183","321722","0.0-1.0-228.0","0","0","75693","","115","","","32","25","space","","","","","","","","","","","","","","",""
"","S2","","html-keyboard-response","184","321977","0.0-1.0-229.0","0","0","75693","","null","","","null","25","","NaN","","","","","","","","","","","","","",""
"","response","","html-keyboard-response","185","323730","0.0-1.0-230.0-0.0","0","0","75693","","null","","","null","25","","","1","25","training","adjacent","GF","7","6","R.jpg","M.jpg","NaN","0","0","",""
"","too_slow_prompt","","html-keyboard-response","186","324737","0.0-1.0-232.0-0.0","1","0","75693","","null","","","null","","","","","","","","","","","","","","","","",""
"","time_out","","html-keyboard-response","187","326746","0.0-1.0-233.0-0.0","0","0","75693","","null","","","null","25","","","","","","","","","","","","","","","",""
"","ITI","","html-keyboard-response","188","327753","0.0-1.0-234.0","0","0","75693","","288","","","32","25","","","","","","","","","","","","","","","space",""
"","S1","","html-keyboard-response","189","328009","0.0-1.0-236.0","0","0","75693","","null","","","null","26","","","","","","","","","","","","","","","",""
"","ISI","","html-keyboard-response","190","328162","0.0-1.0-237.0","0","0","75693","","52","","","32","26","space","","","","","","","","","","","","","","",""
"","S2","","html-keyboard-response","191","328432","0.0-1.0-238.0","0","0","75693","","null","","","null","26","","NaN","","","","","","","","","","","","","",""
"","response","","html-keyboard-response","192","330185","0.0-1.0-239.0-0.0","0","0","75693","","null","","","null","26","","","1","26","training","adjacent","ED","5","4","P.jpg","L.jpg","NaN","0","0","",""
"","too_slow_prompt","","html-keyboard-response","193","331193","0.0-1.0-241.0-0.0","1","0","75693","","null","","","null","","","","","","","","","","","","","","","","",""
"","time_out","","html-keyboard-response","194","333201","0.0-1.0-242.0-0.0","0","0","75693","","null","","","null","26","","","","","","","","","","","","","","","",""
"","ITI","","html-keyboard-response","195","334217","0.0-1.0-243.0","0","0","75693","","null","","","null","26","","","","","","","","","","","","","","","NaN",""
"","S1","","html-keyboard-response","196","334469","0.0-1.0-245.0","0","0","75693","","null","","","null","27","","","","","","","","","","","","","","","",""
"","ISI","","html-keyboard-response","197","334626","0.0-1.0-246.0","0","0","75693","","null","","","null","27","NaN","","","","","","","","","","","","","","",""
"","S2","","html-keyboard-response","198","334881","0.0-1.0-247.0","0","0","75693","","null","","","null","27","","NaN","","","","","","","","","","","","","",""
"","response","","html-keyboard-response","199","336633","0.0-1.0-248.0-0.0","0","0","75693","","null","","","null","27","","","1","27","training","adjacent","AB","1","2","O.jpg","Q.jpg","NaN","1","0","",""
"","too_slow_prompt","","html-keyboard-response","200","337643","0.0-1.0-250.0-0.0","1","0","75693","","null","","","null","","","","","","","","","","","","","","","","",""
"","time_out","","html-keyboard-response","201","339649","0.0-1.0-251.0-0.0","0","0","75693","","null","","","null","27","","","","","","","","","","","","","","","",""
"","ITI","","html-keyboard-response","202","340657","0.0-1.0-252.0","0","0","75693","","null","","","null","27","","","","","","","","","","","","","","","NaN",""
"","S1","","html-keyboard-response","203","340913","0.0-1.0-254.0","0","0","75693","","null","","","null","28","","","","","","","","","","","","","","","",""
"","ISI","","html-keyboard-response","204","341065","0.0-1.0-255.0","0","0","75693","","138","","","32","28","space","","","","","","","","","","","","","","",""
"","S2","","html-keyboard-response","205","341322","0.0-1.0-256.0","0","0","75693","","null","","","null","28","","NaN","","","","","","","","","","","","","",""
"","response","","html-keyboard-response","206","343093","0.0-1.0-257.0-0.0","0","0","75693","","null","","","null","28","","","1","28","training","adjacent","AB","1","2","O.jpg","Q.jpg","NaN","1","0","",""
"","too_slow_prompt","","html-keyboard-response","207","344129","0.0-1.0-259.0-0.0","1","0","75693","","null","","","null","","","","","","","","","","","","","","","","",""
"","time_out","","html-keyboard-response","208","346138","0.0-1.0-260.0-0.0","0","0","75693","","null","","","null","28","","","","","","","","","","","","","","","",""
"","ITI","","html-keyboard-response","209","347145","0.0-1.0-261.0","0","0","75693","","103","","","32","28","","","","","","","","","","","","","","","space",""
"","S1","","html-keyboard-response","210","347401","0.0-1.0-263.0","0","0","75693","","null","","","null","29","","","","","","","","","","","","","","","",""
"","ISI","","html-keyboard-response","211","347552","0.0-1.0-264.0","0","0","75693","","140","","","32","29","space","","","","","","","","","","","","","","",""
"","S2","","html-keyboard-response","212","347809","0.0-1.0-265.0","0","0","75693","","null","","","null","29","","NaN","","","","","","","","","","","","","",""
"","response","","html-keyboard-response","213","349561","0.0-1.0-266.0-0.0","0","0","75693","","null","","","null","29","","","1","29","training","adjacent","DE","4","5","L.jpg","P.jpg","NaN","1","0","",""
"","too_slow_prompt","","html-keyboard-response","214","350562","0.0-1.0-268.0-0.0","1","0","75693","","null","","","null","","","","","","","","","","","","","","","","",""
"","time_out","","html-keyboard-response","215","352569","0.0-1.0-269.0-0.0","0","0","75693","","null","","","null","29","","","","","","","","","","","","","","","",""
"","ITI","","html-keyboard-response","216","353577","0.0-1.0-270.0","0","0","75693","","35","","","32","29","","","","","","","","","","","","","","","space",""
"","S1","","html-keyboard-response","217","353832","0.0-1.0-272.0","0","0","75693","","null","","","null","30","","","","","","","","","","","","","","","",""
"","ISI","","html-keyboard-response","218","353985","0.0-1.0-273.0","0","0","75693","","null","","","null","30","NaN","","","","","","","","","","","","","","",""
"","S2","","html-keyboard-response","219","354241","0.0-1.0-274.0","0","0","75693","","null","","","null","30","","NaN","","","","","","","","","","","","","",""
"","response","","html-keyboard-response","220","355993","0.0-1.0-275.0-0.0","0","0","75693","","null","","","null","30","","","1","30","training","adjacent","FE","6","5","M.jpg","P.jpg","NaN","0","0","",""
"","too_slow_prompt","","html-keyboard-response","221","357002","0.0-1.0-277.0-0.0","1","0","75693","","null","","","null","","","","","","","","","","","","","","","","",""
"","time_out","","html-keyboard-response","222","359009","0.0-1.0-278.0-0.0","0","0","75693","","null","","","null","30","","","","","","","","","","","","","","","",""
"","ITI","","html-keyboard-response","223","360013","0.0-1.0-279.0","0","0","75693","","null","","","null","30","","","","","","","","","","","","","","","NaN",""
"","S1","","html-keyboard-response","224","360264","0.0-1.0-281.0","0","0","75693","","null","","","null","31","","","","","","","","","","","","","","","",""
"","ISI","","html-keyboard-response","225","360418","0.0-1.0-282.0","0","0","75693","","null","","","null","31","NaN","","","","","","","","","","","","","","",""
"","S2","","html-keyboard-response","226","360672","0.0-1.0-283.0","0","0","75693","","null","","","null","31","","NaN","","","","","","","","","","","","","",""
"","response","","html-keyboard-response","227","362425","0.0-1.0-284.0-0.0","0","0","75693","","null","","","null","31","","","1","31","training","adjacent","DE","4","5","L.jpg","P.jpg","NaN","1","0","",""
"","too_slow_prompt","","html-keyboard-response","228","363433","0.0-1.0-286.0-0.0","1","0","75693","","null","","","null","","","","","","","","","","","","","","","","",""
"","time_out","","html-keyboard-response","229","365440","0.0-1.0-287.0-0.0","0","0","75693","","null","","","null","31","","","","","","","","","","","","","","","",""
"","ITI","","html-keyboard-response","230","366450","0.0-1.0-288.0","0","0","75693","","null","","","null","31","","","","","","","","","","","","","","","NaN",""
"","S1","","html-keyboard-response","231","366703","0.0-1.0-290.0","0","0","75693","","null","","","null","32","","","","","","","","","","","","","","","",""
"","ISI","","html-keyboard-response","232","366857","0.0-1.0-291.0","0","0","75693","","null","","","null","32","NaN","","","","","","","","","","","","","","",""
"","S2","","html-keyboard-response","233","367114","0.0-1.0-292.0","0","0","75693","","null","","","null","32","","NaN","","","","","","","","","","","","","",""
"","response","","html-keyboard-response","234","368865","0.0-1.0-293.0-0.0","0","0","75693","","null","","","null","32","","","1","32","training","adjacent","BA","2","1","Q.jpg","O.jpg","NaN","0","0","",""
"","too_slow_prompt","","html-keyboard-response","235","369905","0.0-1.0-295.0-0.0","1","0","75693","","null","","","null","","","","","","","","","","","","","","","","",""
"","time_out","","html-keyboard-response","236","372810","0.0-1.0-296.0-0.0","0","0","75693","","null","","","null","32","","","","","","","","","","","","","","","",""
"","ITI","","html-keyboard-response","237","374821","0.0-1.0-297.0","0","0","75693","","null","","","null","32","","","","","","","","","","","","","","","NaN",""
"","S1","","html-keyboard-response","238","375800","0.0-1.0-299.0","0","0","75693","","null","","","null","33","","","","","","","","","","","","","","","",""
"","ISI","","html-keyboard-response","239","376800","0.0-1.0-300.0","0","0","75693","","null","","","null","33","NaN","","","","","","","","","","","","","","",""
"","S2","","html-keyboard-response","240","377057","0.0-1.0-301.0","0","0","75693","","null","","","null","33","","NaN","","","","","","","","","","","","","",""
"","response","","html-keyboard-response","241","379824","0.0-1.0-302.0-0.0","0","0","75693","","null","","","null","33","","","1","33","training","adjacent","CB","3","2","N.jpg","Q.jpg","NaN","0","0","",""
"","too_slow_prompt","","html-keyboard-response","242","380824","0.0-1.0-304.0-0.0","1","0","75693","","null","","","null","","","","","","","","","","","","","","","","",""
"","time_out","","html-keyboard-response","243","382833","0.0-1.0-305.0-0.0","0","0","75693","","null","","","null","33","","","","","","","","","","","","","","","",""
"","ITI","","html-keyboard-response","244","383840","0.0-1.0-306.0","0","0","75693","","376","","","122","33","","","","","","","","","","","","","","","f11",""
"","S1","","html-keyboard-response","245","384092","0.0-1.0-308.0","0","0","75693","","null","","","null","34","","","","","","","","","","","","","","","",""
"","ISI","","html-keyboard-response","246","384248","0.0-1.0-309.0","0","0","75693","","null","","","null","34","NaN","","","","","","","","","","","","","","",""
"","S2","","html-keyboard-response","247","384506","0.0-1.0-310.0","0","0","75693","","null","","","null","34","","NaN","","","","","","","","","","","","","",""
"","response","","html-keyboard-response","248","386256","0.0-1.0-311.0-0.0","0","0","75693","","null","","","null","34","","","1","34","training","adjacent","ED","5","4","P.jpg","L.jpg","NaN","0","0","",""
"","too_slow_prompt","","html-keyboard-response","249","387333","0.0-1.0-313.0-0.0","1","0","75693","","null","","","null","","","","","","","","","","","","","","","","",""
"","time_out","","html-keyboard-response","250","389336","0.0-1.0-314.0-0.0","0","0","75693","","null","","","null","34","","","","","","","","","","","","","","","",""
"","ITI","","html-keyboard-response","251","390344","0.0-1.0-315.0","0","0","75693","","null","","","null","34","","","","","","","","","","","","","","","NaN",""
"","S1","","html-keyboard-response","252","390602","0.0-1.0-317.0","0","0","75693","","null","","","null","35","","","","","","","","","","","","","","","",""
"","ISI","","html-keyboard-response","253","390753","0.0-1.0-318.0","0","0","75693","","null","","","null","35","NaN","","","","","","","","","","","","","","",""
"","S2","","html-keyboard-response","254","391009","0.0-1.0-319.0","0","0","75693","","null","","","null","35","","NaN","","","","","","","","","","","","","",""
"","response","","html-keyboard-response","255","392760","0.0-1.0-320.0-0.0","0","0","75693","","null","","","null","35","","","1","35","training","adjacent","GF","7","6","R.jpg","M.jpg","NaN","0","0","",""
"","too_slow_prompt","","html-keyboard-response","256","393769","0.0-1.0-322.0-0.0","1","0","75693","","null","","","null","","","","","","","","","","","","","","","","",""
"","time_out","","html-keyboard-response","257","395778","0.0-1.0-323.0-0.0","0","0","75693","","null","","","null","35","","","","","","","","","","","","","","","",""
"","ITI","","html-keyboard-response","258","396785","0.0-1.0-324.0","0","0","75693","","83","","","32","35","","","","","","","","","","","","","","","space",""
"","S1","","html-keyboard-response","259","397042","0.0-1.0-326.0","0","0","75693","","null","","","null","36","","","","","","","","","","","","","","","",""
"","ISI","","html-keyboard-response","260","397193","0.0-1.0-327.0","0","0","75693","","null","","","null","36","NaN","","","","","","","","","","","","","","",""
"","S2","","html-keyboard-response","261","397448","0.0-1.0-328.0","0","0","75693","","null","","","null","36","","NaN","","","","","","","","","","","","","",""
"","response","","html-keyboard-response","262","399202","0.0-1.0-329.0-0.0","0","0","75693","","null","","","null","36","","","1","36","training","adjacent","EF","5","6","P.jpg","M.jpg","NaN","1","0","",""
"","too_slow_prompt","","html-keyboard-response","263","400209","0.0-1.0-331.0-0.0","1","0","75693","","null","","","null","","","","","","","","","","","","","","","","",""
"","time_out","","html-keyboard-response","264","402217","0.0-1.0-332.0-0.0","0","0","75693","","null","","","null","36","","","","","","","","","","","","","","","",""
"","ITI","","html-keyboard-response","265","403226","0.0-1.0-333.0","0","0","75693","","106","","","32","36","","","","","","","","","","","","","","","space",""
"","S1","","html-keyboard-response","266","403481","0.0-1.0-335.0","0","0","75693","","null","","","null","37","","","","","","","","","","","","","","","",""
"","ISI","","html-keyboard-response","267","403634","0.0-1.0-336.0","0","0","75693","","null","","","null","37","NaN","","","","","","","","","","","","","","",""
"","S2","","html-keyboard-response","268","403889","0.0-1.0-337.0","0","0","75693","","null","","","null","37","","NaN","","","","","","","","","","","","","",""
"","response","","html-keyboard-response","269","405642","0.0-1.0-338.0-0.0","0","0","75693","","null","","","null","37","","","1","37","training","adjacent","DC","4","3","L.jpg","N.jpg","NaN","0","0","",""
"","too_slow_prompt","","html-keyboard-response","270","406649","0.0-1.0-340.0-0.0","1","0","75693","","null","","","null","","","","","","","","","","","","","","","","",""
"","time_out","","html-keyboard-response","271","408658","0.0-1.0-341.0-0.0","0","0","75693","","null","","","null","37","","","","","","","","","","","","","","","",""
"","ITI","","html-keyboard-response","272","409664","0.0-1.0-342.0","0","0","75693","","null","","","null","37","","","","","","","","","","","","","","","NaN",""
"","S1","","html-keyboard-response","273","409921","0.0-1.0-344.0","0","0","75693","","null","","","null","38","","","","","","","","","","","","","","","",""
"","ISI","","html-keyboard-response","274","410074","0.0-1.0-345.0","0","0","75693","","null","","","null","38","NaN","","","","","","","","","","","","","","",""
"","S2","","html-keyboard-response","275","410329","0.0-1.0-346.0","0","0","75693","","null","","","null","38","","NaN","","","","","","","","","","","","","",""
"","response","","html-keyboard-response","276","412080","0.0-1.0-347.0-0.0","0","0","75693","","null","","","null","38","","","1","38","training","adjacent","BC","2","3","Q.jpg","N.jpg","NaN","1","0","",""
"","too_slow_prompt","","html-keyboard-response","277","413089","0.0-1.0-349.0-0.0","1","0","75693","","null","","","null","","","","","","","","","","","","","","","","",""
"","time_out","","html-keyboard-response","278","415098","0.0-1.0-350.0-0.0","0","0","75693","","null","","","null","38","","","","","","","","","","","","","","","",""
"","ITI","","html-keyboard-response","279","416105","0.0-1.0-351.0","0","0","75693","","null","","","null","38","","","","","","","","","","","","","","","NaN",""
"","S1","","html-keyboard-response","280","416361","0.0-1.0-353.0","0","0","75693","","null","","","null","39","","","","","","","","","","","","","","","",""
"","ISI","","html-keyboard-response","281","416514","0.0-1.0-354.0","0","0","75693","","null","","","null","39","NaN","","","","","","","","","","","","","","",""
"","S2","","html-keyboard-response","282","416774","0.0-1.0-355.0","0","0","75693","","null","","","null","39","","NaN","","","","","","","","","","","","","",""
"","response","","html-keyboard-response","283","418535","0.0-1.0-356.0-0.0","0","0","75693","","null","","","null","39","","","1","39","training","adjacent","CB","3","2","N.jpg","Q.jpg","NaN","0","0","",""
"","too_slow_prompt","","html-keyboard-response","284","419540","0.0-1.0-358.0-0.0","1","0","75693","","null","","","null","","","","","","","","","","","","","","","","",""
"","time_out","","html-keyboard-response","285","421571","0.0-1.0-359.0-0.0","0","0","75693","","null","","","null","39","","","","","","","","","","","","","","","",""
"","ITI","","html-keyboard-response","286","422579","0.0-1.0-360.0","0","0","75693","","128","","","32","39","","","","","","","","","","","","","","","space",""
"","S1","","html-keyboard-response","287","422834","0.0-1.0-362.0","0","0","75693","","null","","","null","40","","","","","","","","","","","","","","","",""
"","ISI","","html-keyboard-response","288","422987","0.0-1.0-363.0","0","0","75693","","null","","","null","40","NaN","","","","","","","","","","","","","","",""
"","S2","","html-keyboard-response","289","423241","0.0-1.0-364.0","0","0","75693","","null","","","null","40","","NaN","","","","","","","","","","","","","",""
"","response","","html-keyboard-response","290","424993","0.0-1.0-365.0-0.0","0","0","75693","","null","","","null","40","","","1","40","training","adjacent","ED","5","4","P.jpg","L.jpg","NaN","0","0","",""
"","too_slow_prompt","","html-keyboard-response","291","426003","0.0-1.0-367.0-0.0","1","0","75693","","null","","","null","","","","","","","","","","","","","","","","",""
"","time_out","","html-keyboard-response","292","428015","0.0-1.0-368.0-0.0","0","0","75693","","null","","","null","40","","","","","","","","","","","","","","","",""
"","ITI","","html-keyboard-response","293","429018","0.0-1.0-369.0","0","0","75693","","203","","","32","40","","","","","","","","","","","","","","","space",""
"","S1","","html-keyboard-response","294","429274","0.0-1.0-371.0","0","0","75693","","null","","","null","41","","","","","","","","","","","","","","","",""
"","ISI","","html-keyboard-response","295","429429","0.0-1.0-372.0","0","0","75693","","null","","","null","41","NaN","","","","","","","","","","","","","","",""
"","S2","","html-keyboard-response","296","429682","0.0-1.0-373.0","0","0","75693","","null","","","null","41","","NaN","","","","","","","","","","","","","",""
"","response","","html-keyboard-response","297","431433","0.0-1.0-374.0-0.0","0","0","75693","","null","","","null","41","","","1","41","training","adjacent","CB","3","2","N.jpg","Q.jpg","NaN","0","0","",""
"","too_slow_prompt","","html-keyboard-response","298","432435","0.0-1.0-376.0-0.0","1","0","75693","","null","","","null","","","","","","","","","","","","","","","","",""
"","time_out","","html-keyboard-response","299","434442","0.0-1.0-377.0-0.0","0","0","75693","","null","","","null","41","","","","","","","","","","","","","","","",""
"","ITI","","html-keyboard-response","300","435444","0.0-1.0-378.0","0","0","75693","","22","","","32","41","","","","","","","","","","","","","","","space",""
"","S1","","html-keyboard-response","301","435699","0.0-1.0-380.0","0","0","75693","","null","","","null","42","","","","","","","","","","","","","","","",""
"","ISI","","html-keyboard-response","302","435850","0.0-1.0-381.0","0","0","75693","","69","","","32","42","space","","","","","","","","","","","","","","",""
"","S2","","html-keyboard-response","303","436106","0.0-1.0-382.0","0","0","75693","","null","","","null","42","","NaN","","","","","","","","","","","","","",""
"","response","","html-keyboard-response","304","437858","0.0-1.0-383.0-0.0","0","0","75693","","null","","","null","42","","","1","42","training","adjacent","DE","4","5","L.jpg","P.jpg","NaN","1","0","",""
"","too_slow_prompt","","html-keyboard-response","305","438866","0.0-1.0-385.0-0.0","1","0","75693","","null","","","null","","","","","","","","","","","","","","","","",""
"","time_out","","html-keyboard-response","306","440873","0.0-1.0-386.0-0.0","0","0","75693","","null","","","null","42","","","","","","","","","","","","","","","",""
"","ITI","","html-keyboard-response","307","441882","0.0-1.0-387.0","0","0","75693","","409","","","32","42","","","","","","","","","","","","","","","space",""
"","S1","","html-keyboard-response","308","442138","0.0-1.0-389.0","0","0","75693","","null","","","null","43","","","","","","","","","","","","","","","",""
"","ISI","","html-keyboard-response","309","442289","0.0-1.0-390.0","0","0","75693","","null","","","null","43","NaN","","","","","","","","","","","","","","",""
"","S2","","html-keyboard-response","310","442547","0.0-1.0-391.0","0","0","75693","","null","","","null","43","","NaN","","","","","","","","","","","","","",""
"","response","","html-keyboard-response","311","444299","0.0-1.0-392.0-0.0","0","0","75693","","null","","","null","43","","","1","43","training","adjacent","DC","4","3","L.jpg","N.jpg","NaN","0","0","",""
"","too_slow_prompt","","html-keyboard-response","312","445306","0.0-1.0-394.0-0.0","1","0","75693","","null","","","null","","","","","","","","","","","","","","","","",""
"","time_out","","html-keyboard-response","313","447313","0.0-1.0-395.0-0.0","0","0","75693","","null","","","null","43","","","","","","","","","","","","","","","",""
"","ITI","","html-keyboard-response","314","448322","0.0-1.0-396.0","0","0","75693","","null","","","null","43","","","","","","","","","","","","","","","NaN",""
"","S1","","html-keyboard-response","315","448578","0.0-1.0-398.0","0","0","75693","","null","","","null","44","","","","","","","","","","","","","","","",""
"","ISI","","html-keyboard-response","316","448730","0.0-1.0-399.0","0","0","75693","","null","","","null","44","NaN","","","","","","","","","","","","","","",""
"","S2","","html-keyboard-response","317","448986","0.0-1.0-400.0","0","0","75693","","null","","","null","44","","NaN","","","","","","","","","","","","","",""
"","response","","html-keyboard-response","318","450737","0.0-1.0-401.0-0.0","0","0","75693","","null","","","null","44","","","1","44","training","adjacent","BC","2","3","Q.jpg","N.jpg","NaN","1","0","",""
"","too_slow_prompt","","html-keyboard-response","319","451746","0.0-1.0-403.0-0.0","1","0","75693","","null","","","null","","","","","","","","","","","","","","","","",""
"","time_out","","html-keyboard-response","320","453755","0.0-1.0-404.0-0.0","0","0","75693","","null","","","null","44","","","","","","","","","","","","","","","",""
"","ITI","","html-keyboard-response","321","454761","0.0-1.0-405.0","0","0","75693","","221","","","32","44","","","","","","","","","","","","","","","space",""
"","S1","","html-keyboard-response","322","455019","0.0-1.0-407.0","0","0","75693","","null","","","null","45","","","","","","","","","","","","","","","",""
"","ISI","","html-keyboard-response","323","455170","0.0-1.0-408.0","0","0","75693","","null","","","null","45","NaN","","","","","","","","","","","","","","",""
"","S2","","html-keyboard-response","324","455424","0.0-1.0-409.0","0","0","75693","","null","","","null","45","","NaN","","","","","","","","","","","","","",""
"","response","","html-keyboard-response","325","457179","0.0-1.0-410.0-0.0","0","0","75693","","null","","","null","45","","","1","45","training","adjacent","CB","3","2","N.jpg","Q.jpg","NaN","0","0","",""
"","too_slow_prompt","","html-keyboard-response","326","458200","0.0-1.0-412.0-0.0","1","0","75693","","null","","","null","","","","","","","","","","","","","","","","",""
"","time_out","","html-keyboard-response","327","460202","0.0-1.0-413.0-0.0","0","0","75693","","null","","","null","45","","","","","","","","","","","","","","","",""
"","ITI","","html-keyboard-response","328","461209","0.0-1.0-414.0","0","0","75693","","null","","","null","45","","","","","","","","","","","","","","","NaN",""
"","S1","","html-keyboard-response","329","461466","0.0-1.0-416.0","0","0","75693","","null","","","null","46","","","","","","","","","","","","","","","",""
"","ISI","","html-keyboard-response","330","461618","0.0-1.0-417.0","0","0","75693","","34","","","32","46","space","","","","","","","","","","","","","","",""
"","S2","","html-keyboard-response","331","461873","0.0-1.0-418.0","0","0","75693","","null","","","null","46","","NaN","","","","","","","","","","","","","",""
"","response","","html-keyboard-response","332","463627","0.0-1.0-419.0-0.0","0","0","75693","","null","","","null","46","","","1","46","training","adjacent","CD","3","4","N.jpg","L.jpg","NaN","1","0","",""
"","too_slow_prompt","","html-keyboard-response","333","464634","0.0-1.0-421.0-0.0","1","0","75693","","null","","","null","","","","","","","","","","","","","","","","",""
"","time_out","","html-keyboard-response","334","466642","0.0-1.0-422.0-0.0","0","0","75693","","null","","","null","46","","","","","","","","","","","","","","","",""
"","ITI","","html-keyboard-response","335","467650","0.0-1.0-423.0","0","0","75693","","210","","","32","46","","","","","","","","","","","","","","","space",""
"","S1","","html-keyboard-response","336","467906","0.0-1.0-425.0","0","0","75693","","null","","","null","47","","","","","","","","","","","","","","","",""
"","ISI","","html-keyboard-response","337","468059","0.0-1.0-426.0","0","0","75693","","151","","","32","47","space","","","","","","","","","","","","","","",""
"","S2","","html-keyboard-response","338","468314","0.0-1.0-427.0","0","0","75693","","null","","","null","47","","NaN","","","","","","","","","","","","","",""
"","response","","html-keyboard-response","339","470065","0.0-1.0-428.0-0.0","0","0","75693","","null","","","null","47","","","1","47","training","adjacent","BC","2","3","Q.jpg","N.jpg","NaN","1","0","",""
"","too_slow_prompt","","html-keyboard-response","340","471074","0.0-1.0-430.0-0.0","1","0","75693","","null","","","null","","","","","","","","","","","","","","","","",""
"","time_out","","html-keyboard-response","341","473081","0.0-1.0-431.0-0.0","0","0","75693","","null","","","null","47","","","","","","","","","","","","","","","",""
"","ITI","","html-keyboard-response","342","474083","0.0-1.0-432.0","0","0","75693","","182","","","32","47","","","","","","","","","","","","","","","space",""
"","block_over","","html-keyboard-response","343","476321","0.0-1.0-433.0-0.0","0","0","75693","","2237","","","32","47","","","","","","","","","","","","","","","",""
"","S1","","html-keyboard-response","344","476578","0.0-1.0-434.0","0","0","75693","","null","","","null","48","","","","","","","","","","","","","","","",""
"","ISI","","html-keyboard-response","345","476729","0.0-1.0-435.0","0","0","75693","","null","","","null","48","NaN","","","","","","","","","","","","","","",""
"","S2","","html-keyboard-response","346","476985","0.0-1.0-436.0","0","0","75693","","null","","","null","48","","NaN","","","","","","","","","","","","","",""
"","response","","html-keyboard-response","347","478738","0.0-1.0-437.0-0.0","0","0","75693","","null","","","null","48","","","2","48","training","adjacent","BA","2","1","Q.jpg","O.jpg","NaN","0","0","",""
"","too_slow_prompt","","html-keyboard-response","348","479746","0.0-1.0-439.0-0.0","1","0","75693","","null","","","null","","","","","","","","","","","","","","","","",""
"","time_out","","html-keyboard-response","349","481757","0.0-1.0-440.0-0.0","0","0","75693","","null","","","null","48","","","","","","","","","","","","","","","",""
"","ITI","","html-keyboard-response","350","482762","0.0-1.0-441.0","0","0","75693","","null","","","null","48","","","","","","","","","","","","","","","NaN",""
"","S1","","html-keyboard-response","351","483017","0.0-1.0-443.0","0","0","75693","","null","","","null","49","","","","","","","","","","","","","","","",""
"","ISI","","html-keyboard-response","352","483169","0.0-1.0-444.0","0","0","75693","","null","","","null","49","NaN","","","","","","","","","","","","","","",""
"","S2","","html-keyboard-response","353","483426","0.0-1.0-445.0","0","0","75693","","null","","","null","49","","NaN","","","","","","","","","","","","","",""
"","response","","html-keyboard-response","354","485185","0.0-1.0-446.0-0.0","0","0","75693","","null","","","null","49","","","2","49","training","adjacent","EF","5","6","P.jpg","M.jpg","NaN","1","0","",""
"","too_slow_prompt","","html-keyboard-response","355","486195","0.0-1.0-448.0-0.0","1","0","75693","","null","","","null","","","","","","","","","","","","","","","","",""
"","time_out","","html-keyboard-response","356","488202","0.0-1.0-449.0-0.0","0","0","75693","","null","","","null","49","","","","","","","","","","","","","","","",""
"","ITI","","html-keyboard-response","357","489209","0.0-1.0-450.0","0","0","75693","","null","","","null","49","","","","","","","","","","","","","","","NaN",""
"","S1","","html-keyboard-response","358","489466","0.0-1.0-452.0","0","0","75693","","null","","","null","50","","","","","","","","","","","","","","","",""
"","ISI","","html-keyboard-response","359","489617","0.0-1.0-453.0","0","0","75693","","null","","","null","50","NaN","","","","","","","","","","","","","","",""
"","S2","","html-keyboard-response","360","489874","0.0-1.0-454.0","0","0","75693","","null","","","null","50","","NaN","","","","","","","","","","","","","",""
"","response","","html-keyboard-response","361","491625","0.0-1.0-455.0-0.0","0","0","75693","","null","","","null","50","","","2","50","training","adjacent","ED","5","4","P.jpg","L.jpg","NaN","0","0","",""
"","too_slow_prompt","","html-keyboard-response","362","492628","0.0-1.0-457.0-0.0","1","0","75693","","null","","","null","","","","","","","","","","","","","","","","",""
"","time_out","","html-keyboard-response","363","494633","0.0-1.0-458.0-0.0","0","0","75693","","null","","","null","50","","","","","","","","","","","","","","","",""
"","ITI","","html-keyboard-response","364","495641","0.0-1.0-459.0","0","0","75693","","null","","","null","50","","","","","","","","","","","","","","","NaN",""
"","S1","","html-keyboard-response","365","495898","0.0-1.0-461.0","0","0","75693","","null","","","null","51","","","","","","","","","","","","","","","",""
"","ISI","","html-keyboard-response","366","496049","0.0-1.0-462.0","0","0","75693","","null","","","null","51","NaN","","","","","","","","","","","","","","",""
"","S2","","html-keyboard-response","367","496306","0.0-1.0-463.0","0","0","75693","","null","","","null","51","","NaN","","","","","","","","","","","","","",""
"","response","","html-keyboard-response","368","498058","0.0-1.0-464.0-0.0","0","0","75693","","null","","","null","51","","","2","51","training","adjacent","FE","6","5","M.jpg","P.jpg","NaN","0","0","",""
"","too_slow_prompt","","html-keyboard-response","369","499066","0.0-1.0-466.0-0.0","1","0","75693","","null","","","null","","","","","","","","","","","","","","","","",""
"","time_out","","html-keyboard-response","370","501075","0.0-1.0-467.0-0.0","0","0","75693","","null","","","null","51","","","","","","","","","","","","","","","",""
"","ITI","","html-keyboard-response","371","502083","0.0-1.0-468.0","0","0","75693","","64","","","32","51","","","","","","","","","","","","","","","space",""
"","S1","","html-keyboard-response","372","502337","0.0-1.0-470.0","0","0","75693","","null","","","null","52","","","","","","","","","","","","","","","",""
"","ISI","","html-keyboard-response","373","502489","0.0-1.0-471.0","0","0","75693","","null","","","null","52","NaN","","","","","","","","","","","","","","",""
"","S2","","html-keyboard-response","374","502746","0.0-1.0-472.0","0","0","75693","","null","","","null","52","","NaN","","","","","","","","","","","","","",""
"","response","","html-keyboard-response","375","504499","0.0-1.0-473.0-0.0","0","0","75693","","null","","","null","52","","","2","52","training","adjacent","DE","4","5","L.jpg","P.jpg","NaN","1","0","",""
"","too_slow_prompt","","html-keyboard-response","376","505516","0.0-1.0-475.0-0.0","1","0","75693","","null","","","null","","","","","","","","","","","","","","","","",""
"","time_out","","html-keyboard-response","377","507523","0.0-1.0-476.0-0.0","0","0","75693","","null","","","null","52","","","","","","","","","","","","","","","",""
"","ITI","","html-keyboard-response","378","508529","0.0-1.0-477.0","0","0","75693","","null","","","null","52","","","","","","","","","","","","","","","NaN",""
"","S1","","html-keyboard-response","379","508787","0.0-1.0-479.0","0","0","75693","","null","","","null","53","","","","","","","","","","","","","","","",""
"","ISI","","html-keyboard-response","380","508939","0.0-1.0-480.0","0","0","75693","","null","","","null","53","NaN","","","","","","","","","","","","","","",""
"","S2","","html-keyboard-response","381","509194","0.0-1.0-481.0","0","0","75693","","null","","","null","53","","NaN","","","","","","","","","","","","","",""
"","response","","html-keyboard-response","382","510946","0.0-1.0-482.0-0.0","0","0","75693","","null","","","null","53","","","2","53","training","adjacent","FE","6","5","M.jpg","P.jpg","NaN","0","0","",""
"","too_slow_prompt","","html-keyboard-response","383","511953","0.0-1.0-484.0-0.0","1","0","75693","","null","","","null","","","","","","","","","","","","","","","","",""
"","time_out","","html-keyboard-response","384","513961","0.0-1.0-485.0-0.0","0","0","75693","","null","","","null","53","","","","","","","","","","","","","","","",""
"","ITI","","html-keyboard-response","385","514969","0.0-1.0-486.0","0","0","75693","","null","","","null","53","","","","","","","","","","","","","","","NaN",""
"","S1","","html-keyboard-response","386","515226","0.0-1.0-488.0","0","0","75693","","null","","","null","54","","","","","","","","","","","","","","","",""
"","ISI","","html-keyboard-response","387","515379","0.0-1.0-489.0","0","0","75693","","null","","","null","54","NaN","","","","","","","","","","","","","","",""
"","S2","","html-keyboard-response","388","515633","0.0-1.0-490.0","0","0","75693","","null","","","null","54","","NaN","","","","","","","","","","","","","",""
"","response","","html-keyboard-response","389","517385","0.0-1.0-491.0-0.0","0","0","75693","","null","","","null","54","","","2","54","training","adjacent","AB","1","2","O.jpg","Q.jpg","NaN","1","0","",""
"","too_slow_prompt","","html-keyboard-response","390","518393","0.0-1.0-493.0-0.0","1","0","75693","","null","","","null","","","","","","","","","","","","","","","","",""
"","time_out","","html-keyboard-response","391","520402","0.0-1.0-494.0-0.0","0","0","75693","","null","","","null","54","","","","","","","","","","","","","","","",""
"","ITI","","html-keyboard-response","392","521411","0.0-1.0-495.0","0","0","75693","","54","","","32","54","","","","","","","","","","","","","","","space",""
"","S1","","html-keyboard-response","393","521667","0.0-1.0-497.0","0","0","75693","","null","","","null","55","","","","","","","","","","","","","","","",""
"","ISI","","html-keyboard-response","394","521818","0.0-1.0-498.0","0","0","75693","","null","","","null","55","NaN","","","","","","","","","","","","","","",""
"","S2","","html-keyboard-response","395","522074","0.0-1.0-499.0","0","0","75693","","null","","","null","55","","NaN","","","","","","","","","","","","","",""
"","response","","html-keyboard-response","396","523826","0.0-1.0-500.0-0.0","0","0","75693","","null","","","null","55","","","2","55","training","adjacent","BA","2","1","Q.jpg","O.jpg","NaN","0","0","",""
"","too_slow_prompt","","html-keyboard-response","397","524834","0.0-1.0-502.0-0.0","1","0","75693","","null","","","null","","","","","","","","","","","","","","","","",""
"","time_out","","html-keyboard-response","398","526842","0.0-1.0-503.0-0.0","0","0","75693","","null","","","null","55","","","","","","","","","","","","","","","",""
"","ITI","","html-keyboard-response","399","527849","0.0-1.0-504.0","0","0","75693","","null","","","null","55","","","","","","","","","","","","","","","NaN",""
"","S1","","html-keyboard-response","400","528116","0.0-1.0-506.0","0","0","75693","","null","","","null","56","","","","","","","","","","","","","","","",""
"","ISI","","html-keyboard-response","401","528274","0.0-1.0-507.0","0","0","75693","","null","","","null","56","NaN","","","","","","","","","","","","","","",""
"","S2","","html-keyboard-response","402","528530","0.0-1.0-508.0","0","0","75693","","null","","","null","56","","NaN","","","","","","","","","","","","","",""
"","response","","html-keyboard-response","403","530282","0.0-1.0-509.0-0.0","0","0","75693","","null","","","null","56","","","2","56","training","adjacent","DE","4","5","L.jpg","P.jpg","NaN","1","0","",""
"","too_slow_prompt","","html-keyboard-response","404","531290","0.0-1.0-511.0-0.0","1","0","75693","","null","","","null","","","","","","","","","","","","","","","","",""
"","time_out","","html-keyboard-response","405","533297","0.0-1.0-512.0-0.0","0","0","75693","","null","","","null","56","","","","","","","","","","","","","","","",""
"","ITI","","html-keyboard-response","406","534306","0.0-1.0-513.0","0","0","75693","","617","","","32","56","","","","","","","","","","","","","","","space",""
"","S1","","html-keyboard-response","407","534563","0.0-1.0-515.0","0","0","75693","","null","","","null","57","","","","","","","","","","","","","","","",""
"","ISI","","html-keyboard-response","408","534722","0.0-1.0-516.0","0","0","75693","","41","","","32","57","space","","","","","","","","","","","","","","",""
"","S2","","html-keyboard-response","409","534979","0.0-1.0-517.0","0","0","75693","","null","","","null","57","","NaN","","","","","","","","","","","","","",""
"","response","","html-keyboard-response","410","536730","0.0-1.0-518.0-0.0","0","0","75693","","null","","","null","57","","","2","57","training","adjacent","GF","7","6","R.jpg","M.jpg","NaN","0","0","",""
"","too_slow_prompt","","html-keyboard-response","411","537739","0.0-1.0-520.0-0.0","1","0","75693","","null","","","null","","","","","","","","","","","","","","","","",""
"","time_out","","html-keyboard-response","412","539746","0.0-1.0-521.0-0.0","0","0","75693","","null","","","null","57","","","","","","","","","","","","","","","",""
"","ITI","","html-keyboard-response","413","540765","0.0-1.0-522.0","0","0","75693","","null","","","null","57","","","","","","","","","","","","","","","NaN",""
"","S1","","html-keyboard-response","414","541044","0.0-1.0-524.0","0","0","75693","","null","","","null","58","","","","","","","","","","","","","","","",""
"","ISI","","html-keyboard-response","415","541203","0.0-1.0-525.0","0","0","75693","","null","","","null","58","NaN","","","","","","","","","","","","","","",""
"","S2","","html-keyboard-response","416","541459","0.0-1.0-526.0","0","0","75693","","null","","","null","58","","NaN","","","","","","","","","","","","","",""
"","response","","html-keyboard-response","417","543210","0.0-1.0-527.0-0.0","0","0","75693","","null","","","null","58","","","2","58","training","adjacent","CD","3","4","N.jpg","L.jpg","NaN","1","0","",""
"","too_slow_prompt","","html-keyboard-response","418","544218","0.0-1.0-529.0-0.0","1","0","75693","","null","","","null","","","","","","","","","","","","","","","","",""
"","time_out","","html-keyboard-response","419","546227","0.0-1.0-530.0-0.0","0","0","75693","","null","","","null","58","","","","","","","","","","","","","","","",""
"","ITI","","html-keyboard-response","420","547235","0.0-1.0-531.0","0","0","75693","","144","","","32","58","","","","","","","","","","","","","","","space",""
"","S1","","html-keyboard-response","421","547491","0.0-1.0-533.0","0","0","75693","","null","","","null","59","","","","","","","","","","","","","","","",""
"","ISI","","html-keyboard-response","422","547642","0.0-1.0-534.0","0","0","75693","","null","","","null","59","NaN","","","","","","","","","","","","","","",""
"","S2","","html-keyboard-response","423","547898","0.0-1.0-535.0","0","0","75693","","null","","","null","59","","NaN","","","","","","","","","","","","","",""
"","response","","html-keyboard-response","424","549650","0.0-1.0-536.0-0.0","0","0","75693","","null","","","null","59","","","2","59","training","adjacent","DE","4","5","L.jpg","P.jpg","NaN","1","0","",""
"","too_slow_prompt","","html-keyboard-response","425","550659","0.0-1.0-538.0-0.0","1","0","75693","","null","","","null","","","","","","","","","","","","","","","","",""
"","time_out","","html-keyboard-response","426","552666","0.0-1.0-539.0-0.0","0","0","75693","","null","","","null","59","","","","","","","","","","","","","","","",""
"","ITI","","html-keyboard-response","427","553675","0.0-1.0-540.0","0","0","75693","","null","","","null","59","","","","","","","","","","","","","","","NaN",""
"","S1","","html-keyboard-response","428","553930","0.0-1.0-542.0","0","0","75693","","null","","","null","60","","","","","","","","","","","","","","","",""
"","ISI","","html-keyboard-response","429","554082","0.0-1.0-543.0","0","0","75693","","null","","","null","60","NaN","","","","","","","","","","","","","","",""
"","S2","","html-keyboard-response","430","554338","0.0-1.0-544.0","0","0","75693","","null","","","null","60","","NaN","","","","","","","","","","","","","",""
"","response","","html-keyboard-response","431","556090","0.0-1.0-545.0-0.0","0","0","75693","","null","","","null","60","","","2","60","training","adjacent","BC","2","3","Q.jpg","N.jpg","NaN","1","0","",""
"","too_slow_prompt","","html-keyboard-response","432","557099","0.0-1.0-547.0-0.0","1","0","75693","","null","","","null","","","","","","","","","","","","","","","","",""
"","time_out","","html-keyboard-response","433","559106","0.0-1.0-548.0-0.0","0","0","75693","","null","","","null","60","","","","","","","","","","","","","","","",""
"","ITI","","html-keyboard-response","434","560113","0.0-1.0-549.0","0","0","75693","","null","","","null","60","","","","","","","","","","","","","","","NaN",""
"","S1","","html-keyboard-response","435","560369","0.0-1.0-551.0","0","0","75693","","null","","","null","61","","","","","","","","","","","","","","","",""
"","ISI","","html-keyboard-response","436","560523","0.0-1.0-552.0","0","0","75693","","null","","","null","61","NaN","","","","","","","","","","","","","","",""
"","S2","","html-keyboard-response","437","560779","0.0-1.0-553.0","0","0","75693","","null","","","null","61","","NaN","","","","","","","","","","","","","",""
"","response","","html-keyboard-response","438","562530","0.0-1.0-554.0-0.0","0","0","75693","","null","","","null","61","","","2","61","training","adjacent","FE","6","5","M.jpg","P.jpg","NaN","0","0","",""
"","too_slow_prompt","","html-keyboard-response","439","563564","0.0-1.0-556.0-0.0","1","0","75693","","null","","","null","","","","","","","","","","","","","","","","",""
"","time_out","","html-keyboard-response","440","565569","0.0-1.0-557.0-0.0","0","0","75693","","null","","","null","61","","","","","","","","","","","","","","","",""
"","ITI","","html-keyboard-response","441","566578","0.0-1.0-558.0","0","0","75693","","15","","","32","61","","","","","","","","","","","","","","","space",""
"","S1","","html-keyboard-response","442","566834","0.0-1.0-560.0","0","0","75693","","null","","","null","62","","","","","","","","","","","","","","","",""
"","ISI","","html-keyboard-response","443","566986","0.0-1.0-561.0","0","0","75693","","2","","","32","62","space","","","","","","","","","","","","","","",""
"","S2","","html-keyboard-response","444","567242","0.0-1.0-562.0","0","0","75693","","null","","","null","62","","NaN","","","","","","","","","","","","","",""
"","response","","html-keyboard-response","445","568995","0.0-1.0-563.0-0.0","0","0","75693","","null","","","null","62","","","2","62","training","adjacent","BA","2","1","Q.jpg","O.jpg","NaN","0","0","",""
"","too_slow_prompt","","html-keyboard-response","446","570004","0.0-1.0-565.0-0.0","1","0","75693","","null","","","null","","","","","","","","","","","","","","","","",""
"","time_out","","html-keyboard-response","447","572010","0.0-1.0-566.0-0.0","0","0","75693","","null","","","null","62","","","","","","","","","","","","","","","",""
"","ITI","","html-keyboard-response","448","573019","0.0-1.0-567.0","0","0","75693","","451","","","87","62","","","","","","","","","","","","","","","w",""
"","S1","","html-keyboard-response","449","573274","0.0-1.0-569.0","0","0","75693","","null","","","null","63","","","","","","","","","","","","","","","",""
"","ISI","","html-keyboard-response","450","573425","0.0-1.0-570.0","0","0","75693","","null","","","null","63","NaN","","","","","","","","","","","","","","",""
"","S2","","html-keyboard-response","451","573432","0.0-1.0-571.0","0","0","75693","","6","","","68","63","","d","2","63","training","adjacent","GF","7","6","R.jpg","M.jpg","0","0","1","",""
"","feedback","","html-keyboard-response","452","574443","0.0-1.0-573.0-0.0","0","0","75693","","null","","","null","63","","","","","","","","","","","","","","","",""
"","ITI","","html-keyboard-response","453","575450","0.0-1.0-576.0","0","0","75693","","599","","","87","63","","","","","","","","","","","","","","","w",""
"","S1","","html-keyboard-response","454","575705","0.0-1.0-578.0","0","0","75693","","null","","","null","64","","","","","","","","","","","","","","","",""
"","ISI","","html-keyboard-response","455","575857","0.0-1.0-579.0","0","0","75693","","null","","","null","64","NaN","","","","","","","","","","","","","","",""
"","S2","","html-keyboard-response","456","576114","0.0-1.0-580.0","0","0","75693","","null","","","null","64","","NaN","","","","","","","","","","","","","",""
"","response","","html-keyboard-response","457","577867","0.0-1.0-581.0-0.0","0","0","75693","","null","","","null","64","","","2","64","training","adjacent","CB","3","2","N.jpg","Q.jpg","NaN","0","0","",""
"","too_slow_prompt","","html-keyboard-response","458","578875","0.0-1.0-583.0-0.0","1","0","75693","","null","","","null","","","","","","","","","","","","","","","","",""
"","time_out","","html-keyboard-response","459","580882","0.0-1.0-584.0-0.0","0","0","75693","","null","","","null","64","","","","","","","","","","","","","","","",""
"","ITI","","html-keyboard-response","460","581890","0.0-1.0-585.0","0","0","75693","","42","","","83","64","","","","","","","","","","","","","","","s",""
"","S1","","html-keyboard-response","461","582147","0.0-1.0-587.0","0","0","75693","","null","","","null","65","","","","","","","","","","","","","","","",""
"","ISI","","html-keyboard-response","462","582299","0.0-1.0-588.0","0","0","75693","","null","","","null","65","NaN","","","","","","","","","","","","","","",""
"","S2","","html-keyboard-response","463","582362","0.0-1.0-589.0","0","0","75693","","62","","","68","65","","d","2","65","training","adjacent","CD","3","4","N.jpg","L.jpg","0","1","0","",""
"","feedback","","html-keyboard-response","464","583387","0.0-1.0-591.0-0.0","0","0","75693","","null","","","null","65","","","","","","","","","","","","","","","",""
"","time_out","","html-keyboard-response","465","585394","0.0-1.0-593.0-0.0","0","0","75693","","null","","","null","65","","","","","","","","","","","","","","","",""
"","ITI","","html-keyboard-response","466","586406","0.0-1.0-594.0","0","0","75693","","250","","","68","65","","","","","","","","","","","","","","","d",""
"","S1","","html-keyboard-response","467","586659","0.0-1.0-596.0","0","0","75693","","null","","","null","66","","","","","","","","","","","","","","","",""
"","ISI","","html-keyboard-response","468","586813","0.0-1.0-597.0","0","0","75693","","null","","","null","66","NaN","","","","","","","","","","","","","","",""
"","S2","","html-keyboard-response","469","587066","0.0-1.0-598.0","0","0","75693","","null","","","null","66","","NaN","","","","","","","","","","","","","",""
"","response","","html-keyboard-response","470","587587","0.0-1.0-599.0-0.0","0","0","75693","","519","","","68","66","","","2","66","training","adjacent","GF","7","6","R.jpg","M.jpg","0","0","1","",""
"","feedback","","html-keyboard-response","471","588594","0.0-1.0-600.0-0.0","0","0","75693","","null","","","null","66","","","","","","","","","","","","","","","",""
"","ITI","","html-keyboard-response","472","589602","0.0-1.0-603.0","0","0","75693","","18","","","75","66","","","","","","","","","","","","","","","k",""
"","S1","","html-keyboard-response","473","589858","0.0-1.0-605.0","0","0","75693","","null","","","null","67","","","","","","","","","","","","","","","",""
"","ISI","","html-keyboard-response","474","590010","0.0-1.0-606.0","0","0","75693","","null","","","null","67","NaN","","","","","","","","","","","","","","",""
"","S2","","html-keyboard-response","475","590093","0.0-1.0-607.0","0","0","75693","","80","","","75","67","","k","2","67","training","adjacent","ED","5","4","P.jpg","L.jpg","1","0","0","",""
"","feedback","","html-keyboard-response","476","591098","0.0-1.0-609.0-0.0","0","0","75693","","null","","","null","67","","","","","","","","","","","","","","","",""
"","time_out","","html-keyboard-response","477","593106","0.0-1.0-611.0-0.0","0","0","75693","","null","","","null","67","","","","","","","","","","","","","","","",""
"","ITI","","html-keyboard-response","478","594116","0.0-1.0-612.0","0","0","75693","","56","","","65","67","","","","","","","","","","","","","","","a",""
"","S1","","html-keyboard-response","479","594371","0.0-1.0-614.0","0","0","75693","","null","","","null","68","","","","","","","","","","","","","","","",""
"","ISI","","html-keyboard-response","480","594523","0.0-1.0-615.0","0","0","75693","","123","","","65","68","a","","","","","","","","","","","","","","",""
"","S2","","html-keyboard-response","481","594779","0.0-1.0-616.0","0","0","75693","","null","","","null","68","","NaN","","","","","","","","","","","","","",""
"","response","","html-keyboard-response","482","595247","0.0-1.0-617.0-0.0","0","0","75693","","466","","","68","68","","","2","68","training","adjacent","FG","6","7","M.jpg","R.jpg","0","1","0","",""
"","feedback","","html-keyboard-response","483","596251","0.0-1.0-618.0-0.0","0","0","75693","","null","","","null","68","","","","","","","","","","","","","","","",""
"","time_out","","html-keyboard-response","484","598258","0.0-1.0-620.0-0.0","0","0","75693","","null","","","null","68","","","","","","","","","","","","","","","",""
"","ITI","","html-keyboard-response","485","599266","0.0-1.0-621.0","0","0","75693","","235","","","68","68","","","","","","","","","","","","","","","d",""
"","S1","","html-keyboard-response","486","599523","0.0-1.0-623.0","0","0","75693","","null","","","null","69","","","","","","","","","","","","","","","",""
"","ISI","","html-keyboard-response","487","599674","0.0-1.0-624.0","0","0","75693","","130","","","87","69","w","","","","","","","","","","","","","","",""
"","S2","","html-keyboard-response","488","599939","0.0-1.0-625.0","0","0","75693","","null","","","null","69","","NaN","","","","","","","","","","","","","",""
"","response","","html-keyboard-response","489","600215","0.0-1.0-626.0-0.0","0","0","75693","","275","","","68","69","","","2","69","training","adjacent","DC","4","3","L.jpg","N.jpg","0","0","1","",""
"","feedback","","html-keyboard-response","490","601232","0.0-1.0-627.0-0.0","0","0","75693","","null","","","null","69","","","","","","","","","","","","","","","",""
"","ITI","","html-keyboard-response","491","602235","0.0-1.0-630.0","0","0","75693","","272","","","68","69","","","","","","","","","","","","","","","d",""
"","S1","","html-keyboard-response","492","602491","0.0-1.0-632.0","0","0","75693","","null","","","null","70","","","","","","","","","","","","","","","",""
"","ISI","","html-keyboard-response","493","602642","0.0-1.0-633.0","0","0","75693","","47","","","65","70","a","","","","","","","","","","","","","","",""
"","S2","","html-keyboard-response","494","602899","0.0-1.0-634.0","0","0","75693","","null","","","null","70","","NaN","","","","","","","","","","","","","",""
"","response","","html-keyboard-response","495","603206","0.0-1.0-635.0-0.0","0","0","75693","","306","","","68","70","","","2","70","training","adjacent","BC","2","3","Q.jpg","N.jpg","0","1","0","",""
"","feedback","","html-keyboard-response","496","604211","0.0-1.0-636.0-0.0","0","0","75693","","null","","","null","70","","","","","","","","","","","","","","","",""
"","time_out","","html-keyboard-response","497","606219","0.0-1.0-638.0-0.0","0","0","75693","","null","","","null","70","","","","","","","","","","","","","","","",""
"","ITI","","html-keyboard-response","498","607228","0.0-1.0-639.0","0","0","75693","","59","","","68","70","","","","","","","","","","","","","","","d",""
"","S1","","html-keyboard-response","499","607483","0.0-1.0-641.0","0","0","75693","","null","","","null","71","","","","","","","","","","","","","","","",""
"","ISI","","html-keyboard-response","500","607635","0.0-1.0-642.0","0","0","75693","","36","","","68","71","d","","","","","","","","","","","","","","",""
"","S2","","html-keyboard-response","501","607812","0.0-1.0-643.0","0","0","75693","","175","","","68","71","","d","2","71","training","adjacent","DC","4","3","L.jpg","N.jpg","0","0","1","",""
"","feedback","","html-keyboard-response","502","608819","0.0-1.0-645.0-0.0","0","0","75693","","null","","","null","71","","","","","","","","","","","","","","","",""
"","ITI","","html-keyboard-response","503","609828","0.0-1.0-648.0","0","0","75693","","null","","","null","71","","","","","","","","","","","","","","","NaN",""
"","S1","","html-keyboard-response","504","610083","0.0-1.0-650.0","0","0","75693","","null","","","null","72","","","","","","","","","","","","","","","",""
"","ISI","","html-keyboard-response","505","610235","0.0-1.0-651.0","0","0","75693","","null","","","null","72","NaN","","","","","","","","","","","","","","",""
"","S2","","html-keyboard-response","506","610492","0.0-1.0-652.0","0","0","75693","","null","","","null","72","","NaN","","","","","","","","","","","","","",""
"","response","","html-keyboard-response","507","610512","0.0-1.0-653.0-0.0","0","0","75693","","19","","","68","72","","","2","72","training","adjacent","BA","2","1","Q.jpg","O.jpg","0","0","1","",""
"","feedback","","html-keyboard-response","508","611514","0.0-1.0-654.0-0.0","0","0","75693","","null","","","null","72","","","","","","","","","","","","","","","",""
"","ITI","","html-keyboard-response","509","612523","0.0-1.0-657.0","0","0","75693","","965","","","68","72","","","","","","","","","","","","","","","d",""
"","S1","","html-keyboard-response","510","612779","0.0-1.0-659.0","0","0","75693","","null","","","null","73","","","","","","","","","","","","","","","",""
"","ISI","","html-keyboard-response","511","612931","0.0-1.0-660.0","0","0","75693","","null","","","null","73","NaN","","","","","","","","","","","","","","",""
"","S2","","html-keyboard-response","512","613007","0.0-1.0-661.0","0","0","75693","","74","","","68","73","","d","2","73","training","adjacent","ED","5","4","P.jpg","L.jpg","0","0","1","",""
"","feedback","","html-keyboard-response","513","614011","0.0-1.0-663.0-0.0","0","0","75693","","null","","","null","73","","","","","","","","","","","","","","","",""
"","ITI","","html-keyboard-response","514","615019","0.0-1.0-666.0","0","0","75693","","64","","","87","73","","","","","","","","","","","","","","","w",""
"","S1","","html-keyboard-response","515","615274","0.0-1.0-668.0","0","0","75693","","null","","","null","74","","","","","","","","","","","","","","","",""
"","ISI","","html-keyboard-response","516","615428","0.0-1.0-669.0","0","0","75693","","null","","","null","74","NaN","","","","","","","","","","","","","","",""
"","S2","","html-keyboard-response","517","615686","0.0-1.0-670.0","0","0","75693","","null","","","null","74","","NaN","","","","","","","","","","","","","",""
"","response","","html-keyboard-response","518","616617","0.0-1.0-671.0-0.0","0","0","75693","","929","","","68","74","","","2","74","training","adjacent","FG","6","7","M.jpg","R.jpg","0","1","0","",""
"","feedback","","html-keyboard-response","519","617628","0.0-1.0-672.0-0.0","0","0","75693","","null","","","null","74","","","","","","","","","","","","","","","",""
"","time_out","","html-keyboard-response","520","619648","0.0-1.0-674.0-0.0","0","0","75693","","null","","","null","74","","","","","","","","","","","","","","","",""
"","ITI","","html-keyboard-response","521","620650","0.0-1.0-675.0","0","0","75693","","12","","","65","74","","","","","","","","","","","","","","","a",""
"","S1","","html-keyboard-response","522","620906","0.0-1.0-677.0","0","0","75693","","null","","","null","75","","","","","","","","","","","","","","","",""
"","ISI","","html-keyboard-response","523","621059","0.0-1.0-678.0","0","0","75693","","null","","","null","75","NaN","","","","","","","","","","","","","","",""
"","S2","","html-keyboard-response","524","621315","0.0-1.0-679.0","0","0","75693","","null","","","null","75","","NaN","","","","","","","","","","","","","",""
"","response","","html-keyboard-response","525","621664","0.0-1.0-680.0-0.0","0","0","75693","","348","","","68","75","","","2","75","training","adjacent","FG","6","7","M.jpg","R.jpg","0","1","0","",""
"","feedback","","html-keyboard-response","526","622667","0.0-1.0-681.0-0.0","0","0","75693","","null","","","null","75","","","","","","","","","","","","","","","",""
"","time_out","","html-keyboard-response","527","624675","0.0-1.0-683.0-0.0","0","0","75693","","null","","","null","75","","","","","","","","","","","","","","","",""
"","ITI","","html-keyboard-response","528","625682","0.0-1.0-684.0","0","0","75693","","152","","","83","75","","","","","","","","","","","","","","","s",""
"","S1","","html-keyboard-response","529","625940","0.0-1.0-686.0","0","0","75693","","null","","","null","76","","","","","","","","","","","","","","","",""
"","ISI","","html-keyboard-response","530","626090","0.0-1.0-687.0","0","0","75693","","null","","","null","76","NaN","","","","","","","","","","","","","","",""
"","S2","","html-keyboard-response","531","626347","0.0-1.0-688.0","0","0","75693","","null","","","null","76","","NaN","","","","","","","","","","","","","",""
"","response","","html-keyboard-response","532","628100","0.0-1.0-689.0-0.0","0","0","75693","","null","","","null","76","","","2","76","training","adjacent","AB","1","2","O.jpg","Q.jpg","NaN","1","0","",""
"","too_slow_prompt","","html-keyboard-response","533","629108","0.0-1.0-691.0-0.0","1","0","75693","","null","","","null","","","","","","","","","","","","","","","","",""
"","time_out","","html-keyboard-response","534","631115","0.0-1.0-692.0-0.0","0","0","75693","","null","","","null","76","","","","","","","","","","","","","","","",""
"","ITI","","html-keyboard-response","535","632131","0.0-1.0-693.0","0","0","75693","","null","","","null","76","","","","","","","","","","","","","","","NaN",""
"","S1","","html-keyboard-response","536","632387","0.0-1.0-695.0","0","0","75693","","null","","","null","77","","","","","","","","","","","","","","","",""
"","ISI","","html-keyboard-response","537","632540","0.0-1.0-696.0","0","0","75693","","null","","","null","77","NaN","","","","","","","","","","","","","","",""
"","S2","","html-keyboard-response","538","632796","0.0-1.0-697.0","0","0","75693","","null","","","null","77","","NaN","","","","","","","","","","","","","",""
"","response","","html-keyboard-response","539","634547","0.0-1.0-698.0-0.0","0","0","75693","","null","","","null","77","","","2","77","training","adjacent","EF","5","6","P.jpg","M.jpg","NaN","1","0","",""
"","too_slow_prompt","","html-keyboard-response","540","635556","0.0-1.0-700.0-0.0","1","0","75693","","null","","","null","","","","","","","","","","","","","","","","",""
"","time_out","","html-keyboard-response","541","637563","0.0-1.0-701.0-0.0","0","0","75693","","null","","","null","77","","","","","","","","","","","","","","","",""
"","ITI","","html-keyboard-response","542","638589","0.0-1.0-702.0","0","0","75693","","72","","","83","77","","","","","","","","","","","","","","","s",""
"","S1","","html-keyboard-response","543","638843","0.0-1.0-704.0","0","0","75693","","null","","","null","78","","","","","","","","","","","","","","","",""
"","ISI","","html-keyboard-response","544","638996","0.0-1.0-705.0","0","0","75693","","135","","","68","78","d","","","","","","","","","","","","","","",""
"","S2","","html-keyboard-response","545","639251","0.0-1.0-706.0","0","0","75693","","null","","","null","78","","NaN","","","","","","","","","","","","","",""
"","response","","html-keyboard-response","546","640921","0.0-1.0-707.0-0.0","0","0","75693","","1668","","","68","78","","","2","78","training","adjacent","CB","3","2","N.jpg","Q.jpg","0","0","1","",""
"","feedback","","html-keyboard-response","547","641930","0.0-1.0-708.0-0.0","0","0","75693","","null","","","null","78","","","","","","","","","","","","","","","",""
"","ITI","","html-keyboard-response","548","642940","0.0-1.0-711.0","0","0","75693","","115","","","65","78","","","","","","","","","","","","","","","a",""
"","S1","","html-keyboard-response","549","643195","0.0-1.0-713.0","0","0","75693","","null","","","null","79","","","","","","","","","","","","","","","",""
"","ISI","","html-keyboard-response","550","643348","0.0-1.0-714.0","0","0","75693","","51","","","87","79","w","","","","","","","","","","","","","","",""
"","S2","","html-keyboard-response","551","643604","0.0-1.0-715.0","0","0","75693","","null","","","null","79","","NaN","","","","","","","","","","","","","",""
"","response","","html-keyboard-response","552","644407","0.0-1.0-716.0-0.0","0","0","75693","","801","","","68","79","","","2","79","training","adjacent","DE","4","5","L.jpg","P.jpg","0","1","0","",""
"","feedback","","html-keyboard-response","553","645411","0.0-1.0-717.0-0.0","0","0","75693","","null","","","null","79","","","","","","","","","","","","","","","",""
"","time_out","","html-keyboard-response","554","647419","0.0-1.0-719.0-0.0","0","0","75693","","null","","","null","79","","","","","","","","","","","","","","","",""
"","ITI","","html-keyboard-response","555","648428","0.0-1.0-720.0","0","0","75693","","126","","","83","79","","","","","","","","","","","","","","","s",""
"","S1","","html-keyboard-response","556","648683","0.0-1.0-722.0","0","0","75693","","null","","","null","80","","","","","","","","","","","","","","","",""
"","ISI","","html-keyboard-response","557","648836","0.0-1.0-723.0","0","0","75693","","40","","","68","80","d","","","","","","","","","","","","","","",""
"","S2","","html-keyboard-response","558","648965","0.0-1.0-724.0","0","0","75693","","128","","","68","80","","d","2","80","training","adjacent","CB","3","2","N.jpg","Q.jpg","0","0","1","",""
"","feedback","","html-keyboard-response","559","649971","0.0-1.0-726.0-0.0","0","0","75693","","null","","","null","80","","","","","","","","","","","","","","","",""
"","ITI","","html-keyboard-response","560","650979","0.0-1.0-729.0","0","0","75693","","105","","","65","80","","","","","","","","","","","","","","","a",""
"","S1","","html-keyboard-response","561","651235","0.0-1.0-731.0","0","0","75693","","null","","","null","81","","","","","","","","","","","","","","","",""
"","ISI","","html-keyboard-response","562","651387","0.0-1.0-732.0","0","0","75693","","132","","","65","81","a","","","","","","","","","","","","","","",""
"","S2","","html-keyboard-response","563","651643","0.0-1.0-733.0","0","0","75693","","null","","","null","81","","NaN","","","","","","","","","","","","","",""
"","response","","html-keyboard-response","564","653395","0.0-1.0-734.0-0.0","0","0","75693","","null","","","null","81","","","2","81","training","adjacent","DC","4","3","L.jpg","N.jpg","NaN","0","0","",""
"","too_slow_prompt","","html-keyboard-response","565","654402","0.0-1.0-736.0-0.0","1","0","75693","","null","","","null","","","","","","","","","","","","","","","","",""
"","time_out","","html-keyboard-response","566","656439","0.0-1.0-737.0-0.0","0","0","75693","","null","","","null","81","","","","","","","","","","","","","","","",""
"","ITI","","html-keyboard-response","567","657443","0.0-1.0-738.0","0","0","75693","","0","","","83","81","","","","","","","","","","","","","","","s",""
"","S1","","html-keyboard-response","568","657699","0.0-1.0-740.0","0","0","75693","","null","","","null","82","","","","","","","","","","","","","","","",""
"","ISI","","html-keyboard-response","569","657851","0.0-1.0-741.0","0","0","75693","","null","","","null","82","NaN","","","","","","","","","","","","","","",""
"","S2","","html-keyboard-response","570","658107","0.0-1.0-742.0","0","0","75693","","null","","","null","82","","NaN","","","","","","","","","","","","","",""
"","response","","html-keyboard-response","571","659865","0.0-1.0-743.0-0.0","0","0","75693","","null","","","null","82","","","2","82","training","adjacent","CB","3","2","N.jpg","Q.jpg","NaN","0","0","",""
"","too_slow_prompt","","html-keyboard-response","572","660873","0.0-1.0-745.0-0.0","1","0","75693","","null","","","null","","","","","","","","","","","","","","","","",""
"","time_out","","html-keyboard-response","573","662882","0.0-1.0-746.0-0.0","0","0","75693","","null","","","null","82","","","","","","","","","","","","","","","",""
"","ITI","","html-keyboard-response","574","663890","0.0-1.0-747.0","0","0","75693","","102","","","65","82","","","","","","","","","","","","","","","a",""
"","S1","","html-keyboard-response","575","664145","0.0-1.0-749.0","0","0","75693","","null","","","null","83","","","","","","","","","","","","","","","",""
"","ISI","","html-keyboard-response","576","664298","0.0-1.0-750.0","0","0","75693","","32","","","65","83","a","","","","","","","","","","","","","","",""
"","S2","","html-keyboard-response","577","664555","0.0-1.0-751.0","0","0","75693","","null","","","null","83","","NaN","","","","","","","","","","","","","",""
"","response","","html-keyboard-response","578","666314","0.0-1.0-752.0-0.0","0","0","75693","","null","","","null","83","","","2","83","training","adjacent","CD","3","4","N.jpg","L.jpg","NaN","1","0","",""
