"success","ttype","start_time","trial_type","trial_index","time_elapsed","internal_node_id","warning","missed_checkup","PID","view_history","rt","responses","repeat_instructions","key_press","index","keypress_isi","keypress_S2","block","trial_num","phase","group_type","pair_type","S1_stim","S2_stim","S1_img","S2_img","S1_chosen","S1_higher","accuracy","keypress_iti","total_bonus_tally"
"true","full_screen","d04132023hr1359","fullscreen","0","2446","0.0-0.0","0","0","93174","","","","","","","","","","","","","","","","","","","","","",""
"","instructions","","instructions","1","7557","0.0-1.0-0.0-0.0","0","0","93174","[{""page_index"":0,""viewing_time"":1390},{""page_index"":1,""viewing_time"":2159},{""page_index"":2,""viewing_time"":617},{""page_index"":3,""viewing_time"":944}]","5110","","","","","","","","","","","","","","","","","","","",""
"","comprehension_check","","survey-multi-choice","2","17645","0.0-1.0-0.0-1.0","0","0","93174","","10084","{""Q0"":""True"",""Q1"":""D"",""Q2"":""Once the second image appears and while the screen 'MAKE A CHOICE' is shown"",""Q3"":""Green mark"",""Q4"":""either D or K""}","0","","","","","","","","","","","","","","","","","",""
"","start_exp","","html-keyboard-response","3","20173","0.0-1.0-1.0","0","0","93174","","2525","","","32","","","","","","","","","","","","","","","","",""
"","S1","","html-keyboard-response","4","20425","0.0-1.0-2.0","0","0","93174","","null","","","null","0","","","","","","","","","","","","","","","",""
"","ISI","","html-keyboard-response","5","21435","0.0-1.0-3.0","0","0","93174","","null","","","null","0","NaN","","","","","","","","","","","","","","",""
"","S2","","html-keyboard-response","6","21700","0.0-1.0-4.0","0","0","93174","","null","","","null","0","","NaN","","","","","","","","","","","","","",""
"","response","","html-keyboard-response","7","22541","0.0-1.0-5.0-0.0","0","0","93174","","840","","","75","0","","","1","0","training","adjacent","GF","7","6","N.jpg","L.jpg","0","0","1","",""
"","feedback","","html-keyboard-response","8","23550","0.0-1.0-6.0-0.0","0","0","93174","","null","","","null","0","","","","","","","","","","","","","","","",""
"","ITI","","html-keyboard-response","9","24565","0.0-1.0-9.0","0","0","93174","","null","","","null","0","","","","","","","","","","","","","","","NaN",""
"","S1","","html-keyboard-response","10","24830","0.0-1.0-11.0","0","0","93174","","null","","","null","1","","","","","","","","","","","","","","","",""
"","ISI","","html-keyboard-response","11","25842","0.0-1.0-12.0","0","0","93174","","null","","","null","1","NaN","","","","","","","","","","","","","","",""
"","S2","","html-keyboard-response","12","26108","0.0-1.0-13.0","0","0","93174","","null","","","null","1","","NaN","","","","","","","","","","","","","",""
"","response","","html-keyboard-response","13","26477","0.0-1.0-14.0-0.0","0","0","93174","","367","","","68","1","","","1","1","training","adjacent","FG","6","7","L.jpg","N.jpg","1","1","1","",""
"","feedback","","html-keyboard-response","14","27494","0.0-1.0-15.0-0.0","0","0","93174","","null","","","null","1","","","","","","","","","","","","","","","",""
"","ITI","","html-keyboard-response","15","28509","0.0-1.0-18.0","0","0","93174","","null","","","null","1","","","","","","","","","","","","","","","NaN",""
"","S1","","html-keyboard-response","16","28772","0.0-1.0-20.0","0","0","93174","","null","","","null","2","","","","","","","","","","","","","","","",""
"","ISI","","html-keyboard-response","17","29783","0.0-1.0-21.0","0","0","93174","","null","","","null","2","NaN","","","","","","","","","","","","","","",""
"","S2","","html-keyboard-response","18","30047","0.0-1.0-22.0","0","0","93174","","null","","","null","2","","NaN","","","","","","","","","","","","","",""
"","response","","html-keyboard-response","19","30589","0.0-1.0-23.0-0.0","0","0","93174","","541","","","75","2","","","1","2","training","adjacent","BA","2","1","O.jpg","P.jpg","0","0","1","",""
"","feedback","","html-keyboard-response","20","31592","0.0-1.0-24.0-0.0","0","0","93174","","null","","","null","2","","","","","","","","","","","","","","","",""
"","ITI","","html-keyboard-response","21","32595","0.0-1.0-27.0","0","0","93174","","null","","","null","2","","","","","","","","","","","","","","","NaN",""
"","S1","","html-keyboard-response","22","32848","0.0-1.0-29.0","0","0","93174","","null","","","null","3","","","","","","","","","","","","","","","",""
"","ISI","","html-keyboard-response","23","33851","0.0-1.0-30.0","0","0","93174","","null","","","null","3","NaN","","","","","","","","","","","","","","",""
"","S2","","html-keyboard-response","24","34104","0.0-1.0-31.0","0","0","93174","","null","","","null","3","","NaN","","","","","","","","","","","","","",""
"","response","","html-keyboard-response","25","34669","0.0-1.0-32.0-0.0","0","0","93174","","563","","","75","3","","","1","3","training","adjacent","DC","4","3","M.jpg","R.jpg","0","0","1","",""
"","feedback","","html-keyboard-response","26","35671","0.0-1.0-33.0-0.0","0","0","93174","","null","","","null","3","","","","","","","","","","","","","","","",""
"","ITI","","html-keyboard-response","27","36673","0.0-1.0-36.0","0","0","93174","","null","","","null","3","","","","","","","","","","","","","","","NaN",""
"","S1","","html-keyboard-response","28","36934","0.0-1.0-38.0","0","0","93174","","null","","","null","4","","","","","","","","","","","","","","","",""
"","ISI","","html-keyboard-response","29","37936","0.0-1.0-39.0","0","0","93174","","null","","","null","4","NaN","","","","","","","","","","","","","","",""
"","S2","","html-keyboard-response","30","38188","0.0-1.0-40.0","0","0","93174","","null","","","null","4","","NaN","","","","","","","","","","","","","",""
"","response","","html-keyboard-response","31","38541","0.0-1.0-41.0-0.0","0","0","93174","","350","","","68","4","","","1","4","training","adjacent","FG","6","7","L.jpg","N.jpg","1","1","1","",""
"","feedback","","html-keyboard-response","32","39543","0.0-1.0-42.0-0.0","0","0","93174","","null","","","null","4","","","","","","","","","","","","","","","",""
"","ITI","","html-keyboard-response","33","40545","0.0-1.0-45.0","0","0","93174","","null","","","null","4","","","","","","","","","","","","","","","NaN",""
"","S1","","html-keyboard-response","34","40799","0.0-1.0-47.0","0","0","93174","","null","","","null","5","","","","","","","","","","","","","","","",""
"","ISI","","html-keyboard-response","35","41800","0.0-1.0-48.0","0","0","93174","","null","","","null","5","NaN","","","","","","","","","","","","","","",""
"","S2","","html-keyboard-response","36","42052","0.0-1.0-49.0","0","0","93174","","null","","","null","5","","NaN","","","","","","","","","","","","","",""
"","response","","html-keyboard-response","37","42508","0.0-1.0-50.0-0.0","0","0","93174","","454","","","68","5","","","1","5","training","adjacent","CB","3","2","R.jpg","O.jpg","1","0","0","",""
"","feedback","","html-keyboard-response","38","43510","0.0-1.0-51.0-0.0","0","0","93174","","null","","","null","5","","","","","","","","","","","","","","","",""
"","time_out","","html-keyboard-response","39","45513","0.0-1.0-53.0-0.0","0","0","93174","","null","","","null","5","","","","","","","","","","","","","","","",""
"","ITI","","html-keyboard-response","40","46515","0.0-1.0-54.0","0","0","93174","","null","","","null","5","","","","","","","","","","","","","","","NaN",""
"","S1","","html-keyboard-response","41","46778","0.0-1.0-56.0","0","0","93174","","null","","","null","6","","","","","","","","","","","","","","","",""
"","ISI","","html-keyboard-response","42","47786","0.0-1.0-57.0","0","0","93174","","null","","","null","6","NaN","","","","","","","","","","","","","","",""
"","S2","","html-keyboard-response","43","48038","0.0-1.0-58.0","0","0","93174","","null","","","null","6","","NaN","","","","","","","","","","","","","",""
"","response","","html-keyboard-response","44","48303","0.0-1.0-59.0-0.0","0","0","93174","","263","","","68","6","","","1","6","training","adjacent","FG","6","7","L.jpg","N.jpg","1","1","1","",""
"","feedback","","html-keyboard-response","45","49305","0.0-1.0-60.0-0.0","0","0","93174","","null","","","null","6","","","","","","","","","","","","","","","",""
"","ITI","","html-keyboard-response","46","50307","0.0-1.0-63.0","0","0","93174","","null","","","null","6","","","","","","","","","","","","","","","NaN",""
"","S1","","html-keyboard-response","47","50559","0.0-1.0-65.0","0","0","93174","","null","","","null","7","","","","","","","","","","","","","","","",""
"","ISI","","html-keyboard-response","48","51561","0.0-1.0-66.0","0","0","93174","","null","","","null","7","NaN","","","","","","","","","","","","","","",""
"","S2","","html-keyboard-response","49","51814","0.0-1.0-67.0","0","0","93174","","null","","","null","7","","NaN","","","","","","","","","","","","","",""
"","response","","html-keyboard-response","50","52205","0.0-1.0-68.0-0.0","0","0","93174","","389","","","75","7","","","1","7","training","adjacent","AB","1","2","P.jpg","O.jpg","0","1","0","",""
"","feedback","","html-keyboard-response","51","53216","0.0-1.0-69.0-0.0","0","0","93174","","null","","","null","7","","","","","","","","","","","","","","","",""
"","time_out","","html-keyboard-response","52","55218","0.0-1.0-71.0-0.0","0","0","93174","","null","","","null","7","","","","","","","","","","","","","","","",""
"","ITI","","html-keyboard-response","53","56219","0.0-1.0-72.0","0","0","93174","","null","","","null","7","","","","","","","","","","","","","","","NaN",""
"","S1","","html-keyboard-response","54","56472","0.0-1.0-74.0","0","0","93174","","null","","","null","8","","","","","","","","","","","","","","","",""
"","ISI","","html-keyboard-response","55","57474","0.0-1.0-75.0","0","0","93174","","null","","","null","8","NaN","","","","","","","","","","","","","","",""
"","S2","","html-keyboard-response","56","57726","0.0-1.0-76.0","0","0","93174","","null","","","null","8","","NaN","","","","","","","","","","","","","",""
"","response","","html-keyboard-response","57","58206","0.0-1.0-77.0-0.0","0","0","93174","","478","","","75","8","","","1","8","training","adjacent","DE","4","5","M.jpg","Q.jpg","0","1","0","",""
"","feedback","","html-keyboard-response","58","59210","0.0-1.0-78.0-0.0","0","0","93174","","null","","","null","8","","","","","","","","","","","","","","","",""
"","time_out","","html-keyboard-response","59","61212","0.0-1.0-80.0-0.0","0","0","93174","","null","","","null","8","","","","","","","","","","","","","","","",""
"","ITI","","html-keyboard-response","60","62215","0.0-1.0-81.0","0","0","93174","","null","","","null","8","","","","","","","","","","","","","","","NaN",""
"","S1","","html-keyboard-response","61","62467","0.0-1.0-83.0","0","0","93174","","null","","","null","9","","","","","","","","","","","","","","","",""
"","ISI","","html-keyboard-response","62","63470","0.0-1.0-84.0","0","0","93174","","null","","","null","9","NaN","","","","","","","","","","","","","","",""
"","S2","","html-keyboard-response","63","63722","0.0-1.0-85.0","0","0","93174","","null","","","null","9","","NaN","","","","","","","","","","","","","",""
"","response","","html-keyboard-response","64","64109","0.0-1.0-86.0-0.0","0","0","93174","","386","","","75","9","","","1","9","training","adjacent","GF","7","6","N.jpg","L.jpg","0","0","1","",""
"","feedback","","html-keyboard-response","65","65111","0.0-1.0-87.0-0.0","0","0","93174","","null","","","null","9","","","","","","","","","","","","","","","",""
"","ITI","","html-keyboard-response","66","66113","0.0-1.0-90.0","0","0","93174","","null","","","null","9","","","","","","","","","","","","","","","NaN",""
"","S1","","html-keyboard-response","67","66365","0.0-1.0-92.0","0","0","93174","","null","","","null","10","","","","","","","","","","","","","","","",""
"","ISI","","html-keyboard-response","68","67368","0.0-1.0-93.0","0","0","93174","","null","","","null","10","NaN","","","","","","","","","","","","","","",""
"","S2","","html-keyboard-response","69","67620","0.0-1.0-94.0","0","0","93174","","null","","","null","10","","NaN","","","","","","","","","","","","","",""
"","response","","html-keyboard-response","70","67885","0.0-1.0-95.0-0.0","0","0","93174","","264","","","68","10","","","1","10","training","adjacent","CD","3","4","R.jpg","M.jpg","1","1","1","",""
"","feedback","","html-keyboard-response","71","68891","0.0-1.0-96.0-0.0","0","0","93174","","null","","","null","10","","","","","","","","","","","","","","","",""
"","ITI","","html-keyboard-response","72","69905","0.0-1.0-99.0","0","0","93174","","null","","","null","10","","","","","","","","","","","","","","","NaN",""
"","S1","","html-keyboard-response","73","70158","0.0-1.0-101.0","0","0","93174","","null","","","null","11","","","","","","","","","","","","","","","",""
"","ISI","","html-keyboard-response","74","71161","0.0-1.0-102.0","0","0","93174","","null","","","null","11","NaN","","","","","","","","","","","","","","",""
"","S2","","html-keyboard-response","75","71414","0.0-1.0-103.0","0","0","93174","","null","","","null","11","","NaN","","","","","","","","","","","","","",""
"","response","","html-keyboard-response","76","71709","0.0-1.0-104.0-0.0","0","0","93174","","294","","","75","11","","","1","11","training","adjacent","EF","5","6","Q.jpg","L.jpg","0","1","0","",""
"","feedback","","html-keyboard-response","77","72712","0.0-1.0-105.0-0.0","0","0","93174","","null","","","null","11","","","","","","","","","","","","","","","",""
"","time_out","","html-keyboard-response","78","74713","0.0-1.0-107.0-0.0","0","0","93174","","null","","","null","11","","","","","","","","","","","","","","","",""
"","ITI","","html-keyboard-response","79","75715","0.0-1.0-108.0","0","0","93174","","null","","","null","11","","","","","","","","","","","","","","","NaN",""
"","S1","","html-keyboard-response","80","75968","0.0-1.0-110.0","0","0","93174","","null","","","null","12","","","","","","","","","","","","","","","",""
"","ISI","","html-keyboard-response","81","76970","0.0-1.0-111.0","0","0","93174","","null","","","null","12","NaN","","","","","","","","","","","","","","",""
"","S2","","html-keyboard-response","82","77222","0.0-1.0-112.0","0","0","93174","","null","","","null","12","","NaN","","","","","","","","","","","","","",""
"","response","","html-keyboard-response","83","77741","0.0-1.0-113.0-0.0","0","0","93174","","518","","","68","12","","","1","12","training","adjacent","ED","5","4","Q.jpg","M.jpg","1","0","0","",""
"","feedback","","html-keyboard-response","84","78744","0.0-1.0-114.0-0.0","0","0","93174","","null","","","null","12","","","","","","","","","","","","","","","",""
"","time_out","","html-keyboard-response","85","80746","0.0-1.0-116.0-0.0","0","0","93174","","null","","","null","12","","","","","","","","","","","","","","","",""
"","ITI","","html-keyboard-response","86","81748","0.0-1.0-117.0","0","0","93174","","null","","","null","12","","","","","","","","","","","","","","","NaN",""
"","S1","","html-keyboard-response","87","82000","0.0-1.0-119.0","0","0","93174","","null","","","null","13","","","","","","","","","","","","","","","",""
"","ISI","","html-keyboard-response","88","83002","0.0-1.0-120.0","0","0","93174","","null","","","null","13","NaN","","","","","","","","","","","","","","",""
"","S2","","html-keyboard-response","89","83254","0.0-1.0-121.0","0","0","93174","","null","","","null","13","","NaN","","","","","","","","","","","","","",""
"","response","","html-keyboard-response","90","83693","0.0-1.0-122.0-0.0","0","0","93174","","438","","","75","13","","","1","13","training","adjacent","DC","4","3","M.jpg","R.jpg","0","0","1","",""
"","feedback","","html-keyboard-response","91","84696","0.0-1.0-123.0-0.0","0","0","93174","","null","","","null","13","","","","","","","","","","","","","","","",""
"","ITI","","html-keyboard-response","92","85698","0.0-1.0-126.0","0","0","93174","","null","","","null","13","","","","","","","","","","","","","","","NaN",""
"","S1","","html-keyboard-response","93","85951","0.0-1.0-128.0","0","0","93174","","null","","","null","14","","","","","","","","","","","","","","","",""
"","ISI","","html-keyboard-response","94","86953","0.0-1.0-129.0","0","0","93174","","null","","","null","14","NaN","","","","","","","","","","","","","","",""
"","S2","","html-keyboard-response","95","87207","0.0-1.0-130.0","0","0","93174","","null","","","null","14","","NaN","","","","","","","","","","","","","",""
"","response","","html-keyboard-response","96","87341","0.0-1.0-131.0-0.0","0","0","93174","","133","","","75","14","","","1","14","training","adjacent","AB","1","2","P.jpg","O.jpg","0","1","0","",""
"","feedback","","html-keyboard-response","97","88344","0.0-1.0-132.0-0.0","0","0","93174","","null","","","null","14","","","","","","","","","","","","","","","",""
"","time_out","","html-keyboard-response","98","90346","0.0-1.0-134.0-0.0","0","0","93174","","null","","","null","14","","","","","","","","","","","","","","","",""
"","ITI","","html-keyboard-response","99","91349","0.0-1.0-135.0","0","0","93174","","null","","","null","14","","","","","","","","","","","","","","","NaN",""
"","S1","","html-keyboard-response","100","91601","0.0-1.0-137.0","0","0","93174","","null","","","null","15","","","","","","","","","","","","","","","",""
"","ISI","","html-keyboard-response","101","92603","0.0-1.0-138.0","0","0","93174","","null","","","null","15","NaN","","","","","","","","","","","","","","",""
"","S2","","html-keyboard-response","102","92856","0.0-1.0-139.0","0","0","93174","","null","","","null","15","","NaN","","","","","","","","","","","","","",""
"","response","","html-keyboard-response","103","93197","0.0-1.0-140.0-0.0","0","0","93174","","339","","","68","15","","","1","15","training","adjacent","DC","4","3","M.jpg","R.jpg","1","0","0","",""
"","feedback","","html-keyboard-response","104","94200","0.0-1.0-141.0-0.0","0","0","93174","","null","","","null","15","","","","","","","","","","","","","","","",""
"","time_out","","html-keyboard-response","105","96202","0.0-1.0-143.0-0.0","0","0","93174","","null","","","null","15","","","","","","","","","","","","","","","",""
"","ITI","","html-keyboard-response","106","97204","0.0-1.0-144.0","0","0","93174","","null","","","null","15","","","","","","","","","","","","","","","NaN",""
"","S1","","html-keyboard-response","107","97468","0.0-1.0-146.0","0","0","93174","","null","","","null","16","","","","","","","","","","","","","","","",""
"","ISI","","html-keyboard-response","108","98470","0.0-1.0-147.0","0","0","93174","","null","","","null","16","NaN","","","","","","","","","","","","","","",""
"","S2","","html-keyboard-response","109","98723","0.0-1.0-148.0","0","0","93174","","null","","","null","16","","NaN","","","","","","","","","","","","","",""
"","response","","html-keyboard-response","110","98957","0.0-1.0-149.0-0.0","0","0","93174","","233","","","75","16","","","1","16","training","adjacent","EF","5","6","Q.jpg","L.jpg","0","1","0","",""
"","feedback","","html-keyboard-response","111","99960","0.0-1.0-150.0-0.0","0","0","93174","","null","","","null","16","","","","","","","","","","","","","","","",""
"","time_out","","html-keyboard-response","112","101962","0.0-1.0-152.0-0.0","0","0","93174","","null","","","null","16","","","","","","","","","","","","","","","",""
"","ITI","","html-keyboard-response","113","102963","0.0-1.0-153.0","0","0","93174","","null","","","null","16","","","","","","","","","","","","","","","NaN",""
"","S1","","html-keyboard-response","114","103215","0.0-1.0-155.0","0","0","93174","","null","","","null","17","","","","","","","","","","","","","","","",""
"","ISI","","html-keyboard-response","115","104232","0.0-1.0-156.0","0","0","93174","","null","","","null","17","NaN","","","","","","","","","","","","","","",""
"","S2","","html-keyboard-response","116","104484","0.0-1.0-157.0","0","0","93174","","null","","","null","17","","NaN","","","","","","","","","","","","","",""
"","response","","html-keyboard-response","117","104621","0.0-1.0-158.0-0.0","0","0","93174","","136","","","68","17","","","1","17","training","adjacent","CD","3","4","R.jpg","M.jpg","1","1","1","",""
"","feedback","","html-keyboard-response","118","105624","0.0-1.0-159.0-0.0","0","0","93174","","null","","","null","17","","","","","","","","","","","","","","","",""
"","ITI","","html-keyboard-response","119","106627","0.0-1.0-162.0","0","0","93174","","null","","","null","17","","","","","","","","","","","","","","","NaN",""
"","S1","","html-keyboard-response","120","106880","0.0-1.0-164.0","0","0","93174","","null","","","null","18","","","","","","","","","","","","","","","",""
"","ISI","","html-keyboard-response","121","107882","0.0-1.0-165.0","0","0","93174","","null","","","null","18","NaN","","","","","","","","","","","","","","",""
"","S2","","html-keyboard-response","122","108134","0.0-1.0-166.0","0","0","93174","","null","","","null","18","","NaN","","","","","","","","","","","","","",""
"","response","","html-keyboard-response","123","108941","0.0-1.0-167.0-0.0","0","0","93174","","805","","","68","18","","","1","18","training","adjacent","CD","3","4","R.jpg","M.jpg","1","1","1","",""
"","feedback","","html-keyboard-response","124","109944","0.0-1.0-168.0-0.0","0","0","93174","","null","","","null","18","","","","","","","","","","","","","","","",""
"","ITI","","html-keyboard-response","125","110946","0.0-1.0-171.0","0","0","93174","","null","","","null","18","","","","","","","","","","","","","","","NaN",""
"","S1","","html-keyboard-response","126","111199","0.0-1.0-173.0","0","0","93174","","null","","","null","19","","","","","","","","","","","","","","","",""
"","ISI","","html-keyboard-response","127","112201","0.0-1.0-174.0","0","0","93174","","null","","","null","19","NaN","","","","","","","","","","","","","","",""
"","S2","","html-keyboard-response","128","112453","0.0-1.0-175.0","0","0","93174","","null","","","null","19","","NaN","","","","","","","","","","","","","",""
"","response","","html-keyboard-response","129","112861","0.0-1.0-176.0-0.0","0","0","93174","","407","","","75","19","","","1","19","training","adjacent","DE","4","5","M.jpg","Q.jpg","0","1","0","",""
"","feedback","","html-keyboard-response","130","113863","0.0-1.0-177.0-0.0","0","0","93174","","null","","","null","19","","","","","","","","","","","","","","","",""
"","time_out","","html-keyboard-response","131","115866","0.0-1.0-179.0-0.0","0","0","93174","","null","","","null","19","","","","","","","","","","","","","","","",""
"","ITI","","html-keyboard-response","132","116868","0.0-1.0-180.0","0","0","93174","","null","","","null","19","","","","","","","","","","","","","","","NaN",""
"","S1","","html-keyboard-response","133","117120","0.0-1.0-182.0","0","0","93174","","null","","","null","20","","","","","","","","","","","","","","","",""
"","ISI","","html-keyboard-response","134","118122","0.0-1.0-183.0","0","0","93174","","null","","","null","20","NaN","","","","","","","","","","","","","","",""
"","S2","","html-keyboard-response","135","118374","0.0-1.0-184.0","0","0","93174","","null","","","null","20","","NaN","","","","","","","","","","","","","",""
"","response","","html-keyboard-response","136","118861","0.0-1.0-185.0-0.0","0","0","93174","","486","","","68","20","","","1","20","training","adjacent","FE","6","5","L.jpg","Q.jpg","1","0","0","",""
"","feedback","","html-keyboard-response","137","119863","0.0-1.0-186.0-0.0","0","0","93174","","null","","","null","20","","","","","","","","","","","","","","","",""
"","time_out","","html-keyboard-response","138","121876","0.0-1.0-188.0-0.0","0","0","93174","","null","","","null","20","","","","","","","","","","","","","","","",""
"","ITI","","html-keyboard-response","139","122878","0.0-1.0-189.0","0","0","93174","","null","","","null","20","","","","","","","","","","","","","","","NaN",""
"","S1","","html-keyboard-response","140","123135","0.0-1.0-191.0","0","0","93174","","null","","","null","21","","","","","","","","","","","","","","","",""
"","ISI","","html-keyboard-response","141","124137","0.0-1.0-192.0","0","0","93174","","null","","","null","21","NaN","","","","","","","","","","","","","","",""
"","S2","","html-keyboard-response","142","124389","0.0-1.0-193.0","0","0","93174","","null","","","null","21","","NaN","","","","","","","","","","","","","",""
"","response","","html-keyboard-response","143","125021","0.0-1.0-194.0-0.0","0","0","93174","","630","","","75","21","","","1","21","training","adjacent","GF","7","6","N.jpg","L.jpg","0","0","1","",""
"","feedback","","html-keyboard-response","144","126023","0.0-1.0-195.0-0.0","0","0","93174","","null","","","null","21","","","","","","","","","","","","","","","",""
"","ITI","","html-keyboard-response","145","127026","0.0-1.0-198.0","0","0","93174","","null","","","null","21","","","","","","","","","","","","","","","NaN",""
"","S1","","html-keyboard-response","146","127277","0.0-1.0-200.0","0","0","93174","","null","","","null","22","","","","","","","","","","","","","","","",""
"","ISI","","html-keyboard-response","147","128279","0.0-1.0-201.0","0","0","93174","","null","","","null","22","NaN","","","","","","","","","","","","","","",""
"","S2","","html-keyboard-response","148","128532","0.0-1.0-202.0","0","0","93174","","null","","","null","22","","NaN","","","","","","","","","","","","","",""
"","response","","html-keyboard-response","149","129182","0.0-1.0-203.0-0.0","0","0","93174","","649","","","75","22","","","1","22","training","adjacent","DE","4","5","M.jpg","Q.jpg","0","1","0","",""
"","feedback","","html-keyboard-response","150","130193","0.0-1.0-204.0-0.0","0","0","93174","","null","","","null","22","","","","","","","","","","","","","","","",""
"","time_out","","html-keyboard-response","151","132195","0.0-1.0-206.0-0.0","0","0","93174","","null","","","null","22","","","","","","","","","","","","","","","",""
"","ITI","","html-keyboard-response","152","133198","0.0-1.0-207.0","0","0","93174","","null","","","null","22","","","","","","","","","","","","","","","NaN",""
"","S1","","html-keyboard-response","153","133450","0.0-1.0-209.0","0","0","93174","","null","","","null","23","","","","","","","","","","","","","","","",""
"","ISI","","html-keyboard-response","154","134452","0.0-1.0-210.0","0","0","93174","","null","","","null","23","NaN","","","","","","","","","","","","","","",""
"","S2","","html-keyboard-response","155","134705","0.0-1.0-211.0","0","0","93174","","null","","","null","23","","NaN","","","","","","","","","","","","","",""
"","response","","html-keyboard-response","156","135229","0.0-1.0-212.0-0.0","0","0","93174","","523","","","75","23","","","1","23","training","adjacent","BC","2","3","O.jpg","R.jpg","0","1","0","",""
"","feedback","","html-keyboard-response","157","136246","0.0-1.0-213.0-0.0","0","0","93174","","null","","","null","23","","","","","","","","","","","","","","","",""
"","time_out","","html-keyboard-response","158","138248","0.0-1.0-215.0-0.0","0","0","93174","","null","","","null","23","","","","","","","","","","","","","","","",""
"","ITI","","html-keyboard-response","159","139250","0.0-1.0-216.0","0","0","93174","","null","","","null","23","","","","","","","","","","","","","","","NaN",""
"","S1","","html-keyboard-response","160","139502","0.0-1.0-218.0","0","0","93174","","null","","","null","24","","","","","","","","","","","","","","","",""
"","ISI","","html-keyboard-response","161","140505","0.0-1.0-219.0","0","0","93174","","null","","","null","24","NaN","","","","","","","","","","","","","","",""
"","S2","","html-keyboard-response","162","140759","0.0-1.0-220.0","0","0","93174","","null","","","null","24","","NaN","","","","","","","","","","","","","",""
"","response","","html-keyboard-response","163","141117","0.0-1.0-221.0-0.0","0","0","93174","","357","","","68","24","","","1","24","training","adjacent","CB","3","2","R.jpg","O.jpg","1","0","0","",""
"","feedback","","html-keyboard-response","164","142121","0.0-1.0-222.0-0.0","0","0","93174","","null","","","null","24","","","","","","","","","","","","","","","",""
"","time_out","","html-keyboard-response","165","144123","0.0-1.0-224.0-0.0","0","0","93174","","null","","","null","24","","","","","","","","","","","","","","","",""
"","ITI","","html-keyboard-response","166","145126","0.0-1.0-225.0","0","0","93174","","null","","","null","24","","","","","","","","","","","","","","","NaN",""
"","S1","","html-keyboard-response","167","145378","0.0-1.0-227.0","0","0","93174","","null","","","null","25","","","","","","","","","","","","","","","",""
"","ISI","","html-keyboard-response","168","146380","0.0-1.0-228.0","0","0","93174","","null","","","null","25","NaN","","","","","","","","","","","","","","",""
"","S2","","html-keyboard-response","169","146632","0.0-1.0-229.0","0","0","93174","","null","","","null","25","","NaN","","","","","","","","","","","","","",""
"","response","","html-keyboard-response","170","146941","0.0-1.0-230.0-0.0","0","0","93174","","307","","","75","25","","","1","25","training","adjacent","AB","1","2","P.jpg","O.jpg","0","1","0","",""
"","feedback","","html-keyboard-response","171","147944","0.0-1.0-231.0-0.0","0","0","93174","","null","","","null","25","","","","","","","","","","","","","","","",""
"","time_out","","html-keyboard-response","172","149946","0.0-1.0-233.0-0.0","0","0","93174","","null","","","null","25","","","","","","","","","","","","","","","",""
"","ITI","","html-keyboard-response","173","150949","0.0-1.0-234.0","0","0","93174","","null","","","null","25","","","","","","","","","","","","","","","NaN",""
"","S1","","html-keyboard-response","174","151202","0.0-1.0-236.0","0","0","93174","","null","","","null","26","","","","","","","","","","","","","","","",""
"","ISI","","html-keyboard-response","175","152204","0.0-1.0-237.0","0","0","93174","","null","","","null","26","NaN","","","","","","","","","","","","","","",""
"","S2","","html-keyboard-response","176","152462","0.0-1.0-238.0","0","0","93174","","null","","","null","26","","NaN","","","","","","","","","","","","","",""
"","response","","html-keyboard-response","177","152605","0.0-1.0-239.0-0.0","0","0","93174","","141","","","68","26","","","1","26","training","adjacent","BC","2","3","O.jpg","R.jpg","1","1","1","",""
"","feedback","","html-keyboard-response","178","153608","0.0-1.0-240.0-0.0","0","0","93174","","null","","","null","26","","","","","","","","","","","","","","","",""
"","ITI","","html-keyboard-response","179","154611","0.0-1.0-243.0","0","0","93174","","null","","","null","26","","","","","","","","","","","","","","","NaN",""
"","S1","","html-keyboard-response","180","154863","0.0-1.0-245.0","0","0","93174","","null","","","null","27","","","","","","","","","","","","","","","",""
"","ISI","","html-keyboard-response","181","155866","0.0-1.0-246.0","0","0","93174","","null","","","null","27","NaN","","","","","","","","","","","","","","",""
"","S2","","html-keyboard-response","182","156118","0.0-1.0-247.0","0","0","93174","","null","","","null","27","","NaN","","","","","","","","","","","","","",""
"","response","","html-keyboard-response","183","156414","0.0-1.0-248.0-0.0","0","0","93174","","295","","","68","27","","","1","27","training","adjacent","FE","6","5","L.jpg","Q.jpg","1","0","0","",""
"","feedback","","html-keyboard-response","184","157417","0.0-1.0-249.0-0.0","0","0","93174","","null","","","null","27","","","","","","","","","","","","","","","",""
"","time_out","","html-keyboard-response","185","159419","0.0-1.0-251.0-0.0","0","0","93174","","null","","","null","27","","","","","","","","","","","","","","","",""
"","ITI","","html-keyboard-response","186","160422","0.0-1.0-252.0","0","0","93174","","null","","","null","27","","","","","","","","","","","","","","","NaN",""
"","S1","","html-keyboard-response","187","160675","0.0-1.0-254.0","0","0","93174","","null","","","null","28","","","","","","","","","","","","","","","",""
"","ISI","","html-keyboard-response","188","161676","0.0-1.0-255.0","0","0","93174","","null","","","null","28","NaN","","","","","","","","","","","","","","",""
"","S2","","html-keyboard-response","189","161928","0.0-1.0-256.0","0","0","93174","","null","","","null","28","","NaN","","","","","","","","","","","","","",""
"","response","","html-keyboard-response","190","162429","0.0-1.0-257.0-0.0","0","0","93174","","499","","","75","28","","","1","28","training","adjacent","CB","3","2","R.jpg","O.jpg","0","0","1","",""
"","feedback","","html-keyboard-response","191","163431","0.0-1.0-258.0-0.0","0","0","93174","","null","","","null","28","","","","","","","","","","","","","","","",""
"","ITI","","html-keyboard-response","192","164433","0.0-1.0-261.0","0","0","93174","","null","","","null","28","","","","","","","","","","","","","","","NaN",""
"","S1","","html-keyboard-response","193","164685","0.0-1.0-263.0","0","0","93174","","null","","","null","29","","","","","","","","","","","","","","","",""
"","ISI","","html-keyboard-response","194","165687","0.0-1.0-264.0","0","0","93174","","null","","","null","29","NaN","","","","","","","","","","","","","","",""
"","S2","","html-keyboard-response","195","165938","0.0-1.0-265.0","0","0","93174","","null","","","null","29","","NaN","","","","","","","","","","","","","",""
"","response","","html-keyboard-response","196","165981","0.0-1.0-266.0-0.0","0","0","93174","","42","","","75","29","","","1","29","training","adjacent","DC","4","3","M.jpg","R.jpg","0","0","1","",""
"","feedback","","html-keyboard-response","197","166983","0.0-1.0-267.0-0.0","0","0","93174","","null","","","null","29","","","","","","","","","","","","","","","",""
"","ITI","","html-keyboard-response","198","167985","0.0-1.0-270.0","0","0","93174","","null","","","null","29","","","","","","","","","","","","","","","NaN",""
"","S1","","html-keyboard-response","199","168237","0.0-1.0-272.0","0","0","93174","","null","","","null","30","","","","","","","","","","","","","","","",""
"","ISI","","html-keyboard-response","200","169240","0.0-1.0-273.0","0","0","93174","","null","","","null","30","NaN","","","","","","","","","","","","","","",""
"","S2","","html-keyboard-response","201","169493","0.0-1.0-274.0","0","0","93174","","null","","","null","30","","NaN","","","","","","","","","","","","","",""
"","response","","html-keyboard-response","202","169597","0.0-1.0-275.0-0.0","0","0","93174","","103","","","75","30","","","1","30","training","adjacent","ED","5","4","Q.jpg","M.jpg","0","0","1","",""
"","feedback","","html-keyboard-response","203","170608","0.0-1.0-276.0-0.0","0","0","93174","","null","","","null","30","","","","","","","","","","","","","","","",""
"","ITI","","html-keyboard-response","204","171610","0.0-1.0-279.0","0","0","93174","","null","","","null","30","","","","","","","","","","","","","","","NaN",""
"","S1","","html-keyboard-response","205","171863","0.0-1.0-281.0","0","0","93174","","null","","","null","31","","","","","","","","","","","","","","","",""
"","ISI","","html-keyboard-response","206","172865","0.0-1.0-282.0","0","0","93174","","533","","","68","31","d","","","","","","","","","","","","","","",""
"","S2","","html-keyboard-response","207","173118","0.0-1.0-283.0","0","0","93174","","null","","","null","31","","NaN","","","","","","","","","","","","","",""
"","response","","html-keyboard-response","208","173213","0.0-1.0-284.0-0.0","0","0","93174","","93","","","75","31","","","1","31","training","adjacent","CD","3","4","R.jpg","M.jpg","0","1","0","",""
"","feedback","","html-keyboard-response","209","174215","0.0-1.0-285.0-0.0","0","0","93174","","null","","","null","31","","","","","","","","","","","","","","","",""
"","time_out","","html-keyboard-response","210","176217","0.0-1.0-287.0-0.0","0","0","93174","","null","","","null","31","","","","","","","","","","","","","","","",""
"","ITI","","html-keyboard-response","211","177219","0.0-1.0-288.0","0","0","93174","","null","","","null","31","","","","","","","","","","","","","","","NaN",""
"","S1","","html-keyboard-response","212","177472","0.0-1.0-290.0","0","0","93174","","null","","","null","32","","","","","","","","","","","","","","","",""
"","ISI","","html-keyboard-response","213","178474","0.0-1.0-291.0","0","0","93174","","204","","","75","32","k","","","","","","","","","","","","","","",""
"","S2","","html-keyboard-response","214","178742","0.0-1.0-292.0","0","0","93174","","null","","","null","32","","NaN","","","","","","","","","","","","","",""
"","response","","html-keyboard-response","215","180494","0.0-1.0-293.0-0.0","0","0","93174","","null","","","null","32","","","1","32","training","adjacent","FE","6","5","L.jpg","Q.jpg","NaN","0","0","",""
"","too_slow_prompt","","html-keyboard-response","216","181500","0.0-1.0-295.0-0.0","1","0","93174","","null","","","null","","","","","","","","","","","","","","","","",""
"","time_out","","html-keyboard-response","217","183503","0.0-1.0-296.0-0.0","0","0","93174","","null","","","null","32","","","","","","","","","","","","","","","",""
"","ITI","","html-keyboard-response","218","184505","0.0-1.0-297.0","0","0","93174","","862","","","68","32","","","","","","","","","","","","","","","d",""
"","S1","","html-keyboard-response","219","184758","0.0-1.0-299.0","0","0","93174","","null","","","null","33","","","","","","","","","","","","","","","",""
"","ISI","","html-keyboard-response","220","185760","0.0-1.0-300.0","0","0","93174","","102","","","75","33","k","","","","","","","","","","","","","","",""
"","S2","","html-keyboard-response","221","186013","0.0-1.0-301.0","0","0","93174","","null","","","null","33","","NaN","","","","","","","","","","","","","",""
"","response","","html-keyboard-response","222","186221","0.0-1.0-302.0-0.0","0","0","93174","","207","","","75","33","","","1","33","training","adjacent","FE","6","5","L.jpg","Q.jpg","0","0","1","",""
"","feedback","","html-keyboard-response","223","187223","0.0-1.0-303.0-0.0","0","0","93174","","null","","","null","33","","","","","","","","","","","","","","","",""
"","ITI","","html-keyboard-response","224","188226","0.0-1.0-306.0","0","0","93174","","null","","","null","33","","","","","","","","","","","","","","","NaN",""
"","S1","","html-keyboard-response","225","188478","0.0-1.0-308.0","0","0","93174","","null","","","null","34","","","","","","","","","","","","","","","",""
"","ISI","","html-keyboard-response","226","189480","0.0-1.0-309.0","0","0","93174","","null","","","null","34","NaN","","","","","","","","","","","","","","",""
"","S2","","html-keyboard-response","227","189733","0.0-1.0-310.0","0","0","93174","","null","","","null","34","","NaN","","","","","","","","","","","","","",""
"","response","","html-keyboard-response","228","189901","0.0-1.0-311.0-0.0","0","0","93174","","167","","","75","34","","","1","34","training","adjacent","DE","4","5","M.jpg","Q.jpg","0","1","0","",""
"","feedback","","html-keyboard-response","229","190904","0.0-1.0-312.0-0.0","0","0","93174","","null","","","null","34","","","","","","","","","","","","","","","",""
"","time_out","","html-keyboard-response","230","192907","0.0-1.0-314.0-0.0","0","0","93174","","null","","","null","34","","","","","","","","","","","","","","","",""
"","ITI","","html-keyboard-response","231","193909","0.0-1.0-315.0","0","0","93174","","null","","","null","34","","","","","","","","","","","","","","","NaN",""
"","S1","","html-keyboard-response","232","194162","0.0-1.0-317.0","0","0","93174","","null","","","null","35","","","","","","","","","","","","","","","",""
"","ISI","","html-keyboard-response","233","195164","0.0-1.0-318.0","0","0","93174","","90","","","68","35","d","","","","","","","","","","","","","","",""
"","S2","","html-keyboard-response","234","195429","0.0-1.0-319.0","0","0","93174","","null","","","null","35","","NaN","","","","","","","","","","","","","",""
"","response","","html-keyboard-response","235","195917","0.0-1.0-320.0-0.0","0","0","93174","","487","","","68","35","","","1","35","training","adjacent","AB","1","2","P.jpg","O.jpg","1","1","1","",""
"","feedback","","html-keyboard-response","236","196920","0.0-1.0-321.0-0.0","0","0","93174","","null","","","null","35","","","","","","","","","","","","","","","",""
"","ITI","","html-keyboard-response","237","197922","0.0-1.0-324.0","0","0","93174","","null","","","null","35","","","","","","","","","","","","","","","NaN",""
"","S1","","html-keyboard-response","238","198174","0.0-1.0-326.0","0","0","93174","","null","","","null","36","","","","","","","","","","","","","","","",""
"","ISI","","html-keyboard-response","239","199176","0.0-1.0-327.0","0","0","93174","","null","","","null","36","NaN","","","","","","","","","","","","","","",""
"","S2","","html-keyboard-response","240","199429","0.0-1.0-328.0","0","0","93174","","null","","","null","36","","NaN","","","","","","","","","","","","","",""
"","response","","html-keyboard-response","241","201150","0.0-1.0-329.0-0.0","0","0","93174","","1718","","","75","36","","","1","36","training","adjacent","BA","2","1","O.jpg","P.jpg","0","0","1","",""
"","feedback","","html-keyboard-response","242","202152","0.0-1.0-330.0-0.0","0","0","93174","","null","","","null","36","","","","","","","","","","","","","","","",""
"","ITI","","html-keyboard-response","243","203155","0.0-1.0-333.0","0","0","93174","","null","","","null","36","","","","","","","","","","","","","","","NaN",""
"","S1","","html-keyboard-response","244","203420","0.0-1.0-335.0","0","0","93174","","null","","","null","37","","","","","","","","","","","","","","","",""
"","ISI","","html-keyboard-response","245","204430","0.0-1.0-336.0","0","0","93174","","null","","","null","37","NaN","","","","","","","","","","","","","","",""
"","S2","","html-keyboard-response","246","204682","0.0-1.0-337.0","0","0","93174","","null","","","null","37","","NaN","","","","","","","","","","","","","",""
"","response","","html-keyboard-response","247","204957","0.0-1.0-338.0-0.0","0","0","93174","","274","","","68","37","","","1","37","training","adjacent","ED","5","4","Q.jpg","M.jpg","1","0","0","",""
"","feedback","","html-keyboard-response","248","205960","0.0-1.0-339.0-0.0","0","0","93174","","null","","","null","37","","","","","","","","","","","","","","","",""
"","time_out","","html-keyboard-response","249","207962","0.0-1.0-341.0-0.0","0","0","93174","","null","","","null","37","","","","","","","","","","","","","","","",""
"","ITI","","html-keyboard-response","250","208965","0.0-1.0-342.0","0","0","93174","","null","","","null","37","","","","","","","","","","","","","","","NaN",""
"","S1","","html-keyboard-response","251","209218","0.0-1.0-344.0","0","0","93174","","null","","","null","38","","","","","","","","","","","","","","","",""
"","ISI","","html-keyboard-response","252","210220","0.0-1.0-345.0","0","0","93174","","172","","","75","38","k","","","","","","","","","","","","","","",""
"","S2","","html-keyboard-response","253","210473","0.0-1.0-346.0","0","0","93174","","null","","","null","38","","NaN","","","","","","","","","","","","","",""
"","response","","html-keyboard-response","254","210589","0.0-1.0-347.0-0.0","0","0","93174","","115","","","68","38","","","1","38","training","adjacent","EF","5","6","Q.jpg","L.jpg","1","1","1","",""
"","feedback","","html-keyboard-response","255","211592","0.0-1.0-348.0-0.0","0","0","93174","","null","","","null","38","","","","","","","","","","","","","","","",""
"","ITI","","html-keyboard-response","256","212594","0.0-1.0-351.0","0","0","93174","","null","","","null","38","","","","","","","","","","","","","","","NaN",""
"","S1","","html-keyboard-response","257","212847","0.0-1.0-353.0","0","0","93174","","null","","","null","39","","","","","","","","","","","","","","","",""
"","ISI","","html-keyboard-response","258","213849","0.0-1.0-354.0","0","0","93174","","null","","","null","39","NaN","","","","","","","","","","","","","","",""
"","S2","","html-keyboard-response","259","214102","0.0-1.0-355.0","0","0","93174","","null","","","null","39","","NaN","","","","","","","","","","","","","",""
"","response","","html-keyboard-response","260","214302","0.0-1.0-356.0-0.0","0","0","93174","","199","","","75","39","","","1","39","training","adjacent","BC","2","3","O.jpg","R.jpg","0","1","0","",""
"","feedback","","html-keyboard-response","261","215304","0.0-1.0-357.0-0.0","0","0","93174","","null","","","null","39","","","","","","","","","","","","","","","",""
"","time_out","","html-keyboard-response","262","217307","0.0-1.0-359.0-0.0","0","0","93174","","null","","","null","39","","","","","","","","","","","","","","","",""
"","ITI","","html-keyboard-response","263","218309","0.0-1.0-360.0","0","0","93174","","null","","","null","39","","","","","","","","","","","","","","","NaN",""
"","S1","","html-keyboard-response","264","218562","0.0-1.0-362.0","0","0","93174","","null","","","null","40","","","","","","","","","","","","","","","",""
"","ISI","","html-keyboard-response","265","219564","0.0-1.0-363.0","0","0","93174","","null","","","null","40","NaN","","","","","","","","","","","","","","",""
"","S2","","html-keyboard-response","266","219817","0.0-1.0-364.0","0","0","93174","","null","","","null","40","","NaN","","","","","","","","","","","","","",""
"","response","","html-keyboard-response","267","220365","0.0-1.0-365.0-0.0","0","0","93174","","547","","","68","40","","","1","40","training","adjacent","FG","6","7","L.jpg","N.jpg","1","1","1","",""
"","feedback","","html-keyboard-response","268","221368","0.0-1.0-366.0-0.0","0","0","93174","","null","","","null","40","","","","","","","","","","","","","","","",""
"","ITI","","html-keyboard-response","269","222371","0.0-1.0-369.0","0","0","93174","","null","","","null","40","","","","","","","","","","","","","","","NaN",""
"","S1","","html-keyboard-response","270","222623","0.0-1.0-371.0","0","0","93174","","null","","","null","41","","","","","","","","","","","","","","","",""
"","ISI","","html-keyboard-response","271","223625","0.0-1.0-372.0","0","0","93174","","null","","","null","41","NaN","","","","","","","","","","","","","","",""
"","S2","","html-keyboard-response","272","223878","0.0-1.0-373.0","0","0","93174","","null","","","null","41","","NaN","","","","","","","","","","","","","",""
"","response","","html-keyboard-response","273","224605","0.0-1.0-374.0-0.0","0","0","93174","","725","","","68","41","","","1","41","training","adjacent","EF","5","6","Q.jpg","L.jpg","1","1","1","",""
"","feedback","","html-keyboard-response","274","225608","0.0-1.0-375.0-0.0","0","0","93174","","null","","","null","41","","","","","","","","","","","","","","","",""
"","ITI","","html-keyboard-response","275","226610","0.0-1.0-378.0","0","0","93174","","null","","","null","41","","","","","","","","","","","","","","","NaN",""
"","S1","","html-keyboard-response","276","226863","0.0-1.0-380.0","0","0","93174","","null","","","null","42","","","","","","","","","","","","","","","",""
"","ISI","","html-keyboard-response","277","227878","0.0-1.0-381.0","0","0","93174","","null","","","null","42","NaN","","","","","","","","","","","","","","",""
"","S2","","html-keyboard-response","278","228131","0.0-1.0-382.0","0","0","93174","","null","","","null","42","","NaN","","","","","","","","","","","","","",""
"","response","","html-keyboard-response","279","228350","0.0-1.0-383.0-0.0","0","0","93174","","218","","","75","42","","","1","42","training","adjacent","CB","3","2","R.jpg","O.jpg","0","0","1","",""
"","feedback","","html-keyboard-response","280","229353","0.0-1.0-384.0-0.0","0","0","93174","","null","","","null","42","","","","","","","","","","","","","","","",""
"","ITI","","html-keyboard-response","281","230354","0.0-1.0-387.0","0","0","93174","","null","","","null","42","","","","","","","","","","","","","","","NaN",""
"","S1","","html-keyboard-response","282","230616","0.0-1.0-389.0","0","0","93174","","null","","","null","43","","","","","","","","","","","","","","","",""
"","ISI","","html-keyboard-response","283","231619","0.0-1.0-390.0","0","0","93174","","null","","","null","43","NaN","","","","","","","","","","","","","","",""
"","S2","","html-keyboard-response","284","231871","0.0-1.0-391.0","0","0","93174","","null","","","null","43","","NaN","","","","","","","","","","","","","",""
"","response","","html-keyboard-response","285","231981","0.0-1.0-392.0-0.0","0","0","93174","","109","","","75","43","","","1","43","training","adjacent","GF","7","6","N.jpg","L.jpg","0","0","1","",""
"","feedback","","html-keyboard-response","286","232983","0.0-1.0-393.0-0.0","0","0","93174","","null","","","null","43","","","","","","","","","","","","","","","",""
"","ITI","","html-keyboard-response","287","233986","0.0-1.0-396.0","0","0","93174","","null","","","null","43","","","","","","","","","","","","","","","NaN",""
"","S1","","html-keyboard-response","288","234239","0.0-1.0-398.0","0","0","93174","","null","","","null","44","","","","","","","","","","","","","","","",""
"","ISI","","html-keyboard-response","289","235241","0.0-1.0-399.0","0","0","93174","","null","","","null","44","NaN","","","","","","","","","","","","","","",""
"","S2","","html-keyboard-response","290","235493","0.0-1.0-400.0","0","0","93174","","null","","","null","44","","NaN","","","","","","","","","","","","","",""
"","response","","html-keyboard-response","291","236094","0.0-1.0-401.0-0.0","0","0","93174","","598","","","68","44","","","1","44","training","adjacent","BA","2","1","O.jpg","P.jpg","1","0","0","",""
"","feedback","","html-keyboard-response","292","237096","0.0-1.0-402.0-0.0","0","0","93174","","null","","","null","44","","","","","","","","","","","","","","","",""
"","time_out","","html-keyboard-response","293","239098","0.0-1.0-404.0-0.0","0","0","93174","","null","","","null","44","","","","","","","","","","","","","","","",""
"","ITI","","html-keyboard-response","294","240099","0.0-1.0-405.0","0","0","93174","","null","","","null","44","","","","","","","","","","","","","","","NaN",""
"","S1","","html-keyboard-response","295","240351","0.0-1.0-407.0","0","0","93174","","null","","","null","45","","","","","","","","","","","","","","","",""
"","ISI","","html-keyboard-response","296","241354","0.0-1.0-408.0","0","0","93174","","null","","","null","45","NaN","","","","","","","","","","","","","","",""
"","S2","","html-keyboard-response","297","241620","0.0-1.0-409.0","0","0","93174","","null","","","null","45","","NaN","","","","","","","","","","","","","",""
"","response","","html-keyboard-response","298","242141","0.0-1.0-410.0-0.0","0","0","93174","","520","","","75","45","","","1","45","training","adjacent","ED","5","4","Q.jpg","M.jpg","0","0","1","",""
"","feedback","","html-keyboard-response","299","243144","0.0-1.0-411.0-0.0","0","0","93174","","null","","","null","45","","","","","","","","","","","","","","","",""
"","ITI","","html-keyboard-response","300","244147","0.0-1.0-414.0","0","0","93174","","null","","","null","45","","","","","","","","","","","","","","","NaN",""
"","S1","","html-keyboard-response","301","244399","0.0-1.0-416.0","0","0","93174","","null","","","null","46","","","","","","","","","","","","","","","",""
"","ISI","","html-keyboard-response","302","245402","0.0-1.0-417.0","0","0","93174","","null","","","null","46","NaN","","","","","","","","","","","","","","",""
"","S2","","html-keyboard-response","303","245654","0.0-1.0-418.0","0","0","93174","","null","","","null","46","","NaN","","","","","","","","","","","","","",""
"","response","","html-keyboard-response","304","246029","0.0-1.0-419.0-0.0","0","0","93174","","374","","","68","46","","","1","46","training","adjacent","BC","2","3","O.jpg","R.jpg","1","1","1","",""
"","feedback","","html-keyboard-response","305","247032","0.0-1.0-420.0-0.0","0","0","93174","","null","","","null","46","","","","","","","","","","","","","","","",""
"","ITI","","html-keyboard-response","306","248035","0.0-1.0-423.0","0","0","93174","","null","","","null","46","","","","","","","","","","","","","","","NaN",""
"","S1","","html-keyboard-response","307","248287","0.0-1.0-425.0","0","0","93174","","null","","","null","47","","","","","","","","","","","","","","","",""
"","ISI","","html-keyboard-response","308","249289","0.0-1.0-426.0","0","0","93174","","null","","","null","47","NaN","","","","","","","","","","","","","","",""
"","S2","","html-keyboard-response","309","249541","0.0-1.0-427.0","0","0","93174","","null","","","null","47","","NaN","","","","","","","","","","","","","",""
"","response","","html-keyboard-response","310","250110","0.0-1.0-428.0-0.0","0","0","93174","","567","","","68","47","","","1","47","training","adjacent","BA","2","1","O.jpg","P.jpg","1","0","0","",""
"","feedback","","html-keyboard-response","311","251114","0.0-1.0-429.0-0.0","0","0","93174","","null","","","null","47","","","","","","","","","","","","","","","",""
"","time_out","","html-keyboard-response","312","253116","0.0-1.0-431.0-0.0","0","0","93174","","null","","","null","47","","","","","","","","","","","","","","","",""
"","ITI","","html-keyboard-response","313","254118","0.0-1.0-432.0","0","0","93174","","null","","","null","47","","","","","","","","","","","","","","","NaN",""
"","block_over","","html-keyboard-response","314","271422","0.0-1.0-433.0-0.0","0","0","93174","","17302","","","32","47","","","","","","","","","","","","","","","",""
"","S1","","html-keyboard-response","315","271674","0.0-1.0-434.0","0","0","93174","","null","","","null","48","","","","","","","","","","","","","","","",""
"","ISI","","html-keyboard-response","316","272676","0.0-1.0-435.0","0","0","93174","","null","","","null","48","NaN","","","","","","","","","","","","","","",""
"","S2","","html-keyboard-response","317","272929","0.0-1.0-436.0","0","0","93174","","null","","","null","48","","NaN","","","","","","","","","","","","","",""
"","response","","html-keyboard-response","318","274045","0.0-1.0-437.0-0.0","0","0","93174","","1115","","","75","48","","","2","48","training","adjacent","FE","6","5","L.jpg","Q.jpg","0","0","1","",""
"","feedback","","html-keyboard-response","319","275048","0.0-1.0-438.0-0.0","0","0","93174","","null","","","null","48","","","","","","","","","","","","","","","",""
"","ITI","","html-keyboard-response","320","276050","0.0-1.0-441.0","0","0","93174","","null","","","null","48","","","","","","","","","","","","","","","NaN",""
"","S1","","html-keyboard-response","321","276303","0.0-1.0-443.0","0","0","93174","","null","","","null","49","","","","","","","","","","","","","","","",""
"","ISI","","html-keyboard-response","322","277305","0.0-1.0-444.0","0","0","93174","","null","","","null","49","NaN","","","","","","","","","","","","","","",""
"","S2","","html-keyboard-response","323","277558","0.0-1.0-445.0","0","0","93174","","null","","","null","49","","NaN","","","","","","","","","","","","","",""
"","response","","html-keyboard-response","324","278014","0.0-1.0-446.0-0.0","0","0","93174","","455","","","68","49","","","2","49","training","adjacent","BC","2","3","O.jpg","R.jpg","1","1","1","",""
"","feedback","","html-keyboard-response","325","279017","0.0-1.0-447.0-0.0","0","0","93174","","null","","","null","49","","","","","","","","","","","","","","","",""
"","ITI","","html-keyboard-response","326","280019","0.0-1.0-450.0","0","0","93174","","null","","","null","49","","","","","","","","","","","","","","","NaN",""
"","S1","","html-keyboard-response","327","280272","0.0-1.0-452.0","0","0","93174","","null","","","null","50","","","","","","","","","","","","","","","",""
"","ISI","","html-keyboard-response","328","281274","0.0-1.0-453.0","0","0","93174","","null","","","null","50","NaN","","","","","","","","","","","","","","",""
"","S2","","html-keyboard-response","329","281526","0.0-1.0-454.0","0","0","93174","","null","","","null","50","","NaN","","","","","","","","","","","","","",""
"","response","","html-keyboard-response","330","281870","0.0-1.0-455.0-0.0","0","0","93174","","343","","","68","50","","","2","50","training","adjacent","FG","6","7","L.jpg","N.jpg","1","1","1","",""
"","feedback","","html-keyboard-response","331","282874","0.0-1.0-456.0-0.0","0","0","93174","","null","","","null","50","","","","","","","","","","","","","","","",""
"","ITI","","html-keyboard-response","332","283875","0.0-1.0-459.0","0","0","93174","","null","","","null","50","","","","","","","","","","","","","","","NaN",""
"","S1","","html-keyboard-response","333","284127","0.0-1.0-461.0","0","0","93174","","null","","","null","51","","","","","","","","","","","","","","","",""
"","ISI","","html-keyboard-response","334","285130","0.0-1.0-462.0","0","0","93174","","null","","","null","51","NaN","","","","","","","","","","","","","","",""
"","S2","","html-keyboard-response","335","285382","0.0-1.0-463.0","0","0","93174","","null","","","null","51","","NaN","","","","","","","","","","","","","",""
"","response","","html-keyboard-response","336","285422","0.0-1.0-464.0-0.0","0","0","93174","","37","","","75","51","","","2","51","training","adjacent","GF","7","6","N.jpg","L.jpg","0","0","1","",""
"","feedback","","html-keyboard-response","337","286424","0.0-1.0-465.0-0.0","0","0","93174","","null","","","null","51","","","","","","","","","","","","","","","",""
"","ITI","","html-keyboard-response","338","287426","0.0-1.0-468.0","0","0","93174","","null","","","null","51","","","","","","","","","","","","","","","NaN",""
"","S1","","html-keyboard-response","339","287679","0.0-1.0-470.0","0","0","93174","","null","","","null","52","","","","","","","","","","","","","","","",""
"","ISI","","html-keyboard-response","340","288682","0.0-1.0-471.0","0","0","93174","","null","","","null","52","NaN","","","","","","","","","","","","","","",""
"","S2","","html-keyboard-response","341","288934","0.0-1.0-472.0","0","0","93174","","null","","","null","52","","NaN","","","","","","","","","","","","","",""
"","response","","html-keyboard-response","342","289086","0.0-1.0-473.0-0.0","0","0","93174","","150","","","75","52","","","2","52","training","adjacent","AB","1","2","P.jpg","O.jpg","0","1","0","",""
"","feedback","","html-keyboard-response","343","290091","0.0-1.0-474.0-0.0","0","0","93174","","null","","","null","52","","","","","","","","","","","","","","","",""
"","time_out","","html-keyboard-response","344","292093","0.0-1.0-476.0-0.0","0","0","93174","","null","","","null","52","","","","","","","","","","","","","","","",""
"","ITI","","html-keyboard-response","345","293096","0.0-1.0-477.0","0","0","93174","","null","","","null","52","","","","","","","","","","","","","","","NaN",""
"","S1","","html-keyboard-response","346","293349","0.0-1.0-479.0","0","0","93174","","null","","","null","53","","","","","","","","","","","","","","","",""
"","ISI","","html-keyboard-response","347","294351","0.0-1.0-480.0","0","0","93174","","null","","","null","53","NaN","","","","","","","","","","","","","","",""
"","S2","","html-keyboard-response","348","294603","0.0-1.0-481.0","0","0","93174","","null","","","null","53","","NaN","","","","","","","","","","","","","",""
"","response","","html-keyboard-response","349","294734","0.0-1.0-482.0-0.0","0","0","93174","","129","","","75","53","","","2","53","training","adjacent","GF","7","6","N.jpg","L.jpg","0","0","1","",""
"","feedback","","html-keyboard-response","350","295737","0.0-1.0-483.0-0.0","0","0","93174","","null","","","null","53","","","","","","","","","","","","","","","",""
"","ITI","","html-keyboard-response","351","296739","0.0-1.0-486.0","0","0","93174","","null","","","null","53","","","","","","","","","","","","","","","NaN",""
"","S1","","html-keyboard-response","352","296992","0.0-1.0-488.0","0","0","93174","","null","","","null","54","","","","","","","","","","","","","","","",""
"","ISI","","html-keyboard-response","353","297994","0.0-1.0-489.0","0","0","93174","","null","","","null","54","NaN","","","","","","","","","","","","","","",""
"","S2","","html-keyboard-response","354","298246","0.0-1.0-490.0","0","0","93174","","null","","","null","54","","NaN","","","","","","","","","","","","","",""
"","response","","html-keyboard-response","355","298414","0.0-1.0-491.0-0.0","0","0","93174","","166","","","68","54","","","2","54","training","adjacent","BA","2","1","O.jpg","P.jpg","1","0","0","",""
"","feedback","","html-keyboard-response","356","299416","0.0-1.0-492.0-0.0","0","0","93174","","null","","","null","54","","","","","","","","","","","","","","","",""
"","time_out","","html-keyboard-response","357","301418","0.0-1.0-494.0-0.0","0","0","93174","","null","","","null","54","","","","","","","","","","","","","","","",""
"","ITI","","html-keyboard-response","358","302420","0.0-1.0-495.0","0","0","93174","","531","","","75","54","","","","","","","","","","","","","","","k",""
"","S1","","html-keyboard-response","359","302672","0.0-1.0-497.0","0","0","93174","","null","","","null","55","","","","","","","","","","","","","","","",""
"","ISI","","html-keyboard-response","360","303674","0.0-1.0-498.0","0","0","93174","","156","","","75","55","k","","","","","","","","","","","","","","",""
"","S2","","html-keyboard-response","361","303927","0.0-1.0-499.0","0","0","93174","","null","","","null","55","","NaN","","","","","","","","","","","","","",""
"","response","","html-keyboard-response","362","304909","0.0-1.0-500.0-0.0","0","0","93174","","980","","","75","55","","","2","55","training","adjacent","FG","6","7","L.jpg","N.jpg","0","1","0","",""
"","feedback","","html-keyboard-response","363","305912","0.0-1.0-501.0-0.0","0","0","93174","","null","","","null","55","","","","","","","","","","","","","","","",""
"","time_out","","html-keyboard-response","364","307927","0.0-1.0-503.0-0.0","0","0","93174","","null","","","null","55","","","","","","","","","","","","","","","",""
"","ITI","","html-keyboard-response","365","308929","0.0-1.0-504.0","0","0","93174","","null","","","null","55","","","","","","","","","","","","","","","NaN",""
"","S1","","html-keyboard-response","366","309181","0.0-1.0-506.0","0","0","93174","","null","","","null","56","","","","","","","","","","","","","","","",""
"","ISI","","html-keyboard-response","367","310183","0.0-1.0-507.0","0","0","93174","","null","","","null","56","NaN","","","","","","","","","","","","","","",""
"","S2","","html-keyboard-response","368","310440","0.0-1.0-508.0","0","0","93174","","null","","","null","56","","NaN","","","","","","","","","","","","","",""
"","response","","html-keyboard-response","369","310541","0.0-1.0-509.0-0.0","0","0","93174","","100","","","75","56","","","2","56","training","adjacent","CB","3","2","R.jpg","O.jpg","0","0","1","",""
"","feedback","","html-keyboard-response","370","311544","0.0-1.0-510.0-0.0","0","0","93174","","null","","","null","56","","","","","","","","","","","","","","","",""
"","ITI","","html-keyboard-response","371","312547","0.0-1.0-513.0","0","0","93174","","null","","","null","56","","","","","","","","","","","","","","","NaN",""
"","S1","","html-keyboard-response","372","312799","0.0-1.0-515.0","0","0","93174","","null","","","null","57","","","","","","","","","","","","","","","",""
"","ISI","","html-keyboard-response","373","313800","0.0-1.0-516.0","0","0","93174","","null","","","null","57","NaN","","","","","","","","","","","","","","",""
"","S2","","html-keyboard-response","374","314052","0.0-1.0-517.0","0","0","93174","","null","","","null","57","","NaN","","","","","","","","","","","","","",""
"","response","","html-keyboard-response","375","314766","0.0-1.0-518.0-0.0","0","0","93174","","712","","","68","57","","","2","57","training","adjacent","DC","4","3","M.jpg","R.jpg","1","0","0","",""
"","feedback","","html-keyboard-response","376","315769","0.0-1.0-519.0-0.0","0","0","93174","","null","","","null","57","","","","","","","","","","","","","","","",""
"","time_out","","html-keyboard-response","377","317771","0.0-1.0-521.0-0.0","0","0","93174","","null","","","null","57","","","","","","","","","","","","","","","",""
"","ITI","","html-keyboard-response","378","318773","0.0-1.0-522.0","0","0","93174","","null","","","null","57","","","","","","","","","","","","","","","NaN",""
"","S1","","html-keyboard-response","379","319026","0.0-1.0-524.0","0","0","93174","","null","","","null","58","","","","","","","","","","","","","","","",""
"","ISI","","html-keyboard-response","380","320028","0.0-1.0-525.0","0","0","93174","","538","","","121","58","f10","","","","","","","","","","","","","","",""
"","S2","","html-keyboard-response","381","320281","0.0-1.0-526.0","0","0","93174","","null","","","null","58","","NaN","","","","","","","","","","","","","",""
"","response","","html-keyboard-response","382","320749","0.0-1.0-527.0-0.0","0","0","93174","","467","","","75","58","","","2","58","training","adjacent","EF","5","6","Q.jpg","L.jpg","0","1","0","",""
"","feedback","","html-keyboard-response","383","321752","0.0-1.0-528.0-0.0","0","0","93174","","null","","","null","58","","","","","","","","","","","","","","","",""
"","time_out","","html-keyboard-response","384","323755","0.0-1.0-530.0-0.0","0","0","93174","","null","","","null","58","","","","","","","","","","","","","","","",""
"","ITI","","html-keyboard-response","385","324757","0.0-1.0-531.0","0","0","93174","","null","","","null","58","","","","","","","","","","","","","","","NaN",""
"","S1","","html-keyboard-response","386","325009","0.0-1.0-533.0","0","0","93174","","null","","","null","59","","","","","","","","","","","","","","","",""
"","ISI","","html-keyboard-response","387","326011","0.0-1.0-534.0","0","0","93174","","null","","","null","59","NaN","","","","","","","","","","","","","","",""
"","S2","","html-keyboard-response","388","326263","0.0-1.0-535.0","0","0","93174","","null","","","null","59","","NaN","","","","","","","","","","","","","",""
"","response","","html-keyboard-response","389","326926","0.0-1.0-536.0-0.0","0","0","93174","","661","","","68","59","","","2","59","training","adjacent","EF","5","6","Q.jpg","L.jpg","1","1","1","",""
"","feedback","","html-keyboard-response","390","327928","0.0-1.0-537.0-0.0","0","0","93174","","null","","","null","59","","","","","","","","","","","","","","","",""
"","ITI","","html-keyboard-response","391","328931","0.0-1.0-540.0","0","0","93174","","null","","","null","59","","","","","","","","","","","","","","","NaN",""
"","S1","","html-keyboard-response","392","329183","0.0-1.0-542.0","0","0","93174","","null","","","null","60","","","","","","","","","","","","","","","",""
"","ISI","","html-keyboard-response","393","330186","0.0-1.0-543.0","0","0","93174","","null","","","null","60","NaN","","","","","","","","","","","","","","",""
"","S2","","html-keyboard-response","394","330438","0.0-1.0-544.0","0","0","93174","","null","","","null","60","","NaN","","","","","","","","","","","","","",""
"","response","","html-keyboard-response","395","331325","0.0-1.0-545.0-0.0","0","0","93174","","886","","","75","60","","","2","60","training","adjacent","CD","3","4","R.jpg","M.jpg","0","1","0","",""
"","feedback","","html-keyboard-response","396","332328","0.0-1.0-546.0-0.0","0","0","93174","","null","","","null","60","","","","","","","","","","","","","","","",""
"","time_out","","html-keyboard-response","397","334331","0.0-1.0-548.0-0.0","0","0","93174","","null","","","null","60","","","","","","","","","","","","","","","",""
"","ITI","","html-keyboard-response","398","335334","0.0-1.0-549.0","0","0","93174","","null","","","null","60","","","","","","","","","","","","","","","NaN",""
"","S1","","html-keyboard-response","399","335586","0.0-1.0-551.0","0","0","93174","","null","","","null","61","","","","","","","","","","","","","","","",""
"","ISI","","html-keyboard-response","400","336594","0.0-1.0-552.0","0","0","93174","","null","","","null","61","NaN","","","","","","","","","","","","","","",""
"","S2","","html-keyboard-response","401","336857","0.0-1.0-553.0","0","0","93174","","null","","","null","61","","NaN","","","","","","","","","","","","","",""
"","response","","html-keyboard-response","402","337517","0.0-1.0-554.0-0.0","0","0","93174","","659","","","75","61","","","2","61","training","adjacent","CD","3","4","R.jpg","M.jpg","0","1","0","",""
"","feedback","","html-keyboard-response","403","338519","0.0-1.0-555.0-0.0","0","0","93174","","null","","","null","61","","","","","","","","","","","","","","","",""
"","time_out","","html-keyboard-response","404","340521","0.0-1.0-557.0-0.0","0","0","93174","","null","","","null","61","","","","","","","","","","","","","","","",""
"","ITI","","html-keyboard-response","405","341522","0.0-1.0-558.0","0","0","93174","","null","","","null","61","","","","","","","","","","","","","","","NaN",""
"","S1","","html-keyboard-response","406","341775","0.0-1.0-560.0","0","0","93174","","null","","","null","62","","","","","","","","","","","","","","","",""
"","ISI","","html-keyboard-response","407","342778","0.0-1.0-561.0","0","0","93174","","null","","","null","62","NaN","","","","","","","","","","","","","","",""
"","S2","","html-keyboard-response","408","343030","0.0-1.0-562.0","0","0","93174","","null","","","null","62","","NaN","","","","","","","","","","","","","",""
"","response","","html-keyboard-response","409","343709","0.0-1.0-563.0-0.0","0","0","93174","","678","","","68","62","","","2","62","training","adjacent","DE","4","5","M.jpg","Q.jpg","1","1","1","",""
"","feedback","","html-keyboard-response","410","344712","0.0-1.0-564.0-0.0","0","0","93174","","null","","","null","62","","","","","","","","","","","","","","","",""
"","ITI","","html-keyboard-response","411","345715","0.0-1.0-567.0","0","0","93174","","null","","","null","62","","","","","","","","","","","","","","","NaN",""
"","S1","","html-keyboard-response","412","345968","0.0-1.0-569.0","0","0","93174","","null","","","null","63","","","","","","","","","","","","","","","",""
"","ISI","","html-keyboard-response","413","346970","0.0-1.0-570.0","0","0","93174","","null","","","null","63","NaN","","","","","","","","","","","","","","",""
"","S2","","html-keyboard-response","414","347222","0.0-1.0-571.0","0","0","93174","","null","","","null","63","","NaN","","","","","","","","","","","","","",""
"","response","","html-keyboard-response","415","347389","0.0-1.0-572.0-0.0","0","0","93174","","166","","","68","63","","","2","63","training","adjacent","BC","2","3","O.jpg","R.jpg","1","1","1","",""
"","feedback","","html-keyboard-response","416","348392","0.0-1.0-573.0-0.0","0","0","93174","","null","","","null","63","","","","","","","","","","","","","","","",""
"","ITI","","html-keyboard-response","417","349394","0.0-1.0-576.0","0","0","93174","","null","","","null","63","","","","","","","","","","","","","","","NaN",""
"","S1","","html-keyboard-response","418","349646","0.0-1.0-578.0","0","0","93174","","null","","","null","64","","","","","","","","","","","","","","","",""
"","ISI","","html-keyboard-response","419","350648","0.0-1.0-579.0","0","0","93174","","null","","","null","64","NaN","","","","","","","","","","","","","","",""
"","S2","","html-keyboard-response","420","350900","0.0-1.0-580.0","0","0","93174","","null","","","null","64","","NaN","","","","","","","","","","","","","",""
"","response","","html-keyboard-response","421","351341","0.0-1.0-581.0-0.0","0","0","93174","","440","","","68","64","","","2","64","training","adjacent","DE","4","5","M.jpg","Q.jpg","1","1","1","",""
"","feedback","","html-keyboard-response","422","352344","0.0-1.0-582.0-0.0","0","0","93174","","null","","","null","64","","","","","","","","","","","","","","","",""
"","ITI","","html-keyboard-response","423","353346","0.0-1.0-585.0","0","0","93174","","null","","","null","64","","","","","","","","","","","","","","","NaN",""
"","S1","","html-keyboard-response","424","353599","0.0-1.0-587.0","0","0","93174","","null","","","null","65","","","","","","","","","","","","","","","",""
"","ISI","","html-keyboard-response","425","354601","0.0-1.0-588.0","0","0","93174","","null","","","null","65","NaN","","","","","","","","","","","","","","",""
"","S2","","html-keyboard-response","426","354853","0.0-1.0-589.0","0","0","93174","","null","","","null","65","","NaN","","","","","","","","","","","","","",""
"","response","","html-keyboard-response","427","355213","0.0-1.0-590.0-0.0","0","0","93174","","359","","","75","65","","","2","65","training","adjacent","EF","5","6","Q.jpg","L.jpg","0","1","0","",""
"","feedback","","html-keyboard-response","428","356217","0.0-1.0-591.0-0.0","0","0","93174","","null","","","null","65","","","","","","","","","","","","","","","",""
"","time_out","","html-keyboard-response","429","358219","0.0-1.0-593.0-0.0","0","0","93174","","null","","","null","65","","","","","","","","","","","","","","","",""
"","ITI","","html-keyboard-response","430","359222","0.0-1.0-594.0","0","0","93174","","null","","","null","65","","","","","","","","","","","","","","","NaN",""
"","S1","","html-keyboard-response","431","359474","0.0-1.0-596.0","0","0","93174","","null","","","null","66","","","","","","","","","","","","","","","",""
"","ISI","","html-keyboard-response","432","360476","0.0-1.0-597.0","0","0","93174","","null","","","null","66","NaN","","","","","","","","","","","","","","",""
"","S2","","html-keyboard-response","433","360728","0.0-1.0-598.0","0","0","93174","","null","","","null","66","","NaN","","","","","","","","","","","","","",""
"","response","","html-keyboard-response","434","361101","0.0-1.0-599.0-0.0","0","0","93174","","371","","","68","66","","","2","66","training","adjacent","BA","2","1","O.jpg","P.jpg","1","0","0","",""
"","feedback","","html-keyboard-response","435","362103","0.0-1.0-600.0-0.0","0","0","93174","","null","","","null","66","","","","","","","","","","","","","","","",""
"","time_out","","html-keyboard-response","436","364107","0.0-1.0-602.0-0.0","0","0","93174","","null","","","null","66","","","","","","","","","","","","","","","",""
"","ITI","","html-keyboard-response","437","365110","0.0-1.0-603.0","0","0","93174","","null","","","null","66","","","","","","","","","","","","","","","NaN",""
"","S1","","html-keyboard-response","438","365363","0.0-1.0-605.0","0","0","93174","","null","","","null","67","","","","","","","","","","","","","","","",""
"","ISI","","html-keyboard-response","439","366365","0.0-1.0-606.0","0","0","93174","","null","","","null","67","NaN","","","","","","","","","","","","","","",""
"","S2","","html-keyboard-response","440","366619","0.0-1.0-607.0","0","0","93174","","null","","","null","67","","NaN","","","","","","","","","","","","","",""
"","response","","html-keyboard-response","441","367166","0.0-1.0-608.0-0.0","0","0","93174","","546","","","75","67","","","2","67","training","adjacent","ED","5","4","Q.jpg","M.jpg","0","0","1","",""
"","feedback","","html-keyboard-response","442","368168","0.0-1.0-609.0-0.0","0","0","93174","","null","","","null","67","","","","","","","","","","","","","","","",""
"","ITI","","html-keyboard-response","443","369170","0.0-1.0-612.0","0","0","93174","","null","","","null","67","","","","","","","","","","","","","","","NaN",""
"","S1","","html-keyboard-response","444","369423","0.0-1.0-614.0","0","0","93174","","null","","","null","68","","","","","","","","","","","","","","","",""
"","ISI","","html-keyboard-response","445","370425","0.0-1.0-615.0","0","0","93174","","null","","","null","68","NaN","","","","","","","","","","","","","","",""
"","S2","","html-keyboard-response","446","370678","0.0-1.0-616.0","0","0","93174","","null","","","null","68","","NaN","","","","","","","","","","","","","",""
"","response","","html-keyboard-response","447","371054","0.0-1.0-617.0-0.0","0","0","93174","","375","","","68","68","","","2","68","training","adjacent","BC","2","3","O.jpg","R.jpg","1","1","1","",""
"","feedback","","html-keyboard-response","448","372057","0.0-1.0-618.0-0.0","0","0","93174","","null","","","null","68","","","","","","","","","","","","","","","",""
"","ITI","","html-keyboard-response","449","373058","0.0-1.0-621.0","0","0","93174","","null","","","null","68","","","","","","","","","","","","","","","NaN",""
"","S1","","html-keyboard-response","450","373311","0.0-1.0-623.0","0","0","93174","","null","","","null","69","","","","","","","","","","","","","","","",""
"","ISI","","html-keyboard-response","451","374313","0.0-1.0-624.0","0","0","93174","","null","","","null","69","NaN","","","","","","","","","","","","","","",""
"","S2","","html-keyboard-response","452","374565","0.0-1.0-625.0","0","0","93174","","null","","","null","69","","NaN","","","","","","","","","","","","","",""
"","response","","html-keyboard-response","453","374926","0.0-1.0-626.0-0.0","0","0","93174","","359","","","68","69","","","2","69","training","adjacent","BC","2","3","O.jpg","R.jpg","1","1","1","",""
"","feedback","","html-keyboard-response","454","375929","0.0-1.0-627.0-0.0","0","0","93174","","null","","","null","69","","","","","","","","","","","","","","","",""
"","ITI","","html-keyboard-response","455","376932","0.0-1.0-630.0","0","0","93174","","null","","","null","69","","","","","","","","","","","","","","","NaN",""
"","S1","","html-keyboard-response","456","377184","0.0-1.0-632.0","0","0","93174","","null","","","null","70","","","","","","","","","","","","","","","",""
"","ISI","","html-keyboard-response","457","378186","0.0-1.0-633.0","0","0","93174","","null","","","null","70","NaN","","","","","","","","","","","","","","",""
"","S2","","html-keyboard-response","458","378438","0.0-1.0-634.0","0","0","93174","","null","","","null","70","","NaN","","","","","","","","","","","","","",""
"","response","","html-keyboard-response","459","379118","0.0-1.0-635.0-0.0","0","0","93174","","678","","","68","70","","","2","70","training","adjacent","FE","6","5","L.jpg","Q.jpg","1","0","0","",""
"","feedback","","html-keyboard-response","460","380120","0.0-1.0-636.0-0.0","0","0","93174","","null","","","null","70","","","","","","","","","","","","","","","",""
"","time_out","","html-keyboard-response","461","382122","0.0-1.0-638.0-0.0","0","0","93174","","null","","","null","70","","","","","","","","","","","","","","","",""
"","ITI","","html-keyboard-response","462","383125","0.0-1.0-639.0","0","0","93174","","null","","","null","70","","","","","","","","","","","","","","","NaN",""
"","S1","","html-keyboard-response","463","383378","0.0-1.0-641.0","0","0","93174","","null","","","null","71","","","","","","","","","","","","","","","",""
"","ISI","","html-keyboard-response","464","384379","0.0-1.0-642.0","0","0","93174","","null","","","null","71","NaN","","","","","","","","","","","","","","",""
"","S2","","html-keyboard-response","465","384632","0.0-1.0-643.0","0","0","93174","","null","","","null","71","","NaN","","","","","","","","","","","","","",""
"","response","","html-keyboard-response","466","385438","0.0-1.0-644.0-0.0","0","0","93174","","805","","","68","71","","","2","71","training","adjacent","BA","2","1","O.jpg","P.jpg","1","0","0","",""
"","feedback","","html-keyboard-response","467","386440","0.0-1.0-645.0-0.0","0","0","93174","","null","","","null","71","","","","","","","","","","","","","","","",""
"","time_out","","html-keyboard-response","468","388442","0.0-1.0-647.0-0.0","0","0","93174","","null","","","null","71","","","","","","","","","","","","","","","",""
"","ITI","","html-keyboard-response","469","389445","0.0-1.0-648.0","0","0","93174","","null","","","null","71","","","","","","","","","","","","","","","NaN",""
"","S1","","html-keyboard-response","470","389699","0.0-1.0-650.0","0","0","93174","","null","","","null","72","","","","","","","","","","","","","","","",""
"","ISI","","html-keyboard-response","471","390712","0.0-1.0-651.0","0","0","93174","","null","","","null","72","NaN","","","","","","","","","","","","","","",""
"","S2","","html-keyboard-response","472","390965","0.0-1.0-652.0","0","0","93174","","null","","","null","72","","NaN","","","","","","","","","","","","","",""
"","response","","html-keyboard-response","473","391582","0.0-1.0-653.0-0.0","0","0","93174","","616","","","68","72","","","2","72","training","adjacent","DE","4","5","M.jpg","Q.jpg","1","1","1","",""
"","feedback","","html-keyboard-response","474","392584","0.0-1.0-654.0-0.0","0","0","93174","","null","","","null","72","","","","","","","","","","","","","","","",""
"","ITI","","html-keyboard-response","475","393587","0.0-1.0-657.0","0","0","93174","","null","","","null","72","","","","","","","","","","","","","","","NaN",""
"","S1","","html-keyboard-response","476","393839","0.0-1.0-659.0","0","0","93174","","null","","","null","73","","","","","","","","","","","","","","","",""
"","ISI","","html-keyboard-response","477","394841","0.0-1.0-660.0","0","0","93174","","null","","","null","73","NaN","","","","","","","","","","","","","","",""
"","S2","","html-keyboard-response","478","395094","0.0-1.0-661.0","0","0","93174","","null","","","null","73","","NaN","","","","","","","","","","","","","",""
"","response","","html-keyboard-response","479","395552","0.0-1.0-662.0-0.0","0","0","93174","","457","","","75","73","","","2","73","training","adjacent","CB","3","2","R.jpg","O.jpg","0","0","1","",""
"","feedback","","html-keyboard-response","480","396554","0.0-1.0-663.0-0.0","0","0","93174","","null","","","null","73","","","","","","","","","","","","","","","",""
"","ITI","","html-keyboard-response","481","397557","0.0-1.0-666.0","0","0","93174","","null","","","null","73","","","","","","","","","","","","","","","NaN",""
"","S1","","html-keyboard-response","482","397809","0.0-1.0-668.0","0","0","93174","","null","","","null","74","","","","","","","","","","","","","","","",""
"","ISI","","html-keyboard-response","483","398812","0.0-1.0-669.0","0","0","93174","","null","","","null","74","NaN","","","","","","","","","","","","","","",""
"","S2","","html-keyboard-response","484","399064","0.0-1.0-670.0","0","0","93174","","null","","","null","74","","NaN","","","","","","","","","","","","","",""
"","response","","html-keyboard-response","485","399536","0.0-1.0-671.0-0.0","0","0","93174","","470","","","68","74","","","2","74","training","adjacent","FG","6","7","L.jpg","N.jpg","1","1","1","",""
"","feedback","","html-keyboard-response","486","400539","0.0-1.0-672.0-0.0","0","0","93174","","null","","","null","74","","","","","","","","","","","","","","","",""
"","ITI","","html-keyboard-response","487","401542","0.0-1.0-675.0","0","0","93174","","null","","","null","74","","","","","","","","","","","","","","","NaN",""
"","S1","","html-keyboard-response","488","401794","0.0-1.0-677.0","0","0","93174","","null","","","null","75","","","","","","","","","","","","","","","",""
"","ISI","","html-keyboard-response","489","402797","0.0-1.0-678.0","0","0","93174","","null","","","null","75","NaN","","","","","","","","","","","","","","",""
"","S2","","html-keyboard-response","490","403049","0.0-1.0-679.0","0","0","93174","","null","","","null","75","","NaN","","","","","","","","","","","","","",""
"","response","","html-keyboard-response","491","403598","0.0-1.0-680.0-0.0","0","0","93174","","547","","","68","75","","","2","75","training","adjacent","DE","4","5","M.jpg","Q.jpg","1","1","1","",""
"","feedback","","html-keyboard-response","492","404606","0.0-1.0-681.0-0.0","0","0","93174","","null","","","null","75","","","","","","","","","","","","","","","",""
"","ITI","","html-keyboard-response","493","405609","0.0-1.0-684.0","0","0","93174","","null","","","null","75","","","","","","","","","","","","","","","NaN",""
"","S1","","html-keyboard-response","494","405861","0.0-1.0-686.0","0","0","93174","","null","","","null","76","","","","","","","","","","","","","","","",""
"","ISI","","html-keyboard-response","495","406863","0.0-1.0-687.0","0","0","93174","","null","","","null","76","NaN","","","","","","","","","","","","","","",""
"","S2","","html-keyboard-response","496","407115","0.0-1.0-688.0","0","0","93174","","null","","","null","76","","NaN","","","","","","","","","","","","","",""
"","response","","html-keyboard-response","497","407838","0.0-1.0-689.0-0.0","0","0","93174","","722","","","68","76","","","2","76","training","adjacent","AB","1","2","P.jpg","O.jpg","1","1","1","",""
"","feedback","","html-keyboard-response","498","408840","0.0-1.0-690.0-0.0","0","0","93174","","null","","","null","76","","","","","","","","","","","","","","","",""
"","ITI","","html-keyboard-response","499","409843","0.0-1.0-693.0","0","0","93174","","null","","","null","76","","","","","","","","","","","","","","","NaN",""
"","S1","","html-keyboard-response","500","410096","0.0-1.0-695.0","0","0","93174","","null","","","null","77","","","","","","","","","","","","","","","",""
"","ISI","","html-keyboard-response","501","411098","0.0-1.0-696.0","0","0","93174","","null","","","null","77","NaN","","","","","","","","","","","","","","",""
"","S2","","html-keyboard-response","502","411349","0.0-1.0-697.0","0","0","93174","","null","","","null","77","","NaN","","","","","","","","","","","","","",""
"","response","","html-keyboard-response","503","411886","0.0-1.0-698.0-0.0","0","0","93174","","535","","","75","77","","","2","77","training","adjacent","FE","6","5","L.jpg","Q.jpg","0","0","1","",""
"","feedback","","html-keyboard-response","504","412892","0.0-1.0-699.0-0.0","0","0","93174","","null","","","null","77","","","","","","","","","","","","","","","",""
"","ITI","","html-keyboard-response","505","413894","0.0-1.0-702.0","0","0","93174","","null","","","null","77","","","","","","","","","","","","","","","NaN",""
"","S1","","html-keyboard-response","506","414155","0.0-1.0-704.0","0","0","93174","","null","","","null","78","","","","","","","","","","","","","","","",""
"","ISI","","html-keyboard-response","507","415157","0.0-1.0-705.0","0","0","93174","","null","","","null","78","NaN","","","","","","","","","","","","","","",""
"","S2","","html-keyboard-response","508","415408","0.0-1.0-706.0","0","0","93174","","null","","","null","78","","NaN","","","","","","","","","","","","","",""
"","response","","html-keyboard-response","509","415903","0.0-1.0-707.0-0.0","0","0","93174","","492","","","68","78","","","2","78","training","adjacent","ED","5","4","Q.jpg","M.jpg","1","0","0","",""
"","feedback","","html-keyboard-response","510","416905","0.0-1.0-708.0-0.0","0","0","93174","","null","","","null","78","","","","","","","","","","","","","","","",""
"","time_out","","html-keyboard-response","511","418907","0.0-1.0-710.0-0.0","0","0","93174","","null","","","null","78","","","","","","","","","","","","","","","",""
"","ITI","","html-keyboard-response","512","419909","0.0-1.0-711.0","0","0","93174","","null","","","null","78","","","","","","","","","","","","","","","NaN",""
"","S1","","html-keyboard-response","513","420161","0.0-1.0-713.0","0","0","93174","","null","","","null","79","","","","","","","","","","","","","","","",""
"","ISI","","html-keyboard-response","514","421163","0.0-1.0-714.0","0","0","93174","","null","","","null","79","NaN","","","","","","","","","","","","","","",""
"","S2","","html-keyboard-response","515","421415","0.0-1.0-715.0","0","0","93174","","null","","","null","79","","NaN","","","","","","","","","","","","","",""
"","response","","html-keyboard-response","516","421502","0.0-1.0-716.0-0.0","0","0","93174","","85","","","75","79","","","2","79","training","adjacent","DC","4","3","M.jpg","R.jpg","0","0","1","",""
"","feedback","","html-keyboard-response","517","422505","0.0-1.0-717.0-0.0","0","0","93174","","null","","","null","79","","","","","","","","","","","","","","","",""
"","ITI","","html-keyboard-response","518","423507","0.0-1.0-720.0","0","0","93174","","null","","","null","79","","","","","","","","","","","","","","","NaN",""
"","S1","","html-keyboard-response","519","423760","0.0-1.0-722.0","0","0","93174","","null","","","null","80","","","","","","","","","","","","","","","",""
"","ISI","","html-keyboard-response","520","424762","0.0-1.0-723.0","0","0","93174","","null","","","null","80","NaN","","","","","","","","","","","","","","",""
"","S2","","html-keyboard-response","521","425015","0.0-1.0-724.0","0","0","93174","","null","","","null","80","","NaN","","","","","","","","","","","","","",""
"","response","","html-keyboard-response","522","425518","0.0-1.0-725.0-0.0","0","0","93174","","502","","","68","80","","","2","80","training","adjacent","FG","6","7","L.jpg","N.jpg","1","1","1","",""
"","feedback","","html-keyboard-response","523","426521","0.0-1.0-726.0-0.0","0","0","93174","","null","","","null","80","","","","","","","","","","","","","","","",""
"","ITI","","html-keyboard-response","524","427523","0.0-1.0-729.0","0","0","93174","","null","","","null","80","","","","","","","","","","","","","","","NaN",""
"","S1","","html-keyboard-response","525","427775","0.0-1.0-731.0","0","0","93174","","null","","","null","81","","","","","","","","","","","","","","","",""
"","ISI","","html-keyboard-response","526","428778","0.0-1.0-732.0","0","0","93174","","null","","","null","81","NaN","","","","","","","","","","","","","","",""
"","S2","","html-keyboard-response","527","429030","0.0-1.0-733.0","0","0","93174","","null","","","null","81","","NaN","","","","","","","","","","","","","",""
"","response","","html-keyboard-response","528","429758","0.0-1.0-734.0-0.0","0","0","93174","","726","","","75","81","","","2","81","training","adjacent","DC","4","3","M.jpg","R.jpg","0","0","1","",""
"","feedback","","html-keyboard-response","529","430761","0.0-1.0-735.0-0.0","0","0","93174","","null","","","null","81","","","","","","","","","","","","","","","",""
"","ITI","","html-keyboard-response","530","431763","0.0-1.0-738.0","0","0","93174","","null","","","null","81","","","","","","","","","","","","","","","NaN",""
"","S1","","html-keyboard-response","531","432014","0.0-1.0-740.0","0","0","93174","","null","","","null","82","","","","","","","","","","","","","","","",""
"","ISI","","html-keyboard-response","532","433017","0.0-1.0-741.0","0","0","93174","","null","","","null","82","NaN","","","","","","","","","","","","","","",""
"","S2","","html-keyboard-response","533","433269","0.0-1.0-742.0","0","0","93174","","null","","","null","82","","NaN","","","","","","","","","","","","","",""
"","response","","html-keyboard-response","534","433790","0.0-1.0-743.0-0.0","0","0","93174","","519","","","75","82","","","2","82","training","adjacent","AB","1","2","P.jpg","O.jpg","0","1","0","",""
"","feedback","","html-keyboard-response","535","434793","0.0-1.0-744.0-0.0","0","0","93174","","null","","","null","82","","","","","","","","","","","","","","","",""
"","time_out","","html-keyboard-response","536","436796","0.0-1.0-746.0-0.0","0","0","93174","","null","","","null","82","","","","","","","","","","","","","","","",""
"","ITI","","html-keyboard-response","537","437799","0.0-1.0-747.0","0","0","93174","","null","","","null","82","","","","","","","","","","","","","","","NaN",""
"","S1","","html-keyboard-response","538","438051","0.0-1.0-749.0","0","0","93174","","null","","","null","83","","","","","","","","","","","","","","","",""
"","ISI","","html-keyboard-response","539","439053","0.0-1.0-750.0","0","0","93174","","null","","","null","83","NaN","","","","","","","","","","","","","","",""
"","S2","","html-keyboard-response","540","439306","0.0-1.0-751.0","0","0","93174","","null","","","null","83","","NaN","","","","","","","","","","","","","",""
"","response","","html-keyboard-response","541","439857","0.0-1.0-752.0-0.0","0","0","93174","","549","","","68","83","","","2","83","training","adjacent","DC","4","3","M.jpg","R.jpg","1","0","0","",""
"","feedback","","html-keyboard-response","542","440859","0.0-1.0-753.0-0.0","0","0","93174","","null","","","null","83","","","","","","","","","","","","","","","",""
"","time_out","","html-keyboard-response","543","442862","0.0-1.0-755.0-0.0","0","0","93174","","null","","","null","83","","","","","","","","","","","","","","","",""
"","ITI","","html-keyboard-response","544","443864","0.0-1.0-756.0","0","0","93174","","null","","","null","83","","","","","","","","","","","","","","","NaN",""
"","S1","","html-keyboard-response","545","444116","0.0-1.0-758.0","0","0","93174","","null","","","null","84","","","","","","","","","","","","","","","",""
"","ISI","","html-keyboard-response","546","445123","0.0-1.0-759.0","0","0","93174","","null","","","null","84","NaN","","","","","","","","","","","","","","",""
"","S2","","html-keyboard-response","547","445375","0.0-1.0-760.0","0","0","93174","","null","","","null","84","","NaN","","","","","","","","","","","","","",""
"","response","","html-keyboard-response","548","445758","0.0-1.0-761.0-0.0","0","0","93174","","381","","","68","84","","","2","84","training","adjacent","EF","5","6","Q.jpg","L.jpg","1","1","1","",""
"","feedback","","html-keyboard-response","549","446761","0.0-1.0-762.0-0.0","0","0","93174","","null","","","null","84","","","","","","","","","","","","","","","",""
"","ITI","","html-keyboard-response","550","447764","0.0-1.0-765.0","0","0","93174","","null","","","null","84","","","","","","","","","","","","","","","NaN",""
"","S1","","html-keyboard-response","551","448016","0.0-1.0-767.0","0","0","93174","","null","","","null","85","","","","","","","","","","","","","","","",""
"","ISI","","html-keyboard-response","552","449019","0.0-1.0-768.0","0","0","93174","","null","","","null","85","NaN","","","","","","","","","","","","","","",""
"","S2","","html-keyboard-response","553","449272","0.0-1.0-769.0","0","0","93174","","null","","","null","85","","NaN","","","","","","","","","","","","","",""
"","response","","html-keyboard-response","554","449726","0.0-1.0-770.0-0.0","0","0","93174","","452","","","75","85","","","2","85","training","adjacent","CD","3","4","R.jpg","M.jpg","0","1","0","",""
"","feedback","","html-keyboard-response","555","450729","0.0-1.0-771.0-0.0","0","0","93174","","null","","","null","85","","","","","","","","","","","","","","","",""
"","time_out","","html-keyboard-response","556","452731","0.0-1.0-773.0-0.0","0","0","93174","","null","","","null","85","","","","","","","","","","","","","","","",""
"","ITI","","html-keyboard-response","557","453733","0.0-1.0-774.0","0","0","93174","","null","","","null","85","","","","","","","","","","","","","","","NaN",""
"","S1","","html-keyboard-response","558","453985","0.0-1.0-776.0","0","0","93174","","null","","","null","86","","","","","","","","","","","","","","","",""
"","ISI","","html-keyboard-response","559","454988","0.0-1.0-777.0","0","0","93174","","null","","","null","86","NaN","","","","","","","","","","","","","","",""
"","S2","","html-keyboard-response","560","455241","0.0-1.0-778.0","0","0","93174","","null","","","null","86","","NaN","","","","","","","","","","","","","",""
"","response","","html-keyboard-response","561","455679","0.0-1.0-779.0-0.0","0","0","93174","","437","","","68","86","","","2","86","training","adjacent","FE","6","5","L.jpg","Q.jpg","1","0","0","",""
"","feedback","","html-keyboard-response","562","456682","0.0-1.0-780.0-0.0","0","0","93174","","null","","","null","86","","","","","","","","","","","","","","","",""
"","time_out","","html-keyboard-response","563","458684","0.0-1.0-782.0-0.0","0","0","93174","","null","","","null","86","","","","","","","","","","","","","","","",""
"","ITI","","html-keyboard-response","564","459687","0.0-1.0-783.0","0","0","93174","","null","","","null","86","","","","","","","","","","","","","","","NaN",""
"","S1","","html-keyboard-response","565","459940","0.0-1.0-785.0","0","0","93174","","null","","","null","87","","","","","","","","","","","","","","","",""
"","ISI","","html-keyboard-response","566","460941","0.0-1.0-786.0","0","0","93174","","null","","","null","87","NaN","","","","","","","","","","","","","","",""
"","S2","","html-keyboard-response","567","461194","0.0-1.0-787.0","0","0","93174","","null","","","null","87","","NaN","","","","","","","","","","","","","",""
"","response","","html-keyboard-response","568","461311","0.0-1.0-788.0-0.0","0","0","93174","","116","","","75","87","","","2","87","training","adjacent","GF","7","6","N.jpg","L.jpg","0","0","1","",""
"","feedback","","html-keyboard-response","569","462314","0.0-1.0-789.0-0.0","0","0","93174","","null","","","null","87","","","","","","","","","","","","","","","",""
"","ITI","","html-keyboard-response","570","463316","0.0-1.0-792.0","0","0","93174","","null","","","null","87","","","","","","","","","","","","","","","NaN",""
"","S1","","html-keyboard-response","571","463574","0.0-1.0-794.0","0","0","93174","","null","","","null","88","","","","","","","","","","","","","","","",""
"","ISI","","html-keyboard-response","572","464576","0.0-1.0-795.0","0","0","93174","","null","","","null","88","NaN","","","","","","","","","","","","","","",""
"","S2","","html-keyboard-response","573","464829","0.0-1.0-796.0","0","0","93174","","null","","","null","88","","NaN","","","","","","","","","","","","","",""
"","response","","html-keyboard-response","574","465246","0.0-1.0-797.0-0.0","0","0","93174","","416","","","75","88","","","2","88","training","adjacent","ED","5","4","Q.jpg","M.jpg","0","0","1","",""
"","feedback","","html-keyboard-response","575","466252","0.0-1.0-798.0-0.0","0","0","93174","","null","","","null","88","","","","","","","","","","","","","","","",""
"","ITI","","html-keyboard-response","576","467255","0.0-1.0-801.0","0","0","93174","","null","","","null","88","","","","","","","","","","","","","","","NaN",""
"","S1","","html-keyboard-response","577","467508","0.0-1.0-803.0","0","0","93174","","null","","","null","89","","","","","","","","","","","","","","","",""
"","ISI","","html-keyboard-response","578","468511","0.0-1.0-804.0","0","0","93174","","null","","","null","89","NaN","","","","","","","","","","","","","","",""
"","S2","","html-keyboard-response","579","468764","0.0-1.0-805.0","0","0","93174","","null","","","null","89","","NaN","","","","","","","","","","","","","",""
"","response","","html-keyboard-response","580","469246","0.0-1.0-806.0-0.0","0","0","93174","","481","","","75","89","","","2","89","training","adjacent","GF","7","6","N.jpg","L.jpg","0","0","1","",""
"","feedback","","html-keyboard-response","581","470253","0.0-1.0-807.0-0.0","0","0","93174","","null","","","null","89","","","","","","","","","","","","","","","",""
"","ITI","","html-keyboard-response","582","471256","0.0-1.0-810.0","0","0","93174","","null","","","null","89","","","","","","","","","","","","","","","NaN",""
"","S1","","html-keyboard-response","583","471509","0.0-1.0-812.0","0","0","93174","","null","","","null","90","","","","","","","","","","","","","","","",""
