"success","ttype","start_time","trial_type","trial_index","time_elapsed","internal_node_id","warning","missed_checkup","PID","view_history","rt","responses","repeat_instructions","key_press","index","keypress_isi","keypress_S2","block","trial_num","phase","group_type","pair_type","S1_stim","S2_stim","S1_img","S2_img","S1_chosen","S1_higher","accuracy","keypress_iti","total_bonus_tally"
"true","full_screen","d03032023hr1939","fullscreen","0","14262","0.0-0.0","0","0","29448","","","","","","","","","","","","","","","","","","","","","",""
"","instructions","","instructions","1","62529","0.0-1.0-0.0-0.0","0","0","29448","[{""page_index"":0,""viewing_time"":5691},{""page_index"":1,""viewing_time"":26077},{""page_index"":2,""viewing_time"":14526},{""page_index"":3,""viewing_time"":1966}]","48260","","","","","","","","","","","","","","","","","","","",""
"","comprehension_check","","survey-multi-choice","2","85667","0.0-1.0-0.0-1.0","0","0","29448","","23127","{""Q0"":""True"",""Q1"":""D"",""Q2"":""Once the second image appears and while the screen 'MAKE A CHOICE' is shown"",""Q3"":""Green mark"",""Q4"":""either D or K""}","0","","","","","","","","","","","","","","","","","",""
"","start_exp","","html-keyboard-response","3","92281","0.0-1.0-1.0","0","0","29448","","6609","","","32","","","","","","","","","","","","","","","","",""
"","S1","","html-keyboard-response","4","92541","0.0-1.0-2.0","0","0","29448","","null","","","null","0","","","","","","","","","","","","","","","",""
"","ISI","","html-keyboard-response","5","93051","0.0-1.0-3.0","0","0","29448","","null","","","null","0","NaN","","","","","","","","","","","","","","",""
"","S2","","html-keyboard-response","6","93312","0.0-1.0-4.0","0","0","29448","","null","","","null","0","","NaN","","","","","","","","","","","","","",""
"","response","","html-keyboard-response","7","93761","0.0-1.0-5.0-0.0","0","0","29448","","446","","","68","0","","","1","0","training","adjacent","FG","6","7","O.jpg","M.jpg","1","1","1","",""
"","feedback","","html-keyboard-response","8","94773","0.0-1.0-6.0-0.0","0","0","29448","","null","","","null","0","","","","","","","","","","","","","","","",""
"","ITI","","html-keyboard-response","9","95782","0.0-1.0-9.0","0","0","29448","","null","","","null","0","","","","","","","","","","","","","","","NaN",""
"","S1","","html-keyboard-response","10","96041","0.0-1.0-11.0","0","0","29448","","null","","","null","1","","","","","","","","","","","","","","","",""
"","ISI","","html-keyboard-response","11","96551","0.0-1.0-12.0","0","0","29448","","null","","","null","1","NaN","","","","","","","","","","","","","","",""
"","S2","","html-keyboard-response","12","96811","0.0-1.0-13.0","0","0","29448","","null","","","null","1","","NaN","","","","","","","","","","","","","",""
"","response","","html-keyboard-response","13","97346","0.0-1.0-14.0-0.0","0","0","29448","","531","","","68","1","","","1","1","training","adjacent","BA","2","1","Q.jpg","N.jpg","1","0","0","",""
"","feedback","","html-keyboard-response","14","98351","0.0-1.0-15.0-0.0","0","0","29448","","null","","","null","1","","","","","","","","","","","","","","","",""
"","time_out","","html-keyboard-response","15","100361","0.0-1.0-17.0-0.0","0","0","29448","","null","","","null","1","","","","","","","","","","","","","","","",""
"","ITI","","html-keyboard-response","16","101371","0.0-1.0-18.0","0","0","29448","","null","","","null","1","","","","","","","","","","","","","","","NaN",""
"","S1","","html-keyboard-response","17","101631","0.0-1.0-20.0","0","0","29448","","null","","","null","2","","","","","","","","","","","","","","","",""
"","ISI","","html-keyboard-response","18","102141","0.0-1.0-21.0","0","0","29448","","null","","","null","2","NaN","","","","","","","","","","","","","","",""
"","S2","","html-keyboard-response","19","102401","0.0-1.0-22.0","0","0","29448","","null","","","null","2","","NaN","","","","","","","","","","","","","",""
"","response","","html-keyboard-response","20","102745","0.0-1.0-23.0-0.0","0","0","29448","","341","","","75","2","","","1","2","training","adjacent","AB","1","2","N.jpg","Q.jpg","0","1","0","",""
"","feedback","","html-keyboard-response","21","103751","0.0-1.0-24.0-0.0","0","0","29448","","null","","","null","2","","","","","","","","","","","","","","","",""
"","time_out","","html-keyboard-response","22","105761","0.0-1.0-26.0-0.0","0","0","29448","","null","","","null","2","","","","","","","","","","","","","","","",""
"","ITI","","html-keyboard-response","23","106771","0.0-1.0-27.0","0","0","29448","","null","","","null","2","","","","","","","","","","","","","","","NaN",""
"","S1","","html-keyboard-response","24","107031","0.0-1.0-29.0","0","0","29448","","null","","","null","3","","","","","","","","","","","","","","","",""
"","ISI","","html-keyboard-response","25","107541","0.0-1.0-30.0","0","0","29448","","null","","","null","3","NaN","","","","","","","","","","","","","","",""
"","S2","","html-keyboard-response","26","107801","0.0-1.0-31.0","0","0","29448","","null","","","null","3","","NaN","","","","","","","","","","","","","",""
"","response","","html-keyboard-response","27","108145","0.0-1.0-32.0-0.0","0","0","29448","","341","","","68","3","","","1","3","training","adjacent","ED","5","4","L.jpg","R.jpg","1","0","0","",""
"","feedback","","html-keyboard-response","28","109151","0.0-1.0-33.0-0.0","0","0","29448","","null","","","null","3","","","","","","","","","","","","","","","",""
"","time_out","","html-keyboard-response","29","111161","0.0-1.0-35.0-0.0","0","0","29448","","null","","","null","3","","","","","","","","","","","","","","","",""
"","ITI","","html-keyboard-response","30","112171","0.0-1.0-36.0","0","0","29448","","null","","","null","3","","","","","","","","","","","","","","","NaN",""
"","S1","","html-keyboard-response","31","112431","0.0-1.0-38.0","0","0","29448","","null","","","null","4","","","","","","","","","","","","","","","",""
"","ISI","","html-keyboard-response","32","112940","0.0-1.0-39.0","0","0","29448","","null","","","null","4","NaN","","","","","","","","","","","","","","",""
"","S2","","html-keyboard-response","33","113201","0.0-1.0-40.0","0","0","29448","","null","","","null","4","","NaN","","","","","","","","","","","","","",""
"","response","","html-keyboard-response","34","113544","0.0-1.0-41.0-0.0","0","0","29448","","342","","","75","4","","","1","4","training","adjacent","BA","2","1","Q.jpg","N.jpg","0","0","1","",""
"","feedback","","html-keyboard-response","35","114551","0.0-1.0-42.0-0.0","0","0","29448","","null","","","null","4","","","","","","","","","","","","","","","",""
"","ITI","","html-keyboard-response","36","115561","0.0-1.0-45.0","0","0","29448","","null","","","null","4","","","","","","","","","","","","","","","NaN",""
"","S1","","html-keyboard-response","37","115821","0.0-1.0-47.0","0","0","29448","","null","","","null","5","","","","","","","","","","","","","","","",""
"","ISI","","html-keyboard-response","38","116331","0.0-1.0-48.0","0","0","29448","","null","","","null","5","NaN","","","","","","","","","","","","","","",""
"","S2","","html-keyboard-response","39","116591","0.0-1.0-49.0","0","0","29448","","null","","","null","5","","NaN","","","","","","","","","","","","","",""
"","response","","html-keyboard-response","40","117032","0.0-1.0-50.0-0.0","0","0","29448","","439","","","75","5","","","1","5","training","adjacent","CD","3","4","P.jpg","R.jpg","0","1","0","",""
"","feedback","","html-keyboard-response","41","118040","0.0-1.0-51.0-0.0","0","0","29448","","null","","","null","5","","","","","","","","","","","","","","","",""
"","time_out","","html-keyboard-response","42","120051","0.0-1.0-53.0-0.0","0","0","29448","","null","","","null","5","","","","","","","","","","","","","","","",""
"","ITI","","html-keyboard-response","43","121061","0.0-1.0-54.0","0","0","29448","","null","","","null","5","","","","","","","","","","","","","","","NaN",""
"","S1","","html-keyboard-response","44","121320","0.0-1.0-56.0","0","0","29448","","null","","","null","6","","","","","","","","","","","","","","","",""
"","ISI","","html-keyboard-response","45","121830","0.0-1.0-57.0","0","0","29448","","null","","","null","6","NaN","","","","","","","","","","","","","","",""
"","S2","","html-keyboard-response","46","122091","0.0-1.0-58.0","0","0","29448","","null","","","null","6","","NaN","","","","","","","","","","","","","",""
"","response","","html-keyboard-response","47","122432","0.0-1.0-59.0-0.0","0","0","29448","","339","","","75","6","","","1","6","training","adjacent","CD","3","4","P.jpg","R.jpg","0","1","0","",""
"","feedback","","html-keyboard-response","48","123441","0.0-1.0-60.0-0.0","0","0","29448","","null","","","null","6","","","","","","","","","","","","","","","",""
"","time_out","","html-keyboard-response","49","125451","0.0-1.0-62.0-0.0","0","0","29448","","null","","","null","6","","","","","","","","","","","","","","","",""
"","ITI","","html-keyboard-response","50","126461","0.0-1.0-63.0","0","0","29448","","null","","","null","6","","","","","","","","","","","","","","","NaN",""
"","S1","","html-keyboard-response","51","126720","0.0-1.0-65.0","0","0","29448","","null","","","null","7","","","","","","","","","","","","","","","",""
"","ISI","","html-keyboard-response","52","127231","0.0-1.0-66.0","0","0","29448","","null","","","null","7","NaN","","","","","","","","","","","","","","",""
"","S2","","html-keyboard-response","53","127490","0.0-1.0-67.0","0","0","29448","","null","","","null","7","","NaN","","","","","","","","","","","","","",""
"","response","","html-keyboard-response","54","127833","0.0-1.0-68.0-0.0","0","0","29448","","339","","","68","7","","","1","7","training","adjacent","FG","6","7","O.jpg","M.jpg","1","1","1","",""
"","feedback","","html-keyboard-response","55","128840","0.0-1.0-69.0-0.0","0","0","29448","","null","","","null","7","","","","","","","","","","","","","","","",""
"","ITI","","html-keyboard-response","56","129851","0.0-1.0-72.0","0","0","29448","","null","","","null","7","","","","","","","","","","","","","","","NaN",""
"","S1","","html-keyboard-response","57","130110","0.0-1.0-74.0","0","0","29448","","null","","","null","8","","","","","","","","","","","","","","","",""
"","ISI","","html-keyboard-response","58","130620","0.0-1.0-75.0","0","0","29448","","null","","","null","8","NaN","","","","","","","","","","","","","","",""
"","S2","","html-keyboard-response","59","130881","0.0-1.0-76.0","0","0","29448","","null","","","null","8","","NaN","","","","","","","","","","","","","",""
"","response","","html-keyboard-response","60","131312","0.0-1.0-77.0-0.0","0","0","29448","","429","","","68","8","","","1","8","training","adjacent","CD","3","4","P.jpg","R.jpg","1","1","1","",""
"","feedback","","html-keyboard-response","61","132320","0.0-1.0-78.0-0.0","0","0","29448","","null","","","null","8","","","","","","","","","","","","","","","",""
"","ITI","","html-keyboard-response","62","133331","0.0-1.0-81.0","0","0","29448","","null","","","null","8","","","","","","","","","","","","","","","NaN",""
"","S1","","html-keyboard-response","63","133591","0.0-1.0-83.0","0","0","29448","","null","","","null","9","","","","","","","","","","","","","","","",""
"","ISI","","html-keyboard-response","64","134100","0.0-1.0-84.0","0","0","29448","","null","","","null","9","NaN","","","","","","","","","","","","","","",""
"","S2","","html-keyboard-response","65","134360","0.0-1.0-85.0","0","0","29448","","null","","","null","9","","NaN","","","","","","","","","","","","","",""
"","response","","html-keyboard-response","66","134688","0.0-1.0-86.0-0.0","0","0","29448","","326","","","75","9","","","1","9","training","adjacent","BC","2","3","Q.jpg","P.jpg","0","1","0","",""
"","feedback","","html-keyboard-response","67","135701","0.0-1.0-87.0-0.0","0","0","29448","","null","","","null","9","","","","","","","","","","","","","","","",""
"","time_out","","html-keyboard-response","68","137710","0.0-1.0-89.0-0.0","0","0","29448","","null","","","null","9","","","","","","","","","","","","","","","",""
"","ITI","","html-keyboard-response","69","138720","0.0-1.0-90.0","0","0","29448","","null","","","null","9","","","","","","","","","","","","","","","NaN",""
"","S1","","html-keyboard-response","70","138980","0.0-1.0-92.0","0","0","29448","","null","","","null","10","","","","","","","","","","","","","","","",""
"","ISI","","html-keyboard-response","71","139490","0.0-1.0-93.0","0","0","29448","","null","","","null","10","NaN","","","","","","","","","","","","","","",""
"","S2","","html-keyboard-response","72","139750","0.0-1.0-94.0","0","0","29448","","null","","","null","10","","NaN","","","","","","","","","","","","","",""
"","response","","html-keyboard-response","73","140088","0.0-1.0-95.0-0.0","0","0","29448","","334","","","75","10","","","1","10","training","adjacent","DE","4","5","R.jpg","L.jpg","0","1","0","",""
"","feedback","","html-keyboard-response","74","141100","0.0-1.0-96.0-0.0","0","0","29448","","null","","","null","10","","","","","","","","","","","","","","","",""
"","time_out","","html-keyboard-response","75","143110","0.0-1.0-98.0-0.0","0","0","29448","","null","","","null","10","","","","","","","","","","","","","","","",""
"","ITI","","html-keyboard-response","76","144120","0.0-1.0-99.0","0","0","29448","","null","","","null","10","","","","","","","","","","","","","","","NaN",""
"","S1","","html-keyboard-response","77","144381","0.0-1.0-101.0","0","0","29448","","null","","","null","11","","","","","","","","","","","","","","","",""
"","ISI","","html-keyboard-response","78","144890","0.0-1.0-102.0","0","0","29448","","null","","","null","11","NaN","","","","","","","","","","","","","","",""
"","S2","","html-keyboard-response","79","145150","0.0-1.0-103.0","0","0","29448","","null","","","null","11","","NaN","","","","","","","","","","","","","",""
"","response","","html-keyboard-response","80","145488","0.0-1.0-104.0-0.0","0","0","29448","","336","","","68","11","","","1","11","training","adjacent","GF","7","6","M.jpg","O.jpg","1","0","0","",""
"","feedback","","html-keyboard-response","81","146500","0.0-1.0-105.0-0.0","0","0","29448","","null","","","null","11","","","","","","","","","","","","","","","",""
"","time_out","","html-keyboard-response","82","148511","0.0-1.0-107.0-0.0","0","0","29448","","null","","","null","11","","","","","","","","","","","","","","","",""
"","ITI","","html-keyboard-response","83","149520","0.0-1.0-108.0","0","0","29448","","null","","","null","11","","","","","","","","","","","","","","","NaN",""
"","S1","","html-keyboard-response","84","149780","0.0-1.0-110.0","0","0","29448","","null","","","null","12","","","","","","","","","","","","","","","",""
"","ISI","","html-keyboard-response","85","150290","0.0-1.0-111.0","0","0","29448","","null","","","null","12","NaN","","","","","","","","","","","","","","",""
"","S2","","html-keyboard-response","86","150550","0.0-1.0-112.0","0","0","29448","","null","","","null","12","","NaN","","","","","","","","","","","","","",""
"","response","","html-keyboard-response","87","150888","0.0-1.0-113.0-0.0","0","0","29448","","336","","","68","12","","","1","12","training","adjacent","BA","2","1","Q.jpg","N.jpg","1","0","0","",""
"","feedback","","html-keyboard-response","88","151900","0.0-1.0-114.0-0.0","0","0","29448","","null","","","null","12","","","","","","","","","","","","","","","",""
"","time_out","","html-keyboard-response","89","153911","0.0-1.0-116.0-0.0","0","0","29448","","null","","","null","12","","","","","","","","","","","","","","","",""
"","ITI","","html-keyboard-response","90","154920","0.0-1.0-117.0","0","0","29448","","null","","","null","12","","","","","","","","","","","","","","","NaN",""
"","S1","","html-keyboard-response","91","155180","0.0-1.0-119.0","0","0","29448","","null","","","null","13","","","","","","","","","","","","","","","",""
"","ISI","","html-keyboard-response","92","155690","0.0-1.0-120.0","0","0","29448","","null","","","null","13","NaN","","","","","","","","","","","","","","",""
"","S2","","html-keyboard-response","93","155950","0.0-1.0-121.0","0","0","29448","","null","","","null","13","","NaN","","","","","","","","","","","","","",""
"","response","","html-keyboard-response","94","156176","0.0-1.0-122.0-0.0","0","0","29448","","223","","","68","13","","","1","13","training","adjacent","CD","3","4","P.jpg","R.jpg","1","1","1","",""
"","feedback","","html-keyboard-response","95","157180","0.0-1.0-123.0-0.0","0","0","29448","","null","","","null","13","","","","","","","","","","","","","","","",""
"","ITI","","html-keyboard-response","96","158190","0.0-1.0-126.0","0","0","29448","","null","","","null","13","","","","","","","","","","","","","","","NaN",""
"","S1","","html-keyboard-response","97","158450","0.0-1.0-128.0","0","0","29448","","null","","","null","14","","","","","","","","","","","","","","","",""
"","ISI","","html-keyboard-response","98","158960","0.0-1.0-129.0","0","0","29448","","null","","","null","14","NaN","","","","","","","","","","","","","","",""
"","S2","","html-keyboard-response","99","159220","0.0-1.0-130.0","0","0","29448","","null","","","null","14","","NaN","","","","","","","","","","","","","",""
"","response","","html-keyboard-response","100","159664","0.0-1.0-131.0-0.0","0","0","29448","","442","","","75","14","","","1","14","training","adjacent","ED","5","4","L.jpg","R.jpg","0","0","1","",""
"","feedback","","html-keyboard-response","101","160670","0.0-1.0-132.0-0.0","0","0","29448","","null","","","null","14","","","","","","","","","","","","","","","",""
"","ITI","","html-keyboard-response","102","161680","0.0-1.0-135.0","0","0","29448","","null","","","null","14","","","","","","","","","","","","","","","NaN",""
"","S1","","html-keyboard-response","103","161940","0.0-1.0-137.0","0","0","29448","","null","","","null","15","","","","","","","","","","","","","","","",""
"","ISI","","html-keyboard-response","104","162450","0.0-1.0-138.0","0","0","29448","","null","","","null","15","NaN","","","","","","","","","","","","","","",""
"","S2","","html-keyboard-response","105","162710","0.0-1.0-139.0","0","0","29448","","null","","","null","15","","NaN","","","","","","","","","","","","","",""
"","response","","html-keyboard-response","106","163040","0.0-1.0-140.0-0.0","0","0","29448","","327","","","75","15","","","1","15","training","adjacent","DC","4","3","R.jpg","P.jpg","0","0","1","",""
"","feedback","","html-keyboard-response","107","164050","0.0-1.0-141.0-0.0","0","0","29448","","null","","","null","15","","","","","","","","","","","","","","","",""
"","ITI","","html-keyboard-response","108","165060","0.0-1.0-144.0","0","0","29448","","null","","","null","15","","","","","","","","","","","","","","","NaN",""
"","S1","","html-keyboard-response","109","165320","0.0-1.0-146.0","0","0","29448","","null","","","null","16","","","","","","","","","","","","","","","",""
"","ISI","","html-keyboard-response","110","165829","0.0-1.0-147.0","0","0","29448","","null","","","null","16","NaN","","","","","","","","","","","","","","",""
"","S2","","html-keyboard-response","111","166089","0.0-1.0-148.0","0","0","29448","","null","","","null","16","","NaN","","","","","","","","","","","","","",""
"","response","","html-keyboard-response","112","166415","0.0-1.0-149.0-0.0","0","0","29448","","322","","","68","16","","","1","16","training","adjacent","GF","7","6","M.jpg","O.jpg","1","0","0","",""
"","feedback","","html-keyboard-response","113","167420","0.0-1.0-150.0-0.0","0","0","29448","","null","","","null","16","","","","","","","","","","","","","","","",""
"","time_out","","html-keyboard-response","114","169430","0.0-1.0-152.0-0.0","0","0","29448","","null","","","null","16","","","","","","","","","","","","","","","",""
"","ITI","","html-keyboard-response","115","170440","0.0-1.0-153.0","0","0","29448","","null","","","null","16","","","","","","","","","","","","","","","NaN",""
"","S1","","html-keyboard-response","116","170700","0.0-1.0-155.0","0","0","29448","","null","","","null","17","","","","","","","","","","","","","","","",""
"","ISI","","html-keyboard-response","117","171210","0.0-1.0-156.0","0","0","29448","","null","","","null","17","NaN","","","","","","","","","","","","","","",""
"","S2","","html-keyboard-response","118","171470","0.0-1.0-157.0","0","0","29448","","null","","","null","17","","NaN","","","","","","","","","","","","","",""
"","response","","html-keyboard-response","119","171815","0.0-1.0-158.0-0.0","0","0","29448","","343","","","75","17","","","1","17","training","adjacent","EF","5","6","L.jpg","O.jpg","0","1","0","",""
"","feedback","","html-keyboard-response","120","172820","0.0-1.0-159.0-0.0","0","0","29448","","null","","","null","17","","","","","","","","","","","","","","","",""
"","time_out","","html-keyboard-response","121","174830","0.0-1.0-161.0-0.0","0","0","29448","","null","","","null","17","","","","","","","","","","","","","","","",""
"","ITI","","html-keyboard-response","122","175840","0.0-1.0-162.0","0","0","29448","","null","","","null","17","","","","","","","","","","","","","","","NaN",""
"","S1","","html-keyboard-response","123","176100","0.0-1.0-164.0","0","0","29448","","null","","","null","18","","","","","","","","","","","","","","","",""
"","ISI","","html-keyboard-response","124","176610","0.0-1.0-165.0","0","0","29448","","null","","","null","18","NaN","","","","","","","","","","","","","","",""
"","S2","","html-keyboard-response","125","176870","0.0-1.0-166.0","0","0","29448","","null","","","null","18","","NaN","","","","","","","","","","","","","",""
"","response","","html-keyboard-response","126","177216","0.0-1.0-167.0-0.0","0","0","29448","","343","","","75","18","","","1","18","training","adjacent","DE","4","5","R.jpg","L.jpg","0","1","0","",""
"","feedback","","html-keyboard-response","127","178220","0.0-1.0-168.0-0.0","0","0","29448","","null","","","null","18","","","","","","","","","","","","","","","",""
"","time_out","","html-keyboard-response","128","180230","0.0-1.0-170.0-0.0","0","0","29448","","null","","","null","18","","","","","","","","","","","","","","","",""
"","ITI","","html-keyboard-response","129","181240","0.0-1.0-171.0","0","0","29448","","null","","","null","18","","","","","","","","","","","","","","","NaN",""
"","S1","","html-keyboard-response","130","181500","0.0-1.0-173.0","0","0","29448","","null","","","null","19","","","","","","","","","","","","","","","",""
"","ISI","","html-keyboard-response","131","182009","0.0-1.0-174.0","0","0","29448","","null","","","null","19","NaN","","","","","","","","","","","","","","",""
"","S2","","html-keyboard-response","132","182269","0.0-1.0-175.0","0","0","29448","","null","","","null","19","","NaN","","","","","","","","","","","","","",""
"","response","","html-keyboard-response","133","182392","0.0-1.0-176.0-0.0","0","0","29448","","120","","","75","19","","","1","19","training","adjacent","GF","7","6","M.jpg","O.jpg","0","0","1","",""
"","feedback","","html-keyboard-response","134","183400","0.0-1.0-177.0-0.0","0","0","29448","","null","","","null","19","","","","","","","","","","","","","","","",""
"","ITI","","html-keyboard-response","135","184410","0.0-1.0-180.0","0","0","29448","","null","","","null","19","","","","","","","","","","","","","","","NaN",""
"","S1","","html-keyboard-response","136","184669","0.0-1.0-182.0","0","0","29448","","null","","","null","20","","","","","","","","","","","","","","","",""
"","ISI","","html-keyboard-response","137","185179","0.0-1.0-183.0","0","0","29448","","null","","","null","20","NaN","","","","","","","","","","","","","","",""
"","S2","","html-keyboard-response","138","185440","0.0-1.0-184.0","0","0","29448","","null","","","null","20","","NaN","","","","","","","","","","","","","",""
"","response","","html-keyboard-response","139","185542","0.0-1.0-185.0-0.0","0","0","29448","","100","","","68","20","","","1","20","training","adjacent","CB","3","2","P.jpg","Q.jpg","1","0","0","",""
"","feedback","","html-keyboard-response","140","186550","0.0-1.0-186.0-0.0","0","0","29448","","null","","","null","20","","","","","","","","","","","","","","","",""
"","time_out","","html-keyboard-response","141","188560","0.0-1.0-188.0-0.0","0","0","29448","","null","","","null","20","","","","","","","","","","","","","","","",""
"","ITI","","html-keyboard-response","142","189569","0.0-1.0-189.0","0","0","29448","","null","","","null","20","","","","","","","","","","","","","","","NaN",""
"","S1","","html-keyboard-response","143","189829","0.0-1.0-191.0","0","0","29448","","null","","","null","21","","","","","","","","","","","","","","","",""
"","ISI","","html-keyboard-response","144","190339","0.0-1.0-192.0","0","0","29448","","null","","","null","21","NaN","","","","","","","","","","","","","","",""
"","S2","","html-keyboard-response","145","190599","0.0-1.0-193.0","0","0","29448","","null","","","null","21","","NaN","","","","","","","","","","","","","",""
"","response","","html-keyboard-response","146","190823","0.0-1.0-194.0-0.0","0","0","29448","","221","","","68","21","","","1","21","training","adjacent","AB","1","2","N.jpg","Q.jpg","1","1","1","",""
"","feedback","","html-keyboard-response","147","191829","0.0-1.0-195.0-0.0","0","0","29448","","null","","","null","21","","","","","","","","","","","","","","","",""
"","ITI","","html-keyboard-response","148","192839","0.0-1.0-198.0","0","0","29448","","null","","","null","21","","","","","","","","","","","","","","","NaN",""
"","S1","","html-keyboard-response","149","193100","0.0-1.0-200.0","0","0","29448","","null","","","null","22","","","","","","","","","","","","","","","",""
"","ISI","","html-keyboard-response","150","193609","0.0-1.0-201.0","0","0","29448","","null","","","null","22","NaN","","","","","","","","","","","","","","",""
"","S2","","html-keyboard-response","151","193869","0.0-1.0-202.0","0","0","29448","","null","","","null","22","","NaN","","","","","","","","","","","","","",""
"","response","","html-keyboard-response","152","194088","0.0-1.0-203.0-0.0","0","0","29448","","215","","","75","22","","","1","22","training","adjacent","BC","2","3","Q.jpg","P.jpg","0","1","0","",""
"","feedback","","html-keyboard-response","153","195100","0.0-1.0-204.0-0.0","0","0","29448","","null","","","null","22","","","","","","","","","","","","","","","",""
"","time_out","","html-keyboard-response","154","197109","0.0-1.0-206.0-0.0","0","0","29448","","null","","","null","22","","","","","","","","","","","","","","","",""
"","ITI","","html-keyboard-response","155","198120","0.0-1.0-207.0","0","0","29448","","null","","","null","22","","","","","","","","","","","","","","","NaN",""
"","S1","","html-keyboard-response","156","198379","0.0-1.0-209.0","0","0","29448","","null","","","null","23","","","","","","","","","","","","","","","",""
"","ISI","","html-keyboard-response","157","198889","0.0-1.0-210.0","0","0","29448","","null","","","null","23","NaN","","","","","","","","","","","","","","",""
"","S2","","html-keyboard-response","158","199149","0.0-1.0-211.0","0","0","29448","","null","","","null","23","","NaN","","","","","","","","","","","","","",""
"","response","","html-keyboard-response","159","199263","0.0-1.0-212.0-0.0","0","0","29448","","111","","","68","23","","","1","23","training","adjacent","ED","5","4","L.jpg","R.jpg","1","0","0","",""
"","feedback","","html-keyboard-response","160","200269","0.0-1.0-213.0-0.0","0","0","29448","","null","","","null","23","","","","","","","","","","","","","","","",""
"","time_out","","html-keyboard-response","161","202280","0.0-1.0-215.0-0.0","0","0","29448","","null","","","null","23","","","","","","","","","","","","","","","",""
"","ITI","","html-keyboard-response","162","203289","0.0-1.0-216.0","0","0","29448","","null","","","null","23","","","","","","","","","","","","","","","NaN",""
"","S1","","html-keyboard-response","163","203549","0.0-1.0-218.0","0","0","29448","","null","","","null","24","","","","","","","","","","","","","","","",""
"","ISI","","html-keyboard-response","164","204059","0.0-1.0-219.0","0","0","29448","","null","","","null","24","NaN","","","","","","","","","","","","","","",""
"","S2","","html-keyboard-response","165","204319","0.0-1.0-220.0","0","0","29448","","null","","","null","24","","NaN","","","","","","","","","","","","","",""
"","response","","html-keyboard-response","166","204552","0.0-1.0-221.0-0.0","0","0","29448","","230","","","75","24","","","1","24","training","adjacent","BA","2","1","Q.jpg","N.jpg","0","0","1","",""
"","feedback","","html-keyboard-response","167","205559","0.0-1.0-222.0-0.0","0","0","29448","","null","","","null","24","","","","","","","","","","","","","","","",""
"","ITI","","html-keyboard-response","168","206570","0.0-1.0-225.0","0","0","29448","","null","","","null","24","","","","","","","","","","","","","","","NaN",""
"","S1","","html-keyboard-response","169","206829","0.0-1.0-227.0","0","0","29448","","null","","","null","25","","","","","","","","","","","","","","","",""
"","ISI","","html-keyboard-response","170","207339","0.0-1.0-228.0","0","0","29448","","null","","","null","25","NaN","","","","","","","","","","","","","","",""
"","S2","","html-keyboard-response","171","207600","0.0-1.0-229.0","0","0","29448","","null","","","null","25","","NaN","","","","","","","","","","","","","",""
"","response","","html-keyboard-response","172","207703","0.0-1.0-230.0-0.0","0","0","29448","","101","","","68","25","","","1","25","training","adjacent","CB","3","2","P.jpg","Q.jpg","1","0","0","",""
"","feedback","","html-keyboard-response","173","208710","0.0-1.0-231.0-0.0","0","0","29448","","null","","","null","25","","","","","","","","","","","","","","","",""
"","time_out","","html-keyboard-response","174","210719","0.0-1.0-233.0-0.0","0","0","29448","","null","","","null","25","","","","","","","","","","","","","","","",""
"","ITI","","html-keyboard-response","175","211729","0.0-1.0-234.0","0","0","29448","","null","","","null","25","","","","","","","","","","","","","","","NaN",""
"","S1","","html-keyboard-response","176","211989","0.0-1.0-236.0","0","0","29448","","null","","","null","26","","","","","","","","","","","","","","","",""
"","ISI","","html-keyboard-response","177","212500","0.0-1.0-237.0","0","0","29448","","null","","","null","26","NaN","","","","","","","","","","","","","","",""
"","S2","","html-keyboard-response","178","212759","0.0-1.0-238.0","0","0","29448","","null","","","null","26","","NaN","","","","","","","","","","","","","",""
"","response","","html-keyboard-response","179","213103","0.0-1.0-239.0-0.0","0","0","29448","","341","","","75","26","","","1","26","training","adjacent","FE","6","5","O.jpg","L.jpg","0","0","1","",""
"","feedback","","html-keyboard-response","180","214109","0.0-1.0-240.0-0.0","0","0","29448","","null","","","null","26","","","","","","","","","","","","","","","",""
"","ITI","","html-keyboard-response","181","215119","0.0-1.0-243.0","0","0","29448","","null","","","null","26","","","","","","","","","","","","","","","NaN",""
"","S1","","html-keyboard-response","182","215379","0.0-1.0-245.0","0","0","29448","","null","","","null","27","","","","","","","","","","","","","","","",""
"","ISI","","html-keyboard-response","183","215889","0.0-1.0-246.0","0","0","29448","","null","","","null","27","NaN","","","","","","","","","","","","","","",""
"","S2","","html-keyboard-response","184","216149","0.0-1.0-247.0","0","0","29448","","null","","","null","27","","NaN","","","","","","","","","","","","","",""
"","response","","html-keyboard-response","185","216367","0.0-1.0-248.0-0.0","0","0","29448","","215","","","75","27","","","1","27","training","adjacent","DE","4","5","R.jpg","L.jpg","0","1","0","",""
"","feedback","","html-keyboard-response","186","217379","0.0-1.0-249.0-0.0","0","0","29448","","null","","","null","27","","","","","","","","","","","","","","","",""
"","time_out","","html-keyboard-response","187","219389","0.0-1.0-251.0-0.0","0","0","29448","","null","","","null","27","","","","","","","","","","","","","","","",""
"","ITI","","html-keyboard-response","188","220399","0.0-1.0-252.0","0","0","29448","","null","","","null","27","","","","","","","","","","","","","","","NaN",""
"","S1","","html-keyboard-response","189","220659","0.0-1.0-254.0","0","0","29448","","null","","","null","28","","","","","","","","","","","","","","","",""
"","ISI","","html-keyboard-response","190","221169","0.0-1.0-255.0","0","0","29448","","null","","","null","28","NaN","","","","","","","","","","","","","","",""
"","S2","","html-keyboard-response","191","221429","0.0-1.0-256.0","0","0","29448","","null","","","null","28","","NaN","","","","","","","","","","","","","",""
"","response","","html-keyboard-response","192","221534","0.0-1.0-257.0-0.0","0","0","29448","","103","","","75","28","","","1","28","training","adjacent","DC","4","3","R.jpg","P.jpg","0","0","1","",""
"","feedback","","html-keyboard-response","193","222539","0.0-1.0-258.0-0.0","0","0","29448","","null","","","null","28","","","","","","","","","","","","","","","",""
"","ITI","","html-keyboard-response","194","223549","0.0-1.0-261.0","0","0","29448","","null","","","null","28","","","","","","","","","","","","","","","NaN",""
"","S1","","html-keyboard-response","195","223809","0.0-1.0-263.0","0","0","29448","","null","","","null","29","","","","","","","","","","","","","","","",""
"","ISI","","html-keyboard-response","196","224318","0.0-1.0-264.0","0","0","29448","","null","","","null","29","NaN","","","","","","","","","","","","","","",""
"","S2","","html-keyboard-response","197","224578","0.0-1.0-265.0","0","0","29448","","null","","","null","29","","NaN","","","","","","","","","","","","","",""
"","response","","html-keyboard-response","198","224911","0.0-1.0-266.0-0.0","0","0","29448","","329","","","68","29","","","1","29","training","adjacent","FG","6","7","O.jpg","M.jpg","1","1","1","",""
"","feedback","","html-keyboard-response","199","225919","0.0-1.0-267.0-0.0","0","0","29448","","null","","","null","29","","","","","","","","","","","","","","","",""
"","ITI","","html-keyboard-response","200","226929","0.0-1.0-270.0","0","0","29448","","null","","","null","29","","","","","","","","","","","","","","","NaN",""
"","S1","","html-keyboard-response","201","227189","0.0-1.0-272.0","0","0","29448","","null","","","null","30","","","","","","","","","","","","","","","",""
"","ISI","","html-keyboard-response","202","227699","0.0-1.0-273.0","0","0","29448","","null","","","null","30","NaN","","","","","","","","","","","","","","",""
"","S2","","html-keyboard-response","203","227959","0.0-1.0-274.0","0","0","29448","","null","","","null","30","","NaN","","","","","","","","","","","","","",""
"","response","","html-keyboard-response","204","228175","0.0-1.0-275.0-0.0","0","0","29448","","213","","","75","30","","","1","30","training","adjacent","GF","7","6","M.jpg","O.jpg","0","0","1","",""
"","feedback","","html-keyboard-response","205","229179","0.0-1.0-276.0-0.0","0","0","29448","","null","","","null","30","","","","","","","","","","","","","","","",""
"","ITI","","html-keyboard-response","206","230189","0.0-1.0-279.0","0","0","29448","","null","","","null","30","","","","","","","","","","","","","","","NaN",""
"","S1","","html-keyboard-response","207","230449","0.0-1.0-281.0","0","0","29448","","null","","","null","31","","","","","","","","","","","","","","","",""
"","ISI","","html-keyboard-response","208","230959","0.0-1.0-282.0","0","0","29448","","null","","","null","31","NaN","","","","","","","","","","","","","","",""
"","S2","","html-keyboard-response","209","231219","0.0-1.0-283.0","0","0","29448","","null","","","null","31","","NaN","","","","","","","","","","","","","",""
"","response","","html-keyboard-response","210","231438","0.0-1.0-284.0-0.0","0","0","29448","","217","","","75","31","","","1","31","training","adjacent","DE","4","5","R.jpg","L.jpg","0","1","0","",""
"","feedback","","html-keyboard-response","211","232449","0.0-1.0-285.0-0.0","0","0","29448","","null","","","null","31","","","","","","","","","","","","","","","",""
"","time_out","","html-keyboard-response","212","234458","0.0-1.0-287.0-0.0","0","0","29448","","null","","","null","31","","","","","","","","","","","","","","","",""
"","ITI","","html-keyboard-response","213","235469","0.0-1.0-288.0","0","0","29448","","null","","","null","31","","","","","","","","","","","","","","","NaN",""
"","S1","","html-keyboard-response","214","235728","0.0-1.0-290.0","0","0","29448","","null","","","null","32","","","","","","","","","","","","","","","",""
"","ISI","","html-keyboard-response","215","236239","0.0-1.0-291.0","0","0","29448","","null","","","null","32","NaN","","","","","","","","","","","","","","",""
"","S2","","html-keyboard-response","216","236499","0.0-1.0-292.0","0","0","29448","","null","","","null","32","","NaN","","","","","","","","","","","","","",""
"","response","","html-keyboard-response","217","236614","0.0-1.0-293.0-0.0","0","0","29448","","112","","","68","32","","","1","32","training","adjacent","AB","1","2","N.jpg","Q.jpg","1","1","1","",""
"","feedback","","html-keyboard-response","218","237619","0.0-1.0-294.0-0.0","0","0","29448","","null","","","null","32","","","","","","","","","","","","","","","",""
"","ITI","","html-keyboard-response","219","238629","0.0-1.0-297.0","0","0","29448","","null","","","null","32","","","","","","","","","","","","","","","NaN",""
"","S1","","html-keyboard-response","220","238889","0.0-1.0-299.0","0","0","29448","","null","","","null","33","","","","","","","","","","","","","","","",""
"","ISI","","html-keyboard-response","221","239399","0.0-1.0-300.0","0","0","29448","","null","","","null","33","NaN","","","","","","","","","","","","","","",""
"","S2","","html-keyboard-response","222","239658","0.0-1.0-301.0","0","0","29448","","null","","","null","33","","NaN","","","","","","","","","","","","","",""
"","response","","html-keyboard-response","223","239990","0.0-1.0-302.0-0.0","0","0","29448","","330","","","68","33","","","1","33","training","adjacent","EF","5","6","L.jpg","O.jpg","1","1","1","",""
"","feedback","","html-keyboard-response","224","240999","0.0-1.0-303.0-0.0","0","0","29448","","null","","","null","33","","","","","","","","","","","","","","","",""
"","ITI","","html-keyboard-response","225","242009","0.0-1.0-306.0","0","0","29448","","null","","","null","33","","","","","","","","","","","","","","","NaN",""
"","S1","","html-keyboard-response","226","242269","0.0-1.0-308.0","0","0","29448","","null","","","null","34","","","","","","","","","","","","","","","",""
"","ISI","","html-keyboard-response","227","242779","0.0-1.0-309.0","0","0","29448","","null","","","null","34","NaN","","","","","","","","","","","","","","",""
"","S2","","html-keyboard-response","228","243039","0.0-1.0-310.0","0","0","29448","","null","","","null","34","","NaN","","","","","","","","","","","","","",""
"","response","","html-keyboard-response","229","243134","0.0-1.0-311.0-0.0","0","0","29448","","93","","","68","34","","","1","34","training","adjacent","AB","1","2","N.jpg","Q.jpg","1","1","1","",""
"","feedback","","html-keyboard-response","230","244139","0.0-1.0-312.0-0.0","0","0","29448","","null","","","null","34","","","","","","","","","","","","","","","",""
"","ITI","","html-keyboard-response","231","245149","0.0-1.0-315.0","0","0","29448","","null","","","null","34","","","","","","","","","","","","","","","NaN",""
"","S1","","html-keyboard-response","232","245409","0.0-1.0-317.0","0","0","29448","","null","","","null","35","","","","","","","","","","","","","","","",""
"","ISI","","html-keyboard-response","233","245919","0.0-1.0-318.0","0","0","29448","","null","","","null","35","NaN","","","","","","","","","","","","","","",""
"","S2","","html-keyboard-response","234","246179","0.0-1.0-319.0","0","0","29448","","null","","","null","35","","NaN","","","","","","","","","","","","","",""
"","response","","html-keyboard-response","235","246510","0.0-1.0-320.0-0.0","0","0","29448","","329","","","75","35","","","1","35","training","adjacent","FE","6","5","O.jpg","L.jpg","0","0","1","",""
"","feedback","","html-keyboard-response","236","247519","0.0-1.0-321.0-0.0","0","0","29448","","null","","","null","35","","","","","","","","","","","","","","","",""
"","ITI","","html-keyboard-response","237","248529","0.0-1.0-324.0","0","0","29448","","null","","","null","35","","","","","","","","","","","","","","","NaN",""
"","S1","","html-keyboard-response","238","248789","0.0-1.0-326.0","0","0","29448","","null","","","null","36","","","","","","","","","","","","","","","",""
"","ISI","","html-keyboard-response","239","249298","0.0-1.0-327.0","0","0","29448","","null","","","null","36","NaN","","","","","","","","","","","","","","",""
"","S2","","html-keyboard-response","240","249559","0.0-1.0-328.0","0","0","29448","","null","","","null","36","","NaN","","","","","","","","","","","","","",""
"","response","","html-keyboard-response","241","249998","0.0-1.0-329.0-0.0","0","0","29448","","437","","","75","36","","","1","36","training","adjacent","FE","6","5","O.jpg","L.jpg","0","0","1","",""
"","feedback","","html-keyboard-response","242","251009","0.0-1.0-330.0-0.0","0","0","29448","","null","","","null","36","","","","","","","","","","","","","","","",""
"","ITI","","html-keyboard-response","243","252019","0.0-1.0-333.0","0","0","29448","","null","","","null","36","","","","","","","","","","","","","","","NaN",""
"","S1","","html-keyboard-response","244","252279","0.0-1.0-335.0","0","0","29448","","null","","","null","37","","","","","","","","","","","","","","","",""
"","ISI","","html-keyboard-response","245","252789","0.0-1.0-336.0","0","0","29448","","null","","","null","37","NaN","","","","","","","","","","","","","","",""
"","S2","","html-keyboard-response","246","253048","0.0-1.0-337.0","0","0","29448","","null","","","null","37","","NaN","","","","","","","","","","","","","",""
"","response","","html-keyboard-response","247","253262","0.0-1.0-338.0-0.0","0","0","29448","","211","","","75","37","","","1","37","training","adjacent","ED","5","4","L.jpg","R.jpg","0","0","1","",""
"","feedback","","html-keyboard-response","248","254269","0.0-1.0-339.0-0.0","0","0","29448","","null","","","null","37","","","","","","","","","","","","","","","",""
"","ITI","","html-keyboard-response","249","255279","0.0-1.0-342.0","0","0","29448","","null","","","null","37","","","","","","","","","","","","","","","NaN",""
"","S1","","html-keyboard-response","250","255538","0.0-1.0-344.0","0","0","29448","","null","","","null","38","","","","","","","","","","","","","","","",""
"","ISI","","html-keyboard-response","251","256048","0.0-1.0-345.0","0","0","29448","","null","","","null","38","NaN","","","","","","","","","","","","","","",""
"","S2","","html-keyboard-response","252","256308","0.0-1.0-346.0","0","0","29448","","null","","","null","38","","NaN","","","","","","","","","","","","","",""
"","response","","html-keyboard-response","253","256638","0.0-1.0-347.0-0.0","0","0","29448","","326","","","75","38","","","1","38","training","adjacent","EF","5","6","L.jpg","O.jpg","0","1","0","",""
"","feedback","","html-keyboard-response","254","257648","0.0-1.0-348.0-0.0","0","0","29448","","null","","","null","38","","","","","","","","","","","","","","","",""
"","time_out","","html-keyboard-response","255","259659","0.0-1.0-350.0-0.0","0","0","29448","","null","","","null","38","","","","","","","","","","","","","","","",""
"","ITI","","html-keyboard-response","256","260668","0.0-1.0-351.0","0","0","29448","","null","","","null","38","","","","","","","","","","","","","","","NaN",""
"","S1","","html-keyboard-response","257","260929","0.0-1.0-353.0","0","0","29448","","null","","","null","39","","","","","","","","","","","","","","","",""
"","ISI","","html-keyboard-response","258","261439","0.0-1.0-354.0","0","0","29448","","null","","","null","39","NaN","","","","","","","","","","","","","","",""
"","S2","","html-keyboard-response","259","261698","0.0-1.0-355.0","0","0","29448","","null","","","null","39","","NaN","","","","","","","","","","","","","",""
"","response","","html-keyboard-response","260","261814","0.0-1.0-356.0-0.0","0","0","29448","","112","","","68","39","","","1","39","training","adjacent","CB","3","2","P.jpg","Q.jpg","1","0","0","",""
"","feedback","","html-keyboard-response","261","262818","0.0-1.0-357.0-0.0","0","0","29448","","null","","","null","39","","","","","","","","","","","","","","","",""
"","time_out","","html-keyboard-response","262","264829","0.0-1.0-359.0-0.0","0","0","29448","","null","","","null","39","","","","","","","","","","","","","","","",""
"","ITI","","html-keyboard-response","263","265839","0.0-1.0-360.0","0","0","29448","","null","","","null","39","","","","","","","","","","","","","","","NaN",""
"","S1","","html-keyboard-response","264","266098","0.0-1.0-362.0","0","0","29448","","null","","","null","40","","","","","","","","","","","","","","","",""
"","ISI","","html-keyboard-response","265","266608","0.0-1.0-363.0","0","0","29448","","null","","","null","40","NaN","","","","","","","","","","","","","","",""
"","S2","","html-keyboard-response","266","266869","0.0-1.0-364.0","0","0","29448","","null","","","null","40","","NaN","","","","","","","","","","","","","",""
"","response","","html-keyboard-response","267","266990","0.0-1.0-365.0-0.0","0","0","29448","","119","","","75","40","","","1","40","training","adjacent","BC","2","3","Q.jpg","P.jpg","0","1","0","",""
"","feedback","","html-keyboard-response","268","267999","0.0-1.0-366.0-0.0","0","0","29448","","null","","","null","40","","","","","","","","","","","","","","","",""
"","time_out","","html-keyboard-response","269","270008","0.0-1.0-368.0-0.0","0","0","29448","","null","","","null","40","","","","","","","","","","","","","","","",""
"","ITI","","html-keyboard-response","270","271018","0.0-1.0-369.0","0","0","29448","","null","","","null","40","","","","","","","","","","","","","","","NaN",""
"","S1","","html-keyboard-response","271","271278","0.0-1.0-371.0","0","0","29448","","null","","","null","41","","","","","","","","","","","","","","","",""
"","ISI","","html-keyboard-response","272","271788","0.0-1.0-372.0","0","0","29448","","null","","","null","41","NaN","","","","","","","","","","","","","","",""
"","S2","","html-keyboard-response","273","272048","0.0-1.0-373.0","0","0","29448","","null","","","null","41","","NaN","","","","","","","","","","","","","",""
"","response","","html-keyboard-response","274","272278","0.0-1.0-374.0-0.0","0","0","29448","","227","","","75","41","","","1","41","training","adjacent","BC","2","3","Q.jpg","P.jpg","0","1","0","",""
"","feedback","","html-keyboard-response","275","273288","0.0-1.0-375.0-0.0","0","0","29448","","null","","","null","41","","","","","","","","","","","","","","","",""
"","time_out","","html-keyboard-response","276","275298","0.0-1.0-377.0-0.0","0","0","29448","","null","","","null","41","","","","","","","","","","","","","","","",""
"","ITI","","html-keyboard-response","277","276308","0.0-1.0-378.0","0","0","29448","","null","","","null","41","","","","","","","","","","","","","","","NaN",""
"","S1","","html-keyboard-response","278","276569","0.0-1.0-380.0","0","0","29448","","null","","","null","42","","","","","","","","","","","","","","","",""
"","ISI","","html-keyboard-response","279","277078","0.0-1.0-381.0","0","0","29448","","null","","","null","42","NaN","","","","","","","","","","","","","","",""
"","S2","","html-keyboard-response","280","277338","0.0-1.0-382.0","0","0","29448","","null","","","null","42","","NaN","","","","","","","","","","","","","",""
"","response","","html-keyboard-response","281","277678","0.0-1.0-383.0-0.0","0","0","29448","","337","","","75","42","","","1","42","training","adjacent","DC","4","3","R.jpg","P.jpg","0","0","1","",""
"","feedback","","html-keyboard-response","282","278688","0.0-1.0-384.0-0.0","0","0","29448","","null","","","null","42","","","","","","","","","","","","","","","",""
"","ITI","","html-keyboard-response","283","279698","0.0-1.0-387.0","0","0","29448","","null","","","null","42","","","","","","","","","","","","","","","NaN",""
"","S1","","html-keyboard-response","284","279958","0.0-1.0-389.0","0","0","29448","","null","","","null","43","","","","","","","","","","","","","","","",""
"","ISI","","html-keyboard-response","285","280468","0.0-1.0-390.0","0","0","29448","","null","","","null","43","NaN","","","","","","","","","","","","","","",""
"","S2","","html-keyboard-response","286","280728","0.0-1.0-391.0","0","0","29448","","null","","","null","43","","NaN","","","","","","","","","","","","","",""
"","response","","html-keyboard-response","287","281045","0.0-1.0-392.0-0.0","0","0","29448","","315","","","68","43","","","1","43","training","adjacent","CB","3","2","P.jpg","Q.jpg","1","0","0","",""
"","feedback","","html-keyboard-response","288","282058","0.0-1.0-393.0-0.0","0","0","29448","","null","","","null","43","","","","","","","","","","","","","","","",""
"","time_out","","html-keyboard-response","289","284068","0.0-1.0-395.0-0.0","0","0","29448","","null","","","null","43","","","","","","","","","","","","","","","",""
"","ITI","","html-keyboard-response","290","285078","0.0-1.0-396.0","0","0","29448","","null","","","null","43","","","","","","","","","","","","","","","NaN",""
"","S1","","html-keyboard-response","291","285338","0.0-1.0-398.0","0","0","29448","","null","","","null","44","","","","","","","","","","","","","","","",""
"","ISI","","html-keyboard-response","292","285848","0.0-1.0-399.0","0","0","29448","","null","","","null","44","NaN","","","","","","","","","","","","","","",""
"","S2","","html-keyboard-response","293","286108","0.0-1.0-400.0","0","0","29448","","null","","","null","44","","NaN","","","","","","","","","","","","","",""
"","response","","html-keyboard-response","294","286558","0.0-1.0-401.0-0.0","0","0","29448","","446","","","75","44","","","1","44","training","adjacent","FG","6","7","O.jpg","M.jpg","0","1","0","",""
"","feedback","","html-keyboard-response","295","287568","0.0-1.0-402.0-0.0","0","0","29448","","null","","","null","44","","","","","","","","","","","","","","","",""
"","time_out","","html-keyboard-response","296","289578","0.0-1.0-404.0-0.0","0","0","29448","","null","","","null","44","","","","","","","","","","","","","","","",""
"","ITI","","html-keyboard-response","297","290588","0.0-1.0-405.0","0","0","29448","","null","","","null","44","","","","","","","","","","","","","","","NaN",""
"","S1","","html-keyboard-response","298","290848","0.0-1.0-407.0","0","0","29448","","null","","","null","45","","","","","","","","","","","","","","","",""
"","ISI","","html-keyboard-response","299","291358","0.0-1.0-408.0","0","0","29448","","null","","","null","45","NaN","","","","","","","","","","","","","","",""
"","S2","","html-keyboard-response","300","291618","0.0-1.0-409.0","0","0","29448","","null","","","null","45","","NaN","","","","","","","","","","","","","",""
"","response","","html-keyboard-response","301","291733","0.0-1.0-410.0-0.0","0","0","29448","","112","","","68","45","","","1","45","training","adjacent","EF","5","6","L.jpg","O.jpg","1","1","1","",""
"","feedback","","html-keyboard-response","302","292738","0.0-1.0-411.0-0.0","0","0","29448","","null","","","null","45","","","","","","","","","","","","","","","",""
"","ITI","","html-keyboard-response","303","293748","0.0-1.0-414.0","0","0","29448","","null","","","null","45","","","","","","","","","","","","","","","NaN",""
"","S1","","html-keyboard-response","304","294007","0.0-1.0-416.0","0","0","29448","","null","","","null","46","","","","","","","","","","","","","","","",""
"","ISI","","html-keyboard-response","305","294518","0.0-1.0-417.0","0","0","29448","","null","","","null","46","NaN","","","","","","","","","","","","","","",""
"","S2","","html-keyboard-response","306","294778","0.0-1.0-418.0","0","0","29448","","null","","","null","46","","NaN","","","","","","","","","","","","","",""
"","response","","html-keyboard-response","307","294885","0.0-1.0-419.0-0.0","0","0","29448","","103","","","75","46","","","1","46","training","adjacent","DC","4","3","R.jpg","P.jpg","0","0","1","",""
"","feedback","","html-keyboard-response","308","295898","0.0-1.0-420.0-0.0","0","0","29448","","null","","","null","46","","","","","","","","","","","","","","","",""
"","ITI","","html-keyboard-response","309","296908","0.0-1.0-423.0","0","0","29448","","null","","","null","46","","","","","","","","","","","","","","","NaN",""
"","S1","","html-keyboard-response","310","297168","0.0-1.0-425.0","0","0","29448","","null","","","null","47","","","","","","","","","","","","","","","",""
"","ISI","","html-keyboard-response","311","297677","0.0-1.0-426.0","0","0","29448","","null","","","null","47","NaN","","","","","","","","","","","","","","",""
"","S2","","html-keyboard-response","312","297938","0.0-1.0-427.0","0","0","29448","","null","","","null","47","","NaN","","","","","","","","","","","","","",""
"","response","","html-keyboard-response","313","298261","0.0-1.0-428.0-0.0","0","0","29448","","321","","","75","47","","","1","47","training","adjacent","FE","6","5","O.jpg","L.jpg","0","0","1","",""
"","feedback","","html-keyboard-response","314","299268","0.0-1.0-429.0-0.0","0","0","29448","","null","","","null","47","","","","","","","","","","","","","","","",""
"","ITI","","html-keyboard-response","315","300277","0.0-1.0-432.0","0","0","29448","","null","","","null","47","","","","","","","","","","","","","","","NaN",""
"","block_over","","html-keyboard-response","316","313789","0.0-1.0-433.0-0.0","0","0","29448","","13507","","","32","47","","","","","","","","","","","","","","","",""
"","S1","","html-keyboard-response","317","314047","0.0-1.0-434.0","0","0","29448","","null","","","null","48","","","","","","","","","","","","","","","",""
"","ISI","","html-keyboard-response","318","314558","0.0-1.0-435.0","0","0","29448","","null","","","null","48","NaN","","","","","","","","","","","","","","",""
"","S2","","html-keyboard-response","319","314818","0.0-1.0-436.0","0","0","29448","","null","","","null","48","","NaN","","","","","","","","","","","","","",""
"","response","","html-keyboard-response","320","315181","0.0-1.0-437.0-0.0","0","0","29448","","360","","","75","48","","","2","48","training","adjacent","FE","6","5","O.jpg","L.jpg","0","0","1","",""
"","feedback","","html-keyboard-response","321","316188","0.0-1.0-438.0-0.0","0","0","29448","","null","","","null","48","","","","","","","","","","","","","","","",""
"","ITI","","html-keyboard-response","322","317198","0.0-1.0-441.0","0","0","29448","","null","","","null","48","","","","","","","","","","","","","","","NaN",""
"","S1","","html-keyboard-response","323","317457","0.0-1.0-443.0","0","0","29448","","null","","","null","49","","","","","","","","","","","","","","","",""
"","ISI","","html-keyboard-response","324","317968","0.0-1.0-444.0","0","0","29448","","null","","","null","49","NaN","","","","","","","","","","","","","","",""
"","S2","","html-keyboard-response","325","318227","0.0-1.0-445.0","0","0","29448","","null","","","null","49","","NaN","","","","","","","","","","","","","",""
"","response","","html-keyboard-response","326","318510","0.0-1.0-446.0-0.0","0","0","29448","","279","","","68","49","","","2","49","training","adjacent","ED","5","4","L.jpg","R.jpg","1","0","0","",""
"","feedback","","html-keyboard-response","327","319518","0.0-1.0-447.0-0.0","0","0","29448","","null","","","null","49","","","","","","","","","","","","","","","",""
"","time_out","","html-keyboard-response","328","321527","0.0-1.0-449.0-0.0","0","0","29448","","null","","","null","49","","","","","","","","","","","","","","","",""
"","ITI","","html-keyboard-response","329","322537","0.0-1.0-450.0","0","0","29448","","null","","","null","49","","","","","","","","","","","","","","","NaN",""
"","S1","","html-keyboard-response","330","322797","0.0-1.0-452.0","0","0","29448","","null","","","null","50","","","","","","","","","","","","","","","",""
"","ISI","","html-keyboard-response","331","323308","0.0-1.0-453.0","0","0","29448","","null","","","null","50","NaN","","","","","","","","","","","","","","",""
"","S2","","html-keyboard-response","332","323567","0.0-1.0-454.0","0","0","29448","","null","","","null","50","","NaN","","","","","","","","","","","","","",""
"","response","","html-keyboard-response","333","323909","0.0-1.0-455.0-0.0","0","0","29448","","338","","","75","50","","","2","50","training","adjacent","ED","5","4","L.jpg","R.jpg","0","0","1","",""
"","feedback","","html-keyboard-response","334","324917","0.0-1.0-456.0-0.0","0","0","29448","","null","","","null","50","","","","","","","","","","","","","","","",""
"","ITI","","html-keyboard-response","335","325927","0.0-1.0-459.0","0","0","29448","","null","","","null","50","","","","","","","","","","","","","","","NaN",""
"","S1","","html-keyboard-response","336","326187","0.0-1.0-461.0","0","0","29448","","null","","","null","51","","","","","","","","","","","","","","","",""
"","ISI","","html-keyboard-response","337","326698","0.0-1.0-462.0","0","0","29448","","null","","","null","51","NaN","","","","","","","","","","","","","","",""
"","S2","","html-keyboard-response","338","326957","0.0-1.0-463.0","0","0","29448","","null","","","null","51","","NaN","","","","","","","","","","","","","",""
"","response","","html-keyboard-response","339","327285","0.0-1.0-464.0-0.0","0","0","29448","","326","","","68","51","","","2","51","training","adjacent","DC","4","3","R.jpg","P.jpg","1","0","0","",""
"","feedback","","html-keyboard-response","340","328298","0.0-1.0-465.0-0.0","0","0","29448","","null","","","null","51","","","","","","","","","","","","","","","",""
"","time_out","","html-keyboard-response","341","330308","0.0-1.0-467.0-0.0","0","0","29448","","null","","","null","51","","","","","","","","","","","","","","","",""
"","ITI","","html-keyboard-response","342","331317","0.0-1.0-468.0","0","0","29448","","null","","","null","51","","","","","","","","","","","","","","","NaN",""
"","S1","","html-keyboard-response","343","331577","0.0-1.0-470.0","0","0","29448","","null","","","null","52","","","","","","","","","","","","","","","",""
"","ISI","","html-keyboard-response","344","332087","0.0-1.0-471.0","0","0","29448","","null","","","null","52","NaN","","","","","","","","","","","","","","",""
"","S2","","html-keyboard-response","345","332347","0.0-1.0-472.0","0","0","29448","","null","","","null","52","","NaN","","","","","","","","","","","","","",""
"","response","","html-keyboard-response","346","332684","0.0-1.0-473.0-0.0","0","0","29448","","334","","","75","52","","","2","52","training","adjacent","DE","4","5","R.jpg","L.jpg","0","1","0","",""
"","feedback","","html-keyboard-response","347","333697","0.0-1.0-474.0-0.0","0","0","29448","","null","","","null","52","","","","","","","","","","","","","","","",""
"","time_out","","html-keyboard-response","348","335708","0.0-1.0-476.0-0.0","0","0","29448","","null","","","null","52","","","","","","","","","","","","","","","",""
"","ITI","","html-keyboard-response","349","336717","0.0-1.0-477.0","0","0","29448","","null","","","null","52","","","","","","","","","","","","","","","NaN",""
"","S1","","html-keyboard-response","350","336977","0.0-1.0-479.0","0","0","29448","","null","","","null","53","","","","","","","","","","","","","","","",""
"","ISI","","html-keyboard-response","351","337487","0.0-1.0-480.0","0","0","29448","","null","","","null","53","NaN","","","","","","","","","","","","","","",""
"","S2","","html-keyboard-response","352","337747","0.0-1.0-481.0","0","0","29448","","null","","","null","53","","NaN","","","","","","","","","","","","","",""
"","response","","html-keyboard-response","353","338085","0.0-1.0-482.0-0.0","0","0","29448","","334","","","68","53","","","2","53","training","adjacent","CB","3","2","P.jpg","Q.jpg","1","0","0","",""
"","feedback","","html-keyboard-response","354","339097","0.0-1.0-483.0-0.0","0","0","29448","","null","","","null","53","","","","","","","","","","","","","","","",""
"","time_out","","html-keyboard-response","355","341107","0.0-1.0-485.0-0.0","0","0","29448","","null","","","null","53","","","","","","","","","","","","","","","",""
"","ITI","","html-keyboard-response","356","342117","0.0-1.0-486.0","0","0","29448","","null","","","null","53","","","","","","","","","","","","","","","NaN",""
"","S1","","html-keyboard-response","357","342377","0.0-1.0-488.0","0","0","29448","","null","","","null","54","","","","","","","","","","","","","","","",""
"","ISI","","html-keyboard-response","358","342886","0.0-1.0-489.0","0","0","29448","","null","","","null","54","NaN","","","","","","","","","","","","","","",""
"","S2","","html-keyboard-response","359","343146","0.0-1.0-490.0","0","0","29448","","null","","","null","54","","NaN","","","","","","","","","","","","","",""
"","response","","html-keyboard-response","360","343485","0.0-1.0-491.0-0.0","0","0","29448","","334","","","75","54","","","2","54","training","adjacent","GF","7","6","M.jpg","O.jpg","0","0","1","",""
"","feedback","","html-keyboard-response","361","344497","0.0-1.0-492.0-0.0","0","0","29448","","null","","","null","54","","","","","","","","","","","","","","","",""
"","ITI","","html-keyboard-response","362","345507","0.0-1.0-495.0","0","0","29448","","null","","","null","54","","","","","","","","","","","","","","","NaN",""
"","S1","","html-keyboard-response","363","345767","0.0-1.0-497.0","0","0","29448","","null","","","null","55","","","","","","","","","","","","","","","",""
"","ISI","","html-keyboard-response","364","346277","0.0-1.0-498.0","0","0","29448","","null","","","null","55","NaN","","","","","","","","","","","","","","",""
"","S2","","html-keyboard-response","365","346537","0.0-1.0-499.0","0","0","29448","","null","","","null","55","","NaN","","","","","","","","","","","","","",""
"","response","","html-keyboard-response","366","346860","0.0-1.0-500.0-0.0","0","0","29448","","321","","","75","55","","","2","55","training","adjacent","FG","6","7","O.jpg","M.jpg","0","1","0","",""
"","feedback","","html-keyboard-response","367","347867","0.0-1.0-501.0-0.0","0","0","29448","","null","","","null","55","","","","","","","","","","","","","","","",""
"","time_out","","html-keyboard-response","368","349877","0.0-1.0-503.0-0.0","0","0","29448","","null","","","null","55","","","","","","","","","","","","","","","",""
"","ITI","","html-keyboard-response","369","350887","0.0-1.0-504.0","0","0","29448","","null","","","null","55","","","","","","","","","","","","","","","NaN",""
"","S1","","html-keyboard-response","370","351147","0.0-1.0-506.0","0","0","29448","","null","","","null","56","","","","","","","","","","","","","","","",""
"","ISI","","html-keyboard-response","371","351657","0.0-1.0-507.0","0","0","29448","","null","","","null","56","NaN","","","","","","","","","","","","","","",""
"","S2","","html-keyboard-response","372","351917","0.0-1.0-508.0","0","0","29448","","null","","","null","56","","NaN","","","","","","","","","","","","","",""
"","response","","html-keyboard-response","373","352261","0.0-1.0-509.0-0.0","0","0","29448","","341","","","75","56","","","2","56","training","adjacent","FG","6","7","O.jpg","M.jpg","0","1","0","",""
"","feedback","","html-keyboard-response","374","353267","0.0-1.0-510.0-0.0","0","0","29448","","null","","","null","56","","","","","","","","","","","","","","","",""
"","time_out","","html-keyboard-response","375","355277","0.0-1.0-512.0-0.0","0","0","29448","","null","","","null","56","","","","","","","","","","","","","","","",""
"","ITI","","html-keyboard-response","376","356287","0.0-1.0-513.0","0","0","29448","","null","","","null","56","","","","","","","","","","","","","","","NaN",""
"","S1","","html-keyboard-response","377","356546","0.0-1.0-515.0","0","0","29448","","null","","","null","57","","","","","","","","","","","","","","","",""
"","ISI","","html-keyboard-response","378","357057","0.0-1.0-516.0","0","0","29448","","null","","","null","57","NaN","","","","","","","","","","","","","","",""
"","S2","","html-keyboard-response","379","357317","0.0-1.0-517.0","0","0","29448","","null","","","null","57","","NaN","","","","","","","","","","","","","",""
"","response","","html-keyboard-response","380","357548","0.0-1.0-518.0-0.0","0","0","29448","","229","","","75","57","","","2","57","training","adjacent","GF","7","6","M.jpg","O.jpg","0","0","1","",""
"","feedback","","html-keyboard-response","381","358557","0.0-1.0-519.0-0.0","0","0","29448","","null","","","null","57","","","","","","","","","","","","","","","",""
"","ITI","","html-keyboard-response","382","359567","0.0-1.0-522.0","0","0","29448","","null","","","null","57","","","","","","","","","","","","","","","NaN",""
"","S1","","html-keyboard-response","383","359827","0.0-1.0-524.0","0","0","29448","","null","","","null","58","","","","","","","","","","","","","","","",""
"","ISI","","html-keyboard-response","384","360337","0.0-1.0-525.0","0","0","29448","","null","","","null","58","NaN","","","","","","","","","","","","","","",""
"","S2","","html-keyboard-response","385","360596","0.0-1.0-526.0","0","0","29448","","null","","","null","58","","NaN","","","","","","","","","","","","","",""
"","response","","html-keyboard-response","386","360700","0.0-1.0-527.0-0.0","0","0","29448","","100","","","68","58","","","2","58","training","adjacent","CB","3","2","P.jpg","Q.jpg","1","0","0","",""
"","feedback","","html-keyboard-response","387","361707","0.0-1.0-528.0-0.0","0","0","29448","","null","","","null","58","","","","","","","","","","","","","","","",""
"","time_out","","html-keyboard-response","388","363717","0.0-1.0-530.0-0.0","0","0","29448","","null","","","null","58","","","","","","","","","","","","","","","",""
"","ITI","","html-keyboard-response","389","364727","0.0-1.0-531.0","0","0","29448","","null","","","null","58","","","","","","","","","","","","","","","NaN",""
"","S1","","html-keyboard-response","390","364987","0.0-1.0-533.0","0","0","29448","","null","","","null","59","","","","","","","","","","","","","","","",""
"","ISI","","html-keyboard-response","391","365496","0.0-1.0-534.0","0","0","29448","","null","","","null","59","NaN","","","","","","","","","","","","","","",""
"","S2","","html-keyboard-response","392","365756","0.0-1.0-535.0","0","0","29448","","null","","","null","59","","NaN","","","","","","","","","","","","","",""
"","response","","html-keyboard-response","393","366212","0.0-1.0-536.0-0.0","0","0","29448","","453","","","75","59","","","2","59","training","adjacent","CB","3","2","P.jpg","Q.jpg","0","0","1","",""
"","feedback","","html-keyboard-response","394","367216","0.0-1.0-537.0-0.0","0","0","29448","","null","","","null","59","","","","","","","","","","","","","","","",""
"","ITI","","html-keyboard-response","395","368227","0.0-1.0-540.0","0","0","29448","","null","","","null","59","","","","","","","","","","","","","","","NaN",""
"","S1","","html-keyboard-response","396","368486","0.0-1.0-542.0","0","0","29448","","null","","","null","60","","","","","","","","","","","","","","","",""
"","ISI","","html-keyboard-response","397","368997","0.0-1.0-543.0","0","0","29448","","null","","","null","60","NaN","","","","","","","","","","","","","","",""
"","S2","","html-keyboard-response","398","369257","0.0-1.0-544.0","0","0","29448","","null","","","null","60","","NaN","","","","","","","","","","","","","",""
"","response","","html-keyboard-response","399","369468","0.0-1.0-545.0-0.0","0","0","29448","","208","","","68","60","","","2","60","training","adjacent","DE","4","5","R.jpg","L.jpg","1","1","1","",""
"","feedback","","html-keyboard-response","400","370476","0.0-1.0-546.0-0.0","0","0","29448","","null","","","null","60","","","","","","","","","","","","","","","",""
"","ITI","","html-keyboard-response","401","371487","0.0-1.0-549.0","0","0","29448","","null","","","null","60","","","","","","","","","","","","","","","NaN",""
"","S1","","html-keyboard-response","402","371747","0.0-1.0-551.0","0","0","29448","","null","","","null","61","","","","","","","","","","","","","","","",""
"","ISI","","html-keyboard-response","403","372256","0.0-1.0-552.0","0","0","29448","","null","","","null","61","NaN","","","","","","","","","","","","","","",""
"","S2","","html-keyboard-response","404","372517","0.0-1.0-553.0","0","0","29448","","null","","","null","61","","NaN","","","","","","","","","","","","","",""
"","response","","html-keyboard-response","405","372844","0.0-1.0-554.0-0.0","0","0","29448","","324","","","68","61","","","2","61","training","adjacent","FE","6","5","O.jpg","L.jpg","1","0","0","",""
"","feedback","","html-keyboard-response","406","373857","0.0-1.0-555.0-0.0","0","0","29448","","null","","","null","61","","","","","","","","","","","","","","","",""
"","time_out","","html-keyboard-response","407","375866","0.0-1.0-557.0-0.0","0","0","29448","","null","","","null","61","","","","","","","","","","","","","","","",""
"","ITI","","html-keyboard-response","408","376877","0.0-1.0-558.0","0","0","29448","","null","","","null","61","","","","","","","","","","","","","","","NaN",""
"","S1","","html-keyboard-response","409","377137","0.0-1.0-560.0","0","0","29448","","null","","","null","62","","","","","","","","","","","","","","","",""
"","ISI","","html-keyboard-response","410","377646","0.0-1.0-561.0","0","0","29448","","null","","","null","62","NaN","","","","","","","","","","","","","","",""
"","S2","","html-keyboard-response","411","377906","0.0-1.0-562.0","0","0","29448","","null","","","null","62","","NaN","","","","","","","","","","","","","",""
"","response","","html-keyboard-response","412","378133","0.0-1.0-563.0-0.0","0","0","29448","","222","","","75","62","","","2","62","training","adjacent","BC","2","3","Q.jpg","P.jpg","0","1","0","",""
"","feedback","","html-keyboard-response","413","379136","0.0-1.0-564.0-0.0","0","0","29448","","null","","","null","62","","","","","","","","","","","","","","","",""
"","time_out","","html-keyboard-response","414","381147","0.0-1.0-566.0-0.0","0","0","29448","","null","","","null","62","","","","","","","","","","","","","","","",""
"","ITI","","html-keyboard-response","415","382157","0.0-1.0-567.0","0","0","29448","","null","","","null","62","","","","","","","","","","","","","","","NaN",""
"","S1","","html-keyboard-response","416","382417","0.0-1.0-569.0","0","0","29448","","null","","","null","63","","","","","","","","","","","","","","","",""
"","ISI","","html-keyboard-response","417","382926","0.0-1.0-570.0","0","0","29448","","null","","","null","63","NaN","","","","","","","","","","","","","","",""
"","S2","","html-keyboard-response","418","383186","0.0-1.0-571.0","0","0","29448","","null","","","null","63","","NaN","","","","","","","","","","","","","",""
"","response","","html-keyboard-response","419","383308","0.0-1.0-572.0-0.0","0","0","29448","","118","","","68","63","","","2","63","training","adjacent","AB","1","2","N.jpg","Q.jpg","1","1","1","",""
"","feedback","","html-keyboard-response","420","384316","0.0-1.0-573.0-0.0","0","0","29448","","null","","","null","63","","","","","","","","","","","","","","","",""
"","ITI","","html-keyboard-response","421","385327","0.0-1.0-576.0","0","0","29448","","null","","","null","63","","","","","","","","","","","","","","","NaN",""
"","S1","","html-keyboard-response","422","385587","0.0-1.0-578.0","0","0","29448","","null","","","null","64","","","","","","","","","","","","","","","",""
"","ISI","","html-keyboard-response","423","386096","0.0-1.0-579.0","0","0","29448","","null","","","null","64","NaN","","","","","","","","","","","","","","",""
"","S2","","html-keyboard-response","424","386357","0.0-1.0-580.0","0","0","29448","","null","","","null","64","","NaN","","","","","","","","","","","","","",""
"","response","","html-keyboard-response","425","386684","0.0-1.0-581.0-0.0","0","0","29448","","325","","","68","64","","","2","64","training","adjacent","CD","3","4","P.jpg","R.jpg","1","1","1","",""
"","feedback","","html-keyboard-response","426","387696","0.0-1.0-582.0-0.0","0","0","29448","","null","","","null","64","","","","","","","","","","","","","","","",""
"","ITI","","html-keyboard-response","427","388707","0.0-1.0-585.0","0","0","29448","","null","","","null","64","","","","","","","","","","","","","","","NaN",""
"","S1","","html-keyboard-response","428","388966","0.0-1.0-587.0","0","0","29448","","null","","","null","65","","","","","","","","","","","","","","","",""
"","ISI","","html-keyboard-response","429","389477","0.0-1.0-588.0","0","0","29448","","null","","","null","65","NaN","","","","","","","","","","","","","","",""
"","S2","","html-keyboard-response","430","389736","0.0-1.0-589.0","0","0","29448","","null","","","null","65","","NaN","","","","","","","","","","","","","",""
"","response","","html-keyboard-response","431","390284","0.0-1.0-590.0-0.0","0","0","29448","","544","","","68","65","","","2","65","training","adjacent","FG","6","7","O.jpg","M.jpg","1","1","1","",""
"","feedback","","html-keyboard-response","432","391296","0.0-1.0-591.0-0.0","0","0","29448","","null","","","null","65","","","","","","","","","","","","","","","",""
"","ITI","","html-keyboard-response","433","392306","0.0-1.0-594.0","0","0","29448","","null","","","null","65","","","","","","","","","","","","","","","NaN",""
"","S1","","html-keyboard-response","434","392566","0.0-1.0-596.0","0","0","29448","","null","","","null","66","","","","","","","","","","","","","","","",""
"","ISI","","html-keyboard-response","435","393076","0.0-1.0-597.0","0","0","29448","","null","","","null","66","NaN","","","","","","","","","","","","","","",""
"","S2","","html-keyboard-response","436","393336","0.0-1.0-598.0","0","0","29448","","null","","","null","66","","NaN","","","","","","","","","","","","","",""
"","response","","html-keyboard-response","437","393772","0.0-1.0-599.0-0.0","0","0","29448","","433","","","68","66","","","2","66","training","adjacent","ED","5","4","L.jpg","R.jpg","1","0","0","",""
"","feedback","","html-keyboard-response","438","394776","0.0-1.0-600.0-0.0","0","0","29448","","null","","","null","66","","","","","","","","","","","","","","","",""
"","time_out","","html-keyboard-response","439","396786","0.0-1.0-602.0-0.0","0","0","29448","","null","","","null","66","","","","","","","","","","","","","","","",""
"","ITI","","html-keyboard-response","440","397796","0.0-1.0-603.0","0","0","29448","","null","","","null","66","","","","","","","","","","","","","","","NaN",""
"","S1","","html-keyboard-response","441","398056","0.0-1.0-605.0","0","0","29448","","null","","","null","67","","","","","","","","","","","","","","","",""
"","ISI","","html-keyboard-response","442","398566","0.0-1.0-606.0","0","0","29448","","null","","","null","67","NaN","","","","","","","","","","","","","","",""
"","S2","","html-keyboard-response","443","398826","0.0-1.0-607.0","0","0","29448","","null","","","null","67","","NaN","","","","","","","","","","","","","",""
"","response","","html-keyboard-response","444","399172","0.0-1.0-608.0-0.0","0","0","29448","","343","","","68","67","","","2","67","training","adjacent","EF","5","6","L.jpg","O.jpg","1","1","1","",""
"","feedback","","html-keyboard-response","445","400176","0.0-1.0-609.0-0.0","0","0","29448","","null","","","null","67","","","","","","","","","","","","","","","",""
"","ITI","","html-keyboard-response","446","401187","0.0-1.0-612.0","0","0","29448","","null","","","null","67","","","","","","","","","","","","","","","NaN",""
"","S1","","html-keyboard-response","447","401446","0.0-1.0-614.0","0","0","29448","","null","","","null","68","","","","","","","","","","","","","","","",""
"","ISI","","html-keyboard-response","448","401955","0.0-1.0-615.0","0","0","29448","","null","","","null","68","NaN","","","","","","","","","","","","","","",""
"","S2","","html-keyboard-response","449","402216","0.0-1.0-616.0","0","0","29448","","null","","","null","68","","NaN","","","","","","","","","","","","","",""
"","response","","html-keyboard-response","450","402435","0.0-1.0-617.0-0.0","0","0","29448","","216","","","75","68","","","2","68","training","adjacent","DC","4","3","R.jpg","P.jpg","0","0","1","",""
"","feedback","","html-keyboard-response","451","403446","0.0-1.0-618.0-0.0","0","0","29448","","null","","","null","68","","","","","","","","","","","","","","","",""
"","ITI","","html-keyboard-response","452","404456","0.0-1.0-621.0","0","0","29448","","null","","","null","68","","","","","","","","","","","","","","","NaN",""
"","S1","","html-keyboard-response","453","404716","0.0-1.0-623.0","0","0","29448","","null","","","null","69","","","","","","","","","","","","","","","",""
"","ISI","","html-keyboard-response","454","405226","0.0-1.0-624.0","0","0","29448","","null","","","null","69","NaN","","","","","","","","","","","","","","",""
"","S2","","html-keyboard-response","455","405486","0.0-1.0-625.0","0","0","29448","","null","","","null","69","","NaN","","","","","","","","","","","","","",""
"","response","","html-keyboard-response","456","405579","0.0-1.0-626.0-0.0","0","0","29448","","91","","","68","69","","","2","69","training","adjacent","GF","7","6","M.jpg","O.jpg","1","0","0","",""
"","feedback","","html-keyboard-response","457","406586","0.0-1.0-627.0-0.0","0","0","29448","","null","","","null","69","","","","","","","","","","","","","","","",""
"","time_out","","html-keyboard-response","458","408596","0.0-1.0-629.0-0.0","0","0","29448","","null","","","null","69","","","","","","","","","","","","","","","",""
"","ITI","","html-keyboard-response","459","409606","0.0-1.0-630.0","0","0","29448","","null","","","null","69","","","","","","","","","","","","","","","NaN",""
"","S1","","html-keyboard-response","460","409866","0.0-1.0-632.0","0","0","29448","","null","","","null","70","","","","","","","","","","","","","","","",""
"","ISI","","html-keyboard-response","461","410376","0.0-1.0-633.0","0","0","29448","","null","","","null","70","NaN","","","","","","","","","","","","","","",""
"","S2","","html-keyboard-response","462","410636","0.0-1.0-634.0","0","0","29448","","null","","","null","70","","NaN","","","","","","","","","","","","","",""
"","response","","html-keyboard-response","463","410980","0.0-1.0-635.0-0.0","0","0","29448","","340","","","75","70","","","2","70","training","adjacent","DE","4","5","R.jpg","L.jpg","0","1","0","",""
"","feedback","","html-keyboard-response","464","411986","0.0-1.0-636.0-0.0","0","0","29448","","null","","","null","70","","","","","","","","","","","","","","","",""
"","time_out","","html-keyboard-response","465","413996","0.0-1.0-638.0-0.0","0","0","29448","","null","","","null","70","","","","","","","","","","","","","","","",""
"","ITI","","html-keyboard-response","466","415006","0.0-1.0-639.0","0","0","29448","","null","","","null","70","","","","","","","","","","","","","","","NaN",""
"","S1","","html-keyboard-response","467","415266","0.0-1.0-641.0","0","0","29448","","null","","","null","71","","","","","","","","","","","","","","","",""
"","ISI","","html-keyboard-response","468","415776","0.0-1.0-642.0","0","0","29448","","null","","","null","71","NaN","","","","","","","","","","","","","","",""
"","S2","","html-keyboard-response","469","416036","0.0-1.0-643.0","0","0","29448","","null","","","null","71","","NaN","","","","","","","","","","","","","",""
"","response","","html-keyboard-response","470","416267","0.0-1.0-644.0-0.0","0","0","29448","","228","","","68","71","","","2","71","training","adjacent","FE","6","5","O.jpg","L.jpg","1","0","0","",""
"","feedback","","html-keyboard-response","471","417276","0.0-1.0-645.0-0.0","0","0","29448","","null","","","null","71","","","","","","","","","","","","","","","",""
"","time_out","","html-keyboard-response","472","419286","0.0-1.0-647.0-0.0","0","0","29448","","null","","","null","71","","","","","","","","","","","","","","","",""
"","ITI","","html-keyboard-response","473","420295","0.0-1.0-648.0","0","0","29448","","null","","","null","71","","","","","","","","","","","","","","","NaN",""
"","S1","","html-keyboard-response","474","420556","0.0-1.0-650.0","0","0","29448","","null","","","null","72","","","","","","","","","","","","","","","",""
"","ISI","","html-keyboard-response","475","421065","0.0-1.0-651.0","0","0","29448","","null","","","null","72","NaN","","","","","","","","","","","","","","",""
"","S2","","html-keyboard-response","476","421326","0.0-1.0-652.0","0","0","29448","","null","","","null","72","","NaN","","","","","","","","","","","","","",""
"","response","","html-keyboard-response","477","421443","0.0-1.0-653.0-0.0","0","0","29448","","114","","","75","72","","","2","72","training","adjacent","BC","2","3","Q.jpg","P.jpg","0","1","0","",""
"","feedback","","html-keyboard-response","478","422456","0.0-1.0-654.0-0.0","0","0","29448","","null","","","null","72","","","","","","","","","","","","","","","",""
"","time_out","","html-keyboard-response","479","424466","0.0-1.0-656.0-0.0","0","0","29448","","null","","","null","72","","","","","","","","","","","","","","","",""
"","ITI","","html-keyboard-response","480","425476","0.0-1.0-657.0","0","0","29448","","null","","","null","72","","","","","","","","","","","","","","","NaN",""
"","S1","","html-keyboard-response","481","425736","0.0-1.0-659.0","0","0","29448","","null","","","null","73","","","","","","","","","","","","","","","",""
"","ISI","","html-keyboard-response","482","426245","0.0-1.0-660.0","0","0","29448","","null","","","null","73","NaN","","","","","","","","","","","","","","",""
"","S2","","html-keyboard-response","483","426506","0.0-1.0-661.0","0","0","29448","","null","","","null","73","","NaN","","","","","","","","","","","","","",""
"","response","","html-keyboard-response","484","426843","0.0-1.0-662.0-0.0","0","0","29448","","335","","","68","73","","","2","73","training","adjacent","DC","4","3","R.jpg","P.jpg","1","0","0","",""
"","feedback","","html-keyboard-response","485","427856","0.0-1.0-663.0-0.0","0","0","29448","","null","","","null","73","","","","","","","","","","","","","","","",""
"","time_out","","html-keyboard-response","486","429865","0.0-1.0-665.0-0.0","0","0","29448","","null","","","null","73","","","","","","","","","","","","","","","",""
"","ITI","","html-keyboard-response","487","430875","0.0-1.0-666.0","0","0","29448","","null","","","null","73","","","","","","","","","","","","","","","NaN",""
"","S1","","html-keyboard-response","488","431136","0.0-1.0-668.0","0","0","29448","","null","","","null","74","","","","","","","","","","","","","","","",""
"","ISI","","html-keyboard-response","489","431646","0.0-1.0-669.0","0","0","29448","","null","","","null","74","NaN","","","","","","","","","","","","","","",""
"","S2","","html-keyboard-response","490","431906","0.0-1.0-670.0","0","0","29448","","null","","","null","74","","NaN","","","","","","","","","","","","","",""
"","response","","html-keyboard-response","491","432243","0.0-1.0-671.0-0.0","0","0","29448","","333","","","68","74","","","2","74","training","adjacent","GF","7","6","M.jpg","O.jpg","1","0","0","",""
"","feedback","","html-keyboard-response","492","433256","0.0-1.0-672.0-0.0","0","0","29448","","null","","","null","74","","","","","","","","","","","","","","","",""
"","time_out","","html-keyboard-response","493","435266","0.0-1.0-674.0-0.0","0","0","29448","","null","","","null","74","","","","","","","","","","","","","","","",""
"","ITI","","html-keyboard-response","494","436275","0.0-1.0-675.0","0","0","29448","","null","","","null","74","","","","","","","","","","","","","","","NaN",""
"","S1","","html-keyboard-response","495","436535","0.0-1.0-677.0","0","0","29448","","null","","","null","75","","","","","","","","","","","","","","","",""
"","ISI","","html-keyboard-response","496","437045","0.0-1.0-678.0","0","0","29448","","null","","","null","75","NaN","","","","","","","","","","","","","","",""
"","S2","","html-keyboard-response","497","437305","0.0-1.0-679.0","0","0","29448","","null","","","null","75","","NaN","","","","","","","","","","","","","",""
"","response","","html-keyboard-response","498","437643","0.0-1.0-680.0-0.0","0","0","29448","","334","","","75","75","","","2","75","training","adjacent","FG","6","7","O.jpg","M.jpg","0","1","0","",""
"","feedback","","html-keyboard-response","499","438656","0.0-1.0-681.0-0.0","0","0","29448","","null","","","null","75","","","","","","","","","","","","","","","",""
"","time_out","","html-keyboard-response","500","440666","0.0-1.0-683.0-0.0","0","0","29448","","null","","","null","75","","","","","","","","","","","","","","","",""
"","ITI","","html-keyboard-response","501","441676","0.0-1.0-684.0","0","0","29448","","null","","","null","75","","","","","","","","","","","","","","","NaN",""
"","S1","","html-keyboard-response","502","441935","0.0-1.0-686.0","0","0","29448","","null","","","null","76","","","","","","","","","","","","","","","",""
"","ISI","","html-keyboard-response","503","442446","0.0-1.0-687.0","0","0","29448","","null","","","null","76","NaN","","","","","","","","","","","","","","",""
"","S2","","html-keyboard-response","504","442706","0.0-1.0-688.0","0","0","29448","","null","","","null","76","","NaN","","","","","","","","","","","","","",""
"","response","","html-keyboard-response","505","443043","0.0-1.0-689.0-0.0","0","0","29448","","334","","","75","76","","","2","76","training","adjacent","BA","2","1","Q.jpg","N.jpg","0","0","1","",""
"","feedback","","html-keyboard-response","506","444055","0.0-1.0-690.0-0.0","0","0","29448","","null","","","null","76","","","","","","","","","","","","","","","",""
"","ITI","","html-keyboard-response","507","445065","0.0-1.0-693.0","0","0","29448","","null","","","null","76","","","","","","","","","","","","","","","NaN",""
"","S1","","html-keyboard-response","508","445325","0.0-1.0-695.0","0","0","29448","","null","","","null","77","","","","","","","","","","","","","","","",""
"","ISI","","html-keyboard-response","509","445835","0.0-1.0-696.0","0","0","29448","","null","","","null","77","NaN","","","","","","","","","","","","","","",""
"","S2","","html-keyboard-response","510","446095","0.0-1.0-697.0","0","0","29448","","null","","","null","77","","NaN","","","","","","","","","","","","","",""
"","response","","html-keyboard-response","511","446194","0.0-1.0-698.0-0.0","0","0","29448","","97","","","68","77","","","2","77","training","adjacent","EF","5","6","L.jpg","O.jpg","1","1","1","",""
"","feedback","","html-keyboard-response","512","447205","0.0-1.0-699.0-0.0","0","0","29448","","null","","","null","77","","","","","","","","","","","","","","","",""
"","ITI","","html-keyboard-response","513","448215","0.0-1.0-702.0","0","0","29448","","null","","","null","77","","","","","","","","","","","","","","","NaN",""
"","S1","","html-keyboard-response","514","448475","0.0-1.0-704.0","0","0","29448","","null","","","null","78","","","","","","","","","","","","","","","",""
"","ISI","","html-keyboard-response","515","448986","0.0-1.0-705.0","0","0","29448","","null","","","null","78","NaN","","","","","","","","","","","","","","",""
"","S2","","html-keyboard-response","516","449246","0.0-1.0-706.0","0","0","29448","","null","","","null","78","","NaN","","","","","","","","","","","","","",""
"","response","","html-keyboard-response","517","449683","0.0-1.0-707.0-0.0","0","0","29448","","434","","","75","78","","","2","78","training","adjacent","CB","3","2","P.jpg","Q.jpg","0","0","1","",""
"","feedback","","html-keyboard-response","518","450695","0.0-1.0-708.0-0.0","0","0","29448","","null","","","null","78","","","","","","","","","","","","","","","",""
"","ITI","","html-keyboard-response","519","451706","0.0-1.0-711.0","0","0","29448","","null","","","null","78","","","","","","","","","","","","","","","NaN",""
"","S1","","html-keyboard-response","520","451966","0.0-1.0-713.0","0","0","29448","","null","","","null","79","","","","","","","","","","","","","","","",""
"","ISI","","html-keyboard-response","521","452475","0.0-1.0-714.0","0","0","29448","","null","","","null","79","NaN","","","","","","","","","","","","","","",""
"","S2","","html-keyboard-response","522","452735","0.0-1.0-715.0","0","0","29448","","null","","","null","79","","NaN","","","","","","","","","","","","","",""
"","response","","html-keyboard-response","523","453059","0.0-1.0-716.0-0.0","0","0","29448","","321","","","68","79","","","2","79","training","adjacent","EF","5","6","L.jpg","O.jpg","1","1","1","",""
"","feedback","","html-keyboard-response","524","454066","0.0-1.0-717.0-0.0","0","0","29448","","null","","","null","79","","","","","","","","","","","","","","","",""
"","ITI","","html-keyboard-response","525","455075","0.0-1.0-720.0","0","0","29448","","null","","","null","79","","","","","","","","","","","","","","","NaN",""
"","S1","","html-keyboard-response","526","455335","0.0-1.0-722.0","0","0","29448","","null","","","null","80","","","","","","","","","","","","","","","",""
"","ISI","","html-keyboard-response","527","455845","0.0-1.0-723.0","0","0","29448","","null","","","null","80","NaN","","","","","","","","","","","","","","",""
"","S2","","html-keyboard-response","528","456105","0.0-1.0-724.0","0","0","29448","","null","","","null","80","","NaN","","","","","","","","","","","","","",""
"","response","","html-keyboard-response","529","456314","0.0-1.0-725.0-0.0","0","0","29448","","206","","","75","80","","","2","80","training","adjacent","DE","4","5","R.jpg","L.jpg","0","1","0","",""
"","feedback","","html-keyboard-response","530","457325","0.0-1.0-726.0-0.0","0","0","29448","","null","","","null","80","","","","","","","","","","","","","","","",""
"","time_out","","html-keyboard-response","531","459335","0.0-1.0-728.0-0.0","0","0","29448","","null","","","null","80","","","","","","","","","","","","","","","",""
"","ITI","","html-keyboard-response","532","460345","0.0-1.0-729.0","0","0","29448","","null","","","null","80","","","","","","","","","","","","","","","NaN",""
"","S1","","html-keyboard-response","533","460605","0.0-1.0-731.0","0","0","29448","","null","","","null","81","","","","","","","","","","","","","","","",""
"","ISI","","html-keyboard-response","534","461115","0.0-1.0-732.0","0","0","29448","","null","","","null","81","NaN","","","","","","","","","","","","","","",""
"","S2","","html-keyboard-response","535","461375","0.0-1.0-733.0","0","0","29448","","null","","","null","81","","NaN","","","","","","","","","","","","","",""
"","response","","html-keyboard-response","536","461715","0.0-1.0-734.0-0.0","0","0","29448","","337","","","75","81","","","2","81","training","adjacent","DC","4","3","R.jpg","P.jpg","0","0","1","",""
"","feedback","","html-keyboard-response","537","462725","0.0-1.0-735.0-0.0","0","0","29448","","null","","","null","81","","","","","","","","","","","","","","","",""
"","ITI","","html-keyboard-response","538","463736","0.0-1.0-738.0","0","0","29448","","null","","","null","81","","","","","","","","","","","","","","","NaN",""
"","S1","","html-keyboard-response","539","463995","0.0-1.0-740.0","0","0","29448","","null","","","null","82","","","","","","","","","","","","","","","",""
"","ISI","","html-keyboard-response","540","464505","0.0-1.0-741.0","0","0","29448","","null","","","null","82","NaN","","","","","","","","","","","","","","",""
"","S2","","html-keyboard-response","541","464765","0.0-1.0-742.0","0","0","29448","","null","","","null","82","","NaN","","","","","","","","","","","","","",""
"","response","","html-keyboard-response","542","464978","0.0-1.0-743.0-0.0","0","0","29448","","210","","","68","82","","","2","82","training","adjacent","CD","3","4","P.jpg","R.jpg","1","1","1","",""
"","feedback","","html-keyboard-response","543","465985","0.0-1.0-744.0-0.0","0","0","29448","","null","","","null","82","","","","","","","","","","","","","","","",""
"","ITI","","html-keyboard-response","544","466995","0.0-1.0-747.0","0","0","29448","","null","","","null","82","","","","","","","","","","","","","","","NaN",""
"","S1","","html-keyboard-response","545","467255","0.0-1.0-749.0","0","0","29448","","null","","","null","83","","","","","","","","","","","","","","","",""
"","ISI","","html-keyboard-response","546","467765","0.0-1.0-750.0","0","0","29448","","null","","","null","83","NaN","","","","","","","","","","","","","","",""
"","S2","","html-keyboard-response","547","468025","0.0-1.0-751.0","0","0","29448","","null","","","null","83","","NaN","","","","","","","","","","","","","",""
"","response","","html-keyboard-response","548","468354","0.0-1.0-752.0-0.0","0","0","29448","","326","","","75","83","","","2","83","training","adjacent","ED","5","4","L.jpg","R.jpg","0","0","1","",""
"","feedback","","html-keyboard-response","549","469366","0.0-1.0-753.0-0.0","0","0","29448","","null","","","null","83","","","","","","","","","","","","","","","",""
"","ITI","","html-keyboard-response","550","470375","0.0-1.0-756.0","0","0","29448","","null","","","null","83","","","","","","","","","","","","","","","NaN",""
"","S1","","html-keyboard-response","551","470635","0.0-1.0-758.0","0","0","29448","","null","","","null","84","","","","","","","","","","","","","","","",""
"","ISI","","html-keyboard-response","552","471145","0.0-1.0-759.0","0","0","29448","","null","","","null","84","NaN","","","","","","","","","","","","","","",""
"","S2","","html-keyboard-response","553","471405","0.0-1.0-760.0","0","0","29448","","null","","","null","84","","NaN","","","","","","","","","","","","","",""
"","response","","html-keyboard-response","554","471842","0.0-1.0-761.0-0.0","0","0","29448","","433","","","68","84","","","2","84","training","adjacent","BC","2","3","Q.jpg","P.jpg","1","1","1","",""
"","feedback","","html-keyboard-response","555","472856","0.0-1.0-762.0-0.0","0","0","29448","","null","","","null","84","","","","","","","","","","","","","","","",""
"","ITI","","html-keyboard-response","556","473865","0.0-1.0-765.0","0","0","29448","","null","","","null","84","","","","","","","","","","","","","","","NaN",""
"","S1","","html-keyboard-response","557","474125","0.0-1.0-767.0","0","0","29448","","null","","","null","85","","","","","","","","","","","","","","","",""
"","ISI","","html-keyboard-response","558","474634","0.0-1.0-768.0","0","0","29448","","null","","","null","85","NaN","","","","","","","","","","","","","","",""
"","S2","","html-keyboard-response","559","474895","0.0-1.0-769.0","0","0","29448","","null","","","null","85","","NaN","","","","","","","","","","","","","",""
"","response","","html-keyboard-response","560","475106","0.0-1.0-770.0-0.0","0","0","29448","","208","","","75","85","","","2","85","training","adjacent","FE","6","5","O.jpg","L.jpg","0","0","1","",""
"","feedback","","html-keyboard-response","561","476115","0.0-1.0-771.0-0.0","0","0","29448","","null","","","null","85","","","","","","","","","","","","","","","",""
"","ITI","","html-keyboard-response","562","477125","0.0-1.0-774.0","0","0","29448","","null","","","null","85","","","","","","","","","","","","","","","NaN",""
"","S1","","html-keyboard-response","563","477385","0.0-1.0-776.0","0","0","29448","","null","","","null","86","","","","","","","","","","","","","","","",""
"","ISI","","html-keyboard-response","564","477895","0.0-1.0-777.0","0","0","29448","","null","","","null","86","NaN","","","","","","","","","","","","","","",""
"","S2","","html-keyboard-response","565","478155","0.0-1.0-778.0","0","0","29448","","null","","","null","86","","NaN","","","","","","","","","","","","","",""
"","response","","html-keyboard-response","566","478370","0.0-1.0-779.0-0.0","0","0","29448","","212","","","68","86","","","2","86","training","adjacent","EF","5","6","L.jpg","O.jpg","1","1","1","",""
"","feedback","","html-keyboard-response","567","479375","0.0-1.0-780.0-0.0","0","0","29448","","null","","","null","86","","","","","","","","","","","","","","","",""
"","ITI","","html-keyboard-response","568","480385","0.0-1.0-783.0","0","0","29448","","null","","","null","86","","","","","","","","","","","","","","","NaN",""
"","S1","","html-keyboard-response","569","480645","0.0-1.0-785.0","0","0","29448","","null","","","null","87","","","","","","","","","","","","","","","",""
"","ISI","","html-keyboard-response","570","481155","0.0-1.0-786.0","0","0","29448","","null","","","null","87","NaN","","","","","","","","","","","","","","",""
"","S2","","html-keyboard-response","571","481415","0.0-1.0-787.0","0","0","29448","","null","","","null","87","","NaN","","","","","","","","","","","","","",""
"","response","","html-keyboard-response","572","481634","0.0-1.0-788.0-0.0","0","0","29448","","216","","","68","87","","","2","87","training","adjacent","BA","2","1","Q.jpg","N.jpg","1","0","0","",""
"","feedback","","html-keyboard-response","573","482645","0.0-1.0-789.0-0.0","0","0","29448","","null","","","null","87","","","","","","","","","","","","","","","",""
"","time_out","","html-keyboard-response","574","484655","0.0-1.0-791.0-0.0","0","0","29448","","null","","","null","87","","","","","","","","","","","","","","","",""
"","ITI","","html-keyboard-response","575","485665","0.0-1.0-792.0","0","0","29448","","null","","","null","87","","","","","","","","","","","","","","","NaN",""
"","S1","","html-keyboard-response","576","485925","0.0-1.0-794.0","0","0","29448","","null","","","null","88","","","","","","","","","","","","","","","",""
"","ISI","","html-keyboard-response","577","486435","0.0-1.0-795.0","0","0","29448","","null","","","null","88","NaN","","","","","","","","","","","","","","",""
"","S2","","html-keyboard-response","578","486695","0.0-1.0-796.0","0","0","29448","","null","","","null","88","","NaN","","","","","","","","","","","","","",""
"","response","","html-keyboard-response","579","486802","0.0-1.0-797.0-0.0","0","0","29448","","105","","","68","88","","","2","88","training","adjacent","AB","1","2","N.jpg","Q.jpg","1","1","1","",""
"","feedback","","html-keyboard-response","580","487815","0.0-1.0-798.0-0.0","0","0","29448","","null","","","null","88","","","","","","","","","","","","","","","",""
"","ITI","","html-keyboard-response","581","488825","0.0-1.0-801.0","0","0","29448","","null","","","null","88","","","","","","","","","","","","","","","NaN",""
"","S1","","html-keyboard-response","582","489085","0.0-1.0-803.0","0","0","29448","","null","","","null","89","","","","","","","","","","","","","","","",""
