"success","ttype","start_time","trial_type","trial_index","time_elapsed","internal_node_id","warning","missed_checkup","PID","view_history","rt","responses","repeat_instructions","key_press","index","keypress_isi","keypress_S2","block","trial_num","phase","group_type","pair_type","S1_stim","S2_stim","S1_img","S2_img","S1_chosen","S1_higher","accuracy","keypress_iti","total_bonus_tally"
"true","full_screen","d03042023hr1430","fullscreen","0","9536","0.0-0.0","0","0","86881","","","","","","","","","","","","","","","","","","","","","",""
"","instructions","","instructions","1","39572","0.0-1.0-0.0-0.0","0","0","86881","[{""page_index"":0,""viewing_time"":6034},{""page_index"":1,""viewing_time"":10342},{""page_index"":2,""viewing_time"":6077},{""page_index"":3,""viewing_time"":7580}]","30033","","","","","","","","","","","","","","","","","","","",""
"","comprehension_check","","survey-multi-choice","2","57378","0.0-1.0-0.0-1.0","0","0","86881","","17800","{""Q0"":""True"",""Q1"":""D"",""Q2"":""Only when the screen 'MAKE A CHOICE' is shown"",""Q3"":""Green mark"",""Q4"":""either D or K""}","1","","","","","","","","","","","","","","","","","",""
"","missed_instruction_checkup","","html-keyboard-response","3","59532","0.0-1.0-0.0-2.0-0.0","0","1","86881","","2149","","","32","","","","","","","","","","","","","","","","",""
"","instructions","","instructions","4","81056","0.0-1.0-0.1-0.1","0","0","86881","[{""page_index"":0,""viewing_time"":4546},{""page_index"":1,""viewing_time"":14038},{""page_index"":2,""viewing_time"":1875},{""page_index"":3,""viewing_time"":1062}]","21522","","","","","","","","","","","","","","","","","","","",""
"","comprehension_check","","survey-multi-choice","5","97911","0.0-1.0-0.1-1.1","0","0","86881","","16846","{""Q0"":""True"",""Q1"":""K"",""Q2"":""Once the second image appears and while the screen 'MAKE A CHOICE' is shown"",""Q3"":""Green mark"",""Q4"":""either D or K""}","0","","","","","","","","","","","","","","","","","",""
"","start_exp","","html-keyboard-response","6","100253","0.0-1.0-1.0","0","0","86881","","2339","","","32","","","","","","","","","","","","","","","","",""
"","S1","","html-keyboard-response","7","100508","0.0-1.0-2.0","0","0","86881","","null","","","null","0","","","","","","","","","","","","","","","",""
"","ISI","","html-keyboard-response","8","101012","0.0-1.0-3.0","0","0","86881","","null","","","null","0","NaN","","","","","","","","","","","","","","",""
"","S2","","html-keyboard-response","9","101267","0.0-1.0-4.0","0","0","86881","","null","","","null","0","","NaN","","","","","","","","","","","","","",""
"","response","","html-keyboard-response","10","102916","0.0-1.0-5.0-0.0","0","0","86881","","1647","","","68","0","","","1","0","training","adjacent","FE","6","5","Q.jpg","O.jpg","0","0","1","",""
"","feedback","","html-keyboard-response","11","103923","0.0-1.0-6.0-0.0","0","0","86881","","null","","","null","0","","","","","","","","","","","","","","","",""
"","ITI","","html-keyboard-response","12","104929","0.0-1.0-9.0","0","0","86881","","null","","","null","0","","","","","","","","","","","","","","","NaN",""
"","S1","","html-keyboard-response","13","105185","0.0-1.0-11.0","0","0","86881","","null","","","null","1","","","","","","","","","","","","","","","",""
"","ISI","","html-keyboard-response","14","105690","0.0-1.0-12.0","0","0","86881","","null","","","null","1","NaN","","","","","","","","","","","","","","",""
"","S2","","html-keyboard-response","15","105946","0.0-1.0-13.0","0","0","86881","","null","","","null","1","","NaN","","","","","","","","","","","","","",""
"","response","","html-keyboard-response","16","106860","0.0-1.0-14.0-0.0","0","0","86881","","913","","","68","1","","","1","1","training","adjacent","CB","3","2","P.jpg","L.jpg","0","0","1","",""
"","feedback","","html-keyboard-response","17","107867","0.0-1.0-15.0-0.0","0","0","86881","","null","","","null","1","","","","","","","","","","","","","","","",""
"","ITI","","html-keyboard-response","18","108873","0.0-1.0-18.0","0","0","86881","","null","","","null","1","","","","","","","","","","","","","","","NaN",""
"","S1","","html-keyboard-response","19","109127","0.0-1.0-20.0","0","0","86881","","null","","","null","2","","","","","","","","","","","","","","","",""
"","ISI","","html-keyboard-response","20","109631","0.0-1.0-21.0","0","0","86881","","null","","","null","2","NaN","","","","","","","","","","","","","","",""
"","S2","","html-keyboard-response","21","109887","0.0-1.0-22.0","0","0","86881","","null","","","null","2","","NaN","","","","","","","","","","","","","",""
"","response","","html-keyboard-response","22","110548","0.0-1.0-23.0-0.0","0","0","86881","","659","","","68","2","","","1","2","training","adjacent","AB","1","2","M.jpg","L.jpg","0","1","0","",""
"","feedback","","html-keyboard-response","23","111553","0.0-1.0-24.0-0.0","0","0","86881","","null","","","null","2","","","","","","","","","","","","","","","",""
"","time_out","","html-keyboard-response","24","113558","0.0-1.0-26.0-0.0","0","0","86881","","null","","","null","2","","","","","","","","","","","","","","","",""
"","ITI","","html-keyboard-response","25","114565","0.0-1.0-27.0","0","0","86881","","null","","","null","2","","","","","","","","","","","","","","","NaN",""
"","S1","","html-keyboard-response","26","114821","0.0-1.0-29.0","0","0","86881","","null","","","null","3","","","","","","","","","","","","","","","",""
"","ISI","","html-keyboard-response","27","115326","0.0-1.0-30.0","0","0","86881","","null","","","null","3","NaN","","","","","","","","","","","","","","",""
"","S2","","html-keyboard-response","28","115581","0.0-1.0-31.0","0","0","86881","","null","","","null","3","","NaN","","","","","","","","","","","","","",""
"","response","","html-keyboard-response","29","116832","0.0-1.0-32.0-0.0","0","0","86881","","1249","","","75","3","","","1","3","training","adjacent","CB","3","2","P.jpg","L.jpg","1","0","0","",""
"","feedback","","html-keyboard-response","30","117839","0.0-1.0-33.0-0.0","0","0","86881","","null","","","null","3","","","","","","","","","","","","","","","",""
"","time_out","","html-keyboard-response","31","119844","0.0-1.0-35.0-0.0","0","0","86881","","null","","","null","3","","","","","","","","","","","","","","","",""
"","ITI","","html-keyboard-response","32","120849","0.0-1.0-36.0","0","0","86881","","null","","","null","3","","","","","","","","","","","","","","","NaN",""
"","S1","","html-keyboard-response","33","121103","0.0-1.0-38.0","0","0","86881","","null","","","null","4","","","","","","","","","","","","","","","",""
"","ISI","","html-keyboard-response","34","121607","0.0-1.0-39.0","0","0","86881","","null","","","null","4","NaN","","","","","","","","","","","","","","",""
"","S2","","html-keyboard-response","35","121862","0.0-1.0-40.0","0","0","86881","","null","","","null","4","","NaN","","","","","","","","","","","","","",""
"","response","","html-keyboard-response","36","123051","0.0-1.0-41.0-0.0","0","0","86881","","1188","","","68","4","","","1","4","training","adjacent","ED","5","4","O.jpg","N.jpg","0","0","1","",""
"","feedback","","html-keyboard-response","37","124056","0.0-1.0-42.0-0.0","0","0","86881","","null","","","null","4","","","","","","","","","","","","","","","",""
"","ITI","","html-keyboard-response","38","125061","0.0-1.0-45.0","0","0","86881","","null","","","null","4","","","","","","","","","","","","","","","NaN",""
"","S1","","html-keyboard-response","39","125316","0.0-1.0-47.0","0","0","86881","","null","","","null","5","","","","","","","","","","","","","","","",""
"","ISI","","html-keyboard-response","40","125821","0.0-1.0-48.0","0","0","86881","","null","","","null","5","NaN","","","","","","","","","","","","","","",""
"","S2","","html-keyboard-response","41","126076","0.0-1.0-49.0","0","0","86881","","null","","","null","5","","NaN","","","","","","","","","","","","","",""
"","response","","html-keyboard-response","42","127375","0.0-1.0-50.0-0.0","0","0","86881","","1296","","","68","5","","","1","5","training","adjacent","BA","2","1","L.jpg","M.jpg","0","0","1","",""
"","feedback","","html-keyboard-response","43","128381","0.0-1.0-51.0-0.0","0","0","86881","","null","","","null","5","","","","","","","","","","","","","","","",""
"","ITI","","html-keyboard-response","44","129385","0.0-1.0-54.0","0","0","86881","","null","","","null","5","","","","","","","","","","","","","","","NaN",""
"","S1","","html-keyboard-response","45","129641","0.0-1.0-56.0","0","0","86881","","null","","","null","6","","","","","","","","","","","","","","","",""
"","ISI","","html-keyboard-response","46","130147","0.0-1.0-57.0","0","0","86881","","null","","","null","6","NaN","","","","","","","","","","","","","","",""
"","S2","","html-keyboard-response","47","130401","0.0-1.0-58.0","0","0","86881","","null","","","null","6","","NaN","","","","","","","","","","","","","",""
"","response","","html-keyboard-response","48","131383","0.0-1.0-59.0-0.0","0","0","86881","","979","","","75","6","","","1","6","training","adjacent","GF","7","6","R.jpg","Q.jpg","1","0","0","",""
"","feedback","","html-keyboard-response","49","132388","0.0-1.0-60.0-0.0","0","0","86881","","null","","","null","6","","","","","","","","","","","","","","","",""
"","time_out","","html-keyboard-response","50","134394","0.0-1.0-62.0-0.0","0","0","86881","","null","","","null","6","","","","","","","","","","","","","","","",""
"","ITI","","html-keyboard-response","51","135399","0.0-1.0-63.0","0","0","86881","","null","","","null","6","","","","","","","","","","","","","","","NaN",""
"","S1","","html-keyboard-response","52","135654","0.0-1.0-65.0","0","0","86881","","null","","","null","7","","","","","","","","","","","","","","","",""
"","ISI","","html-keyboard-response","53","136161","0.0-1.0-66.0","0","0","86881","","null","","","null","7","NaN","","","","","","","","","","","","","","",""
"","S2","","html-keyboard-response","54","136415","0.0-1.0-67.0","0","0","86881","","null","","","null","7","","NaN","","","","","","","","","","","","","",""
"","response","","html-keyboard-response","55","137804","0.0-1.0-68.0-0.0","0","0","86881","","1387","","","75","7","","","1","7","training","adjacent","BC","2","3","L.jpg","P.jpg","1","1","1","",""
"","feedback","","html-keyboard-response","56","138806","0.0-1.0-69.0-0.0","0","0","86881","","null","","","null","7","","","","","","","","","","","","","","","",""
"","ITI","","html-keyboard-response","57","139811","0.0-1.0-72.0","0","0","86881","","null","","","null","7","","","","","","","","","","","","","","","NaN",""
"","S1","","html-keyboard-response","58","140066","0.0-1.0-74.0","0","0","86881","","null","","","null","8","","","","","","","","","","","","","","","",""
"","ISI","","html-keyboard-response","59","140573","0.0-1.0-75.0","0","0","86881","","null","","","null","8","NaN","","","","","","","","","","","","","","",""
"","S2","","html-keyboard-response","60","140826","0.0-1.0-76.0","0","0","86881","","null","","","null","8","","NaN","","","","","","","","","","","","","",""
"","response","","html-keyboard-response","61","141988","0.0-1.0-77.0-0.0","0","0","86881","","1160","","","68","8","","","1","8","training","adjacent","FE","6","5","Q.jpg","O.jpg","0","0","1","",""
"","feedback","","html-keyboard-response","62","142992","0.0-1.0-78.0-0.0","0","0","86881","","null","","","null","8","","","","","","","","","","","","","","","",""
"","ITI","","html-keyboard-response","63","143996","0.0-1.0-81.0","0","0","86881","","null","","","null","8","","","","","","","","","","","","","","","NaN",""
"","S1","","html-keyboard-response","64","144251","0.0-1.0-83.0","0","0","86881","","null","","","null","9","","","","","","","","","","","","","","","",""
"","ISI","","html-keyboard-response","65","144756","0.0-1.0-84.0","0","0","86881","","null","","","null","9","NaN","","","","","","","","","","","","","","",""
"","S2","","html-keyboard-response","66","145012","0.0-1.0-85.0","0","0","86881","","null","","","null","9","","NaN","","","","","","","","","","","","","",""
"","response","","html-keyboard-response","67","146148","0.0-1.0-86.0-0.0","0","0","86881","","1133","","","68","9","","","1","9","training","adjacent","BA","2","1","L.jpg","M.jpg","0","0","1","",""
"","feedback","","html-keyboard-response","68","147154","0.0-1.0-87.0-0.0","0","0","86881","","null","","","null","9","","","","","","","","","","","","","","","",""
"","ITI","","html-keyboard-response","69","148158","0.0-1.0-90.0","0","0","86881","","null","","","null","9","","","","","","","","","","","","","","","NaN",""
"","S1","","html-keyboard-response","70","148415","0.0-1.0-92.0","0","0","86881","","null","","","null","10","","","","","","","","","","","","","","","",""
"","ISI","","html-keyboard-response","71","148920","0.0-1.0-93.0","0","0","86881","","null","","","null","10","NaN","","","","","","","","","","","","","","",""
"","S2","","html-keyboard-response","72","149176","0.0-1.0-94.0","0","0","86881","","null","","","null","10","","NaN","","","","","","","","","","","","","",""
"","response","","html-keyboard-response","73","150933","0.0-1.0-95.0-0.0","0","0","86881","","null","","","null","10","","","1","10","training","adjacent","CB","3","2","P.jpg","L.jpg","NaN","0","0","",""
"","too_slow_prompt","","html-keyboard-response","74","151940","0.0-1.0-97.0-0.0","1","0","86881","","null","","","null","","","","","","","","","","","","","","","","",""
"","time_out","","html-keyboard-response","75","153945","0.0-1.0-98.0-0.0","0","0","86881","","null","","","null","10","","","","","","","","","","","","","","","",""
"","ITI","","html-keyboard-response","76","154951","0.0-1.0-99.0","0","0","86881","","null","","","null","10","","","","","","","","","","","","","","","NaN",""
"","S1","","html-keyboard-response","77","155207","0.0-1.0-101.0","0","0","86881","","null","","","null","11","","","","","","","","","","","","","","","",""
"","ISI","","html-keyboard-response","78","155713","0.0-1.0-102.0","0","0","86881","","null","","","null","11","NaN","","","","","","","","","","","","","","",""
"","S2","","html-keyboard-response","79","155965","0.0-1.0-103.0","0","0","86881","","null","","","null","11","","NaN","","","","","","","","","","","","","",""
"","response","","html-keyboard-response","80","156678","0.0-1.0-104.0-0.0","0","0","86881","","711","","","68","11","","","1","11","training","adjacent","BC","2","3","L.jpg","P.jpg","0","1","0","",""
"","feedback","","html-keyboard-response","81","157684","0.0-1.0-105.0-0.0","0","0","86881","","null","","","null","11","","","","","","","","","","","","","","","",""
"","time_out","","html-keyboard-response","82","159688","0.0-1.0-107.0-0.0","0","0","86881","","null","","","null","11","","","","","","","","","","","","","","","",""
"","ITI","","html-keyboard-response","83","160695","0.0-1.0-108.0","0","0","86881","","null","","","null","11","","","","","","","","","","","","","","","NaN",""
"","S1","","html-keyboard-response","84","160952","0.0-1.0-110.0","0","0","86881","","null","","","null","12","","","","","","","","","","","","","","","",""
"","ISI","","html-keyboard-response","85","161457","0.0-1.0-111.0","0","0","86881","","null","","","null","12","NaN","","","","","","","","","","","","","","",""
"","S2","","html-keyboard-response","86","161712","0.0-1.0-112.0","0","0","86881","","null","","","null","12","","NaN","","","","","","","","","","","","","",""
"","response","","html-keyboard-response","87","162787","0.0-1.0-113.0-0.0","0","0","86881","","1072","","","75","12","","","1","12","training","adjacent","CD","3","4","P.jpg","N.jpg","1","1","1","",""
"","feedback","","html-keyboard-response","88","163790","0.0-1.0-114.0-0.0","0","0","86881","","null","","","null","12","","","","","","","","","","","","","","","",""
"","ITI","","html-keyboard-response","89","164795","0.0-1.0-117.0","0","0","86881","","null","","","null","12","","","","","","","","","","","","","","","NaN",""
"","S1","","html-keyboard-response","90","165052","0.0-1.0-119.0","0","0","86881","","null","","","null","13","","","","","","","","","","","","","","","",""
"","ISI","","html-keyboard-response","91","165557","0.0-1.0-120.0","0","0","86881","","null","","","null","13","NaN","","","","","","","","","","","","","","",""
"","S2","","html-keyboard-response","92","165811","0.0-1.0-121.0","0","0","86881","","null","","","null","13","","NaN","","","","","","","","","","","","","",""
"","response","","html-keyboard-response","93","166803","0.0-1.0-122.0-0.0","0","0","86881","","990","","","68","13","","","1","13","training","adjacent","BA","2","1","L.jpg","M.jpg","0","0","1","",""
"","feedback","","html-keyboard-response","94","167807","0.0-1.0-123.0-0.0","0","0","86881","","null","","","null","13","","","","","","","","","","","","","","","",""
"","ITI","","html-keyboard-response","95","168812","0.0-1.0-126.0","0","0","86881","","null","","","null","13","","","","","","","","","","","","","","","NaN",""
"","S1","","html-keyboard-response","96","169068","0.0-1.0-128.0","0","0","86881","","null","","","null","14","","","","","","","","","","","","","","","",""
"","ISI","","html-keyboard-response","97","169574","0.0-1.0-129.0","0","0","86881","","null","","","null","14","NaN","","","","","","","","","","","","","","",""
"","S2","","html-keyboard-response","98","169827","0.0-1.0-130.0","0","0","86881","","null","","","null","14","","NaN","","","","","","","","","","","","","",""
"","response","","html-keyboard-response","99","170987","0.0-1.0-131.0-0.0","0","0","86881","","1157","","","75","14","","","1","14","training","adjacent","FE","6","5","Q.jpg","O.jpg","1","0","0","",""
"","feedback","","html-keyboard-response","100","171992","0.0-1.0-132.0-0.0","0","0","86881","","null","","","null","14","","","","","","","","","","","","","","","",""
"","time_out","","html-keyboard-response","101","173995","0.0-1.0-134.0-0.0","0","0","86881","","null","","","null","14","","","","","","","","","","","","","","","",""
"","ITI","","html-keyboard-response","102","175002","0.0-1.0-135.0","0","0","86881","","null","","","null","14","","","","","","","","","","","","","","","NaN",""
"","S1","","html-keyboard-response","103","175258","0.0-1.0-137.0","0","0","86881","","null","","","null","15","","","","","","","","","","","","","","","",""
"","ISI","","html-keyboard-response","104","175762","0.0-1.0-138.0","0","0","86881","","null","","","null","15","NaN","","","","","","","","","","","","","","",""
"","S2","","html-keyboard-response","105","176017","0.0-1.0-139.0","0","0","86881","","null","","","null","15","","NaN","","","","","","","","","","","","","",""
"","response","","html-keyboard-response","106","177459","0.0-1.0-140.0-0.0","0","0","86881","","1439","","","68","15","","","1","15","training","adjacent","AB","1","2","M.jpg","L.jpg","0","1","0","",""
"","feedback","","html-keyboard-response","107","178465","0.0-1.0-141.0-0.0","0","0","86881","","null","","","null","15","","","","","","","","","","","","","","","",""
"","time_out","","html-keyboard-response","108","180468","0.0-1.0-143.0-0.0","0","0","86881","","null","","","null","15","","","","","","","","","","","","","","","",""
"","ITI","","html-keyboard-response","109","181472","0.0-1.0-144.0","0","0","86881","","null","","","null","15","","","","","","","","","","","","","","","NaN",""
"","S1","","html-keyboard-response","110","181727","0.0-1.0-146.0","0","0","86881","","null","","","null","16","","","","","","","","","","","","","","","",""
"","ISI","","html-keyboard-response","111","182234","0.0-1.0-147.0","0","0","86881","","null","","","null","16","NaN","","","","","","","","","","","","","","",""
"","S2","","html-keyboard-response","112","182488","0.0-1.0-148.0","0","0","86881","","null","","","null","16","","NaN","","","","","","","","","","","","","",""
"","response","","html-keyboard-response","113","183564","0.0-1.0-149.0-0.0","0","0","86881","","1075","","","75","16","","","1","16","training","adjacent","CD","3","4","P.jpg","N.jpg","1","1","1","",""
"","feedback","","html-keyboard-response","114","184572","0.0-1.0-150.0-0.0","0","0","86881","","null","","","null","16","","","","","","","","","","","","","","","",""
"","ITI","","html-keyboard-response","115","185575","0.0-1.0-153.0","0","0","86881","","null","","","null","16","","","","","","","","","","","","","","","NaN",""
"","S1","","html-keyboard-response","116","185831","0.0-1.0-155.0","0","0","86881","","null","","","null","17","","","","","","","","","","","","","","","",""
"","ISI","","html-keyboard-response","117","186336","0.0-1.0-156.0","0","0","86881","","null","","","null","17","NaN","","","","","","","","","","","","","","",""
"","S2","","html-keyboard-response","118","186592","0.0-1.0-157.0","0","0","86881","","null","","","null","17","","NaN","","","","","","","","","","","","","",""
"","response","","html-keyboard-response","119","187484","0.0-1.0-158.0-0.0","0","0","86881","","889","","","75","17","","","1","17","training","adjacent","EF","5","6","O.jpg","Q.jpg","1","1","1","",""
"","feedback","","html-keyboard-response","120","188490","0.0-1.0-159.0-0.0","0","0","86881","","null","","","null","17","","","","","","","","","","","","","","","",""
"","ITI","","html-keyboard-response","121","189495","0.0-1.0-162.0","0","0","86881","","null","","","null","17","","","","","","","","","","","","","","","NaN",""
"","S1","","html-keyboard-response","122","189750","0.0-1.0-164.0","0","0","86881","","null","","","null","18","","","","","","","","","","","","","","","",""
"","ISI","","html-keyboard-response","123","190256","0.0-1.0-165.0","0","0","86881","","null","","","null","18","NaN","","","","","","","","","","","","","","",""
"","S2","","html-keyboard-response","124","190511","0.0-1.0-166.0","0","0","86881","","null","","","null","18","","NaN","","","","","","","","","","","","","",""
"","response","","html-keyboard-response","125","191628","0.0-1.0-167.0-0.0","0","0","86881","","1114","","","75","18","","","1","18","training","adjacent","DC","4","3","N.jpg","P.jpg","1","0","0","",""
"","feedback","","html-keyboard-response","126","192634","0.0-1.0-168.0-0.0","0","0","86881","","null","","","null","18","","","","","","","","","","","","","","","",""
"","time_out","","html-keyboard-response","127","195253","0.0-1.0-170.0-0.0","0","0","86881","","null","","","null","18","","","","","","","","","","","","","","","",""
"","ITI","","html-keyboard-response","128","197008","0.0-1.0-171.0","0","0","86881","","null","","","null","18","","","","","","","","","","","","","","","NaN",""
"","S1","","html-keyboard-response","129","197970","0.0-1.0-173.0","0","0","86881","","null","","","null","19","","","","","","","","","","","","","","","",""
"","ISI","","html-keyboard-response","130","199334","0.0-1.0-174.0","0","0","86881","","null","","","null","19","NaN","","","","","","","","","","","","","","",""
"","S2","","html-keyboard-response","131","200285","0.0-1.0-175.0","0","0","86881","","null","","","null","19","","NaN","","","","","","","","","","","","","",""
"","response","","html-keyboard-response","132","203079","0.0-1.0-176.0-0.0","0","0","86881","","null","","","null","19","","","1","19","training","adjacent","CD","3","4","P.jpg","N.jpg","NaN","1","0","",""
"","too_slow_prompt","","html-keyboard-response","133","205364","0.0-1.0-178.0-0.0","1","0","86881","","null","","","null","","","","","","","","","","","","","","","","",""
"","time_out","","html-keyboard-response","134","207971","0.0-1.0-179.0-0.0","0","0","86881","","null","","","null","19","","","","","","","","","","","","","","","",""
"","ITI","","html-keyboard-response","135","209970","0.0-1.0-180.0","0","0","86881","","null","","","null","19","","","","","","","","","","","","","","","NaN",""
"","S1","","html-keyboard-response","136","211192","0.0-1.0-182.0","0","0","86881","","null","","","null","20","","","","","","","","","","","","","","","",""
"","ISI","","html-keyboard-response","137","212357","0.0-1.0-183.0","0","0","86881","","null","","","null","20","NaN","","","","","","","","","","","","","","",""
"","S2","","html-keyboard-response","138","213275","0.0-1.0-184.0","0","0","86881","","null","","","null","20","","NaN","","","","","","","","","","","","","",""
"","response","","html-keyboard-response","139","215030","0.0-1.0-185.0-0.0","0","0","86881","","null","","","null","20","","","1","20","training","adjacent","BC","2","3","L.jpg","P.jpg","NaN","1","0","",""
"","too_slow_prompt","","html-keyboard-response","140","216036","0.0-1.0-187.0-0.0","1","0","86881","","null","","","null","","","","","","","","","","","","","","","","",""
"","time_out","","html-keyboard-response","141","218042","0.0-1.0-188.0-0.0","0","0","86881","","null","","","null","20","","","","","","","","","","","","","","","",""
"","ITI","","html-keyboard-response","142","219048","0.0-1.0-189.0","0","0","86881","","null","","","null","20","","","","","","","","","","","","","","","NaN",""
"","S1","","html-keyboard-response","143","219304","0.0-1.0-191.0","0","0","86881","","null","","","null","21","","","","","","","","","","","","","","","",""
"","ISI","","html-keyboard-response","144","219811","0.0-1.0-192.0","0","0","86881","","null","","","null","21","NaN","","","","","","","","","","","","","","",""
"","S2","","html-keyboard-response","145","220068","0.0-1.0-193.0","0","0","86881","","null","","","null","21","","NaN","","","","","","","","","","","","","",""
"","response","","html-keyboard-response","146","220615","0.0-1.0-194.0-0.0","0","0","86881","","545","","","75","21","","","1","21","training","adjacent","BA","2","1","L.jpg","M.jpg","1","0","0","",""
"","feedback","","html-keyboard-response","147","221618","0.0-1.0-195.0-0.0","0","0","86881","","null","","","null","21","","","","","","","","","","","","","","","",""
"","time_out","","html-keyboard-response","148","223623","0.0-1.0-197.0-0.0","0","0","86881","","null","","","null","21","","","","","","","","","","","","","","","",""
"","ITI","","html-keyboard-response","149","224630","0.0-1.0-198.0","0","0","86881","","null","","","null","21","","","","","","","","","","","","","","","NaN",""
"","S1","","html-keyboard-response","150","224886","0.0-1.0-200.0","0","0","86881","","null","","","null","22","","","","","","","","","","","","","","","",""
"","ISI","","html-keyboard-response","151","225391","0.0-1.0-201.0","0","0","86881","","null","","","null","22","NaN","","","","","","","","","","","","","","",""
"","S2","","html-keyboard-response","152","225647","0.0-1.0-202.0","0","0","86881","","null","","","null","22","","NaN","","","","","","","","","","","","","",""
"","response","","html-keyboard-response","153","226199","0.0-1.0-203.0-0.0","0","0","86881","","551","","","68","22","","","1","22","training","adjacent","EF","5","6","O.jpg","Q.jpg","0","1","0","",""
"","feedback","","html-keyboard-response","154","227204","0.0-1.0-204.0-0.0","0","0","86881","","null","","","null","22","","","","","","","","","","","","","","","",""
"","time_out","","html-keyboard-response","155","229211","0.0-1.0-206.0-0.0","0","0","86881","","null","","","null","22","","","","","","","","","","","","","","","",""
"","ITI","","html-keyboard-response","156","230215","0.0-1.0-207.0","0","0","86881","","null","","","null","22","","","","","","","","","","","","","","","NaN",""
"","S1","","html-keyboard-response","157","230470","0.0-1.0-209.0","0","0","86881","","null","","","null","23","","","","","","","","","","","","","","","",""
"","ISI","","html-keyboard-response","158","230975","0.0-1.0-210.0","0","0","86881","","null","","","null","23","NaN","","","","","","","","","","","","","","",""
"","S2","","html-keyboard-response","159","231231","0.0-1.0-211.0","0","0","86881","","null","","","null","23","","NaN","","","","","","","","","","","","","",""
"","response","","html-keyboard-response","160","231900","0.0-1.0-212.0-0.0","0","0","86881","","666","","","75","23","","","1","23","training","adjacent","DE","4","5","N.jpg","O.jpg","1","1","1","",""
"","feedback","","html-keyboard-response","161","232904","0.0-1.0-213.0-0.0","0","0","86881","","null","","","null","23","","","","","","","","","","","","","","","",""
"","ITI","","html-keyboard-response","162","233909","0.0-1.0-216.0","0","0","86881","","null","","","null","23","","","","","","","","","","","","","","","NaN",""
"","S1","","html-keyboard-response","163","234164","0.0-1.0-218.0","0","0","86881","","null","","","null","24","","","","","","","","","","","","","","","",""
"","ISI","","html-keyboard-response","164","234667","0.0-1.0-219.0","0","0","86881","","null","","","null","24","NaN","","","","","","","","","","","","","","",""
"","S2","","html-keyboard-response","165","234923","0.0-1.0-220.0","0","0","86881","","null","","","null","24","","NaN","","","","","","","","","","","","","",""
"","response","","html-keyboard-response","166","235987","0.0-1.0-221.0-0.0","0","0","86881","","1062","","","75","24","","","1","24","training","adjacent","FG","6","7","Q.jpg","R.jpg","1","1","1","",""
"","feedback","","html-keyboard-response","167","236995","0.0-1.0-222.0-0.0","0","0","86881","","null","","","null","24","","","","","","","","","","","","","","","",""
"","ITI","","html-keyboard-response","168","238000","0.0-1.0-225.0","0","0","86881","","null","","","null","24","","","","","","","","","","","","","","","NaN",""
"","S1","","html-keyboard-response","169","238255","0.0-1.0-227.0","0","0","86881","","null","","","null","25","","","","","","","","","","","","","","","",""
"","ISI","","html-keyboard-response","170","238761","0.0-1.0-228.0","0","0","86881","","null","","","null","25","NaN","","","","","","","","","","","","","","",""
"","S2","","html-keyboard-response","171","239015","0.0-1.0-229.0","0","0","86881","","null","","","null","25","","NaN","","","","","","","","","","","","","",""
"","response","","html-keyboard-response","172","240044","0.0-1.0-230.0-0.0","0","0","86881","","1026","","","75","25","","","1","25","training","adjacent","DC","4","3","N.jpg","P.jpg","1","0","0","",""
"","feedback","","html-keyboard-response","173","241050","0.0-1.0-231.0-0.0","0","0","86881","","null","","","null","25","","","","","","","","","","","","","","","",""
"","time_out","","html-keyboard-response","174","243055","0.0-1.0-233.0-0.0","0","0","86881","","null","","","null","25","","","","","","","","","","","","","","","",""
"","ITI","","html-keyboard-response","175","244062","0.0-1.0-234.0","0","0","86881","","null","","","null","25","","","","","","","","","","","","","","","NaN",""
"","S1","","html-keyboard-response","176","244316","0.0-1.0-236.0","0","0","86881","","null","","","null","26","","","","","","","","","","","","","","","",""
"","ISI","","html-keyboard-response","177","244819","0.0-1.0-237.0","0","0","86881","","null","","","null","26","NaN","","","","","","","","","","","","","","",""
"","S2","","html-keyboard-response","178","245075","0.0-1.0-238.0","0","0","86881","","null","","","null","26","","NaN","","","","","","","","","","","","","",""
"","response","","html-keyboard-response","179","245867","0.0-1.0-239.0-0.0","0","0","86881","","790","","","75","26","","","1","26","training","adjacent","EF","5","6","O.jpg","Q.jpg","1","1","1","",""
"","feedback","","html-keyboard-response","180","246875","0.0-1.0-240.0-0.0","0","0","86881","","null","","","null","26","","","","","","","","","","","","","","","",""
"","ITI","","html-keyboard-response","181","247879","0.0-1.0-243.0","0","0","86881","","null","","","null","26","","","","","","","","","","","","","","","NaN",""
"","S1","","html-keyboard-response","182","248135","0.0-1.0-245.0","0","0","86881","","null","","","null","27","","","","","","","","","","","","","","","",""
"","ISI","","html-keyboard-response","183","248639","0.0-1.0-246.0","0","0","86881","","null","","","null","27","NaN","","","","","","","","","","","","","","",""
"","S2","","html-keyboard-response","184","248895","0.0-1.0-247.0","0","0","86881","","null","","","null","27","","NaN","","","","","","","","","","","","","",""
"","response","","html-keyboard-response","185","249859","0.0-1.0-248.0-0.0","0","0","86881","","962","","","68","27","","","1","27","training","adjacent","GF","7","6","R.jpg","Q.jpg","0","0","1","",""
"","feedback","","html-keyboard-response","186","250866","0.0-1.0-249.0-0.0","0","0","86881","","null","","","null","27","","","","","","","","","","","","","","","",""
"","ITI","","html-keyboard-response","187","251873","0.0-1.0-252.0","0","0","86881","","null","","","null","27","","","","","","","","","","","","","","","NaN",""
"","S1","","html-keyboard-response","188","252128","0.0-1.0-254.0","0","0","86881","","null","","","null","28","","","","","","","","","","","","","","","",""
"","ISI","","html-keyboard-response","189","252633","0.0-1.0-255.0","0","0","86881","","null","","","null","28","NaN","","","","","","","","","","","","","","",""
"","S2","","html-keyboard-response","190","252889","0.0-1.0-256.0","0","0","86881","","null","","","null","28","","NaN","","","","","","","","","","","","","",""
"","response","","html-keyboard-response","191","253604","0.0-1.0-257.0-0.0","0","0","86881","","712","","","68","28","","","1","28","training","adjacent","GF","7","6","R.jpg","Q.jpg","0","0","1","",""
"","feedback","","html-keyboard-response","192","254607","0.0-1.0-258.0-0.0","0","0","86881","","null","","","null","28","","","","","","","","","","","","","","","",""
"","ITI","","html-keyboard-response","193","255613","0.0-1.0-261.0","0","0","86881","","null","","","null","28","","","","","","","","","","","","","","","NaN",""
"","S1","","html-keyboard-response","194","255868","0.0-1.0-263.0","0","0","86881","","null","","","null","29","","","","","","","","","","","","","","","",""
"","ISI","","html-keyboard-response","195","256371","0.0-1.0-264.0","0","0","86881","","null","","","null","29","NaN","","","","","","","","","","","","","","",""
"","S2","","html-keyboard-response","196","256627","0.0-1.0-265.0","0","0","86881","","null","","","null","29","","NaN","","","","","","","","","","","","","",""
"","response","","html-keyboard-response","197","257435","0.0-1.0-266.0-0.0","0","0","86881","","806","","","75","29","","","1","29","training","adjacent","CD","3","4","P.jpg","N.jpg","1","1","1","",""
"","feedback","","html-keyboard-response","198","258438","0.0-1.0-267.0-0.0","0","0","86881","","null","","","null","29","","","","","","","","","","","","","","","",""
"","ITI","","html-keyboard-response","199","259444","0.0-1.0-270.0","0","0","86881","","null","","","null","29","","","","","","","","","","","","","","","NaN",""
"","S1","","html-keyboard-response","200","259701","0.0-1.0-272.0","0","0","86881","","null","","","null","30","","","","","","","","","","","","","","","",""
"","ISI","","html-keyboard-response","201","260206","0.0-1.0-273.0","0","0","86881","","null","","","null","30","NaN","","","","","","","","","","","","","","",""
"","S2","","html-keyboard-response","202","260461","0.0-1.0-274.0","0","0","86881","","null","","","null","30","","NaN","","","","","","","","","","","","","",""
"","response","","html-keyboard-response","203","261289","0.0-1.0-275.0-0.0","0","0","86881","","825","","","68","30","","","1","30","training","adjacent","ED","5","4","O.jpg","N.jpg","0","0","1","",""
"","feedback","","html-keyboard-response","204","262293","0.0-1.0-276.0-0.0","0","0","86881","","null","","","null","30","","","","","","","","","","","","","","","",""
"","ITI","","html-keyboard-response","205","263299","0.0-1.0-279.0","0","0","86881","","null","","","null","30","","","","","","","","","","","","","","","NaN",""
"","S1","","html-keyboard-response","206","263557","0.0-1.0-281.0","0","0","86881","","null","","","null","31","","","","","","","","","","","","","","","",""
"","ISI","","html-keyboard-response","207","264063","0.0-1.0-282.0","0","0","86881","","null","","","null","31","NaN","","","","","","","","","","","","","","",""
"","S2","","html-keyboard-response","208","264318","0.0-1.0-283.0","0","0","86881","","null","","","null","31","","NaN","","","","","","","","","","","","","",""
"","response","","html-keyboard-response","209","264897","0.0-1.0-284.0-0.0","0","0","86881","","576","","","75","31","","","1","31","training","adjacent","ED","5","4","O.jpg","N.jpg","1","0","0","",""
"","feedback","","html-keyboard-response","210","265903","0.0-1.0-285.0-0.0","0","0","86881","","null","","","null","31","","","","","","","","","","","","","","","",""
"","time_out","","html-keyboard-response","211","267906","0.0-1.0-287.0-0.0","0","0","86881","","null","","","null","31","","","","","","","","","","","","","","","",""
"","ITI","","html-keyboard-response","212","268911","0.0-1.0-288.0","0","0","86881","","null","","","null","31","","","","","","","","","","","","","","","NaN",""
"","S1","","html-keyboard-response","213","269165","0.0-1.0-290.0","0","0","86881","","null","","","null","32","","","","","","","","","","","","","","","",""
"","ISI","","html-keyboard-response","214","269670","0.0-1.0-291.0","0","0","86881","","null","","","null","32","NaN","","","","","","","","","","","","","","",""
"","S2","","html-keyboard-response","215","269928","0.0-1.0-292.0","0","0","86881","","null","","","null","32","","NaN","","","","","","","","","","","","","",""
"","response","","html-keyboard-response","216","270899","0.0-1.0-293.0-0.0","0","0","86881","","969","","","68","32","","","1","32","training","adjacent","DC","4","3","N.jpg","P.jpg","0","0","1","",""
"","feedback","","html-keyboard-response","217","271905","0.0-1.0-294.0-0.0","0","0","86881","","null","","","null","32","","","","","","","","","","","","","","","",""
"","ITI","","html-keyboard-response","218","272909","0.0-1.0-297.0","0","0","86881","","null","","","null","32","","","","","","","","","","","","","","","NaN",""
"","S1","","html-keyboard-response","219","273165","0.0-1.0-299.0","0","0","86881","","null","","","null","33","","","","","","","","","","","","","","","",""
"","ISI","","html-keyboard-response","220","273670","0.0-1.0-300.0","0","0","86881","","null","","","null","33","NaN","","","","","","","","","","","","","","",""
"","S2","","html-keyboard-response","221","273925","0.0-1.0-301.0","0","0","86881","","null","","","null","33","","NaN","","","","","","","","","","","","","",""
"","response","","html-keyboard-response","222","274594","0.0-1.0-302.0-0.0","0","0","86881","","667","","","68","33","","","1","33","training","adjacent","AB","1","2","M.jpg","L.jpg","0","1","0","",""
"","feedback","","html-keyboard-response","223","275597","0.0-1.0-303.0-0.0","0","0","86881","","null","","","null","33","","","","","","","","","","","","","","","",""
"","time_out","","html-keyboard-response","224","277603","0.0-1.0-305.0-0.0","0","0","86881","","null","","","null","33","","","","","","","","","","","","","","","",""
"","ITI","","html-keyboard-response","225","278610","0.0-1.0-306.0","0","0","86881","","null","","","null","33","","","","","","","","","","","","","","","NaN",""
"","S1","","html-keyboard-response","226","278865","0.0-1.0-308.0","0","0","86881","","null","","","null","34","","","","","","","","","","","","","","","",""
"","ISI","","html-keyboard-response","227","279367","0.0-1.0-309.0","0","0","86881","","null","","","null","34","NaN","","","","","","","","","","","","","","",""
"","S2","","html-keyboard-response","228","279621","0.0-1.0-310.0","0","0","86881","","null","","","null","34","","NaN","","","","","","","","","","","","","",""
"","response","","html-keyboard-response","229","280481","0.0-1.0-311.0-0.0","0","0","86881","","857","","","75","34","","","1","34","training","adjacent","DE","4","5","N.jpg","O.jpg","1","1","1","",""
"","feedback","","html-keyboard-response","230","281487","0.0-1.0-312.0-0.0","0","0","86881","","null","","","null","34","","","","","","","","","","","","","","","",""
"","ITI","","html-keyboard-response","231","282493","0.0-1.0-315.0","0","0","86881","","null","","","null","34","","","","","","","","","","","","","","","NaN",""
"","S1","","html-keyboard-response","232","282749","0.0-1.0-317.0","0","0","86881","","null","","","null","35","","","","","","","","","","","","","","","",""
"","ISI","","html-keyboard-response","233","283255","0.0-1.0-318.0","0","0","86881","","null","","","null","35","NaN","","","","","","","","","","","","","","",""
"","S2","","html-keyboard-response","234","283509","0.0-1.0-319.0","0","0","86881","","null","","","null","35","","NaN","","","","","","","","","","","","","",""
"","response","","html-keyboard-response","235","284314","0.0-1.0-320.0-0.0","0","0","86881","","802","","","75","35","","","1","35","training","adjacent","DE","4","5","N.jpg","O.jpg","1","1","1","",""
"","feedback","","html-keyboard-response","236","285320","0.0-1.0-321.0-0.0","0","0","86881","","null","","","null","35","","","","","","","","","","","","","","","",""
"","ITI","","html-keyboard-response","237","286326","0.0-1.0-324.0","0","0","86881","","null","","","null","35","","","","","","","","","","","","","","","NaN",""
"","S1","","html-keyboard-response","238","286579","0.0-1.0-326.0","0","0","86881","","null","","","null","36","","","","","","","","","","","","","","","",""
"","ISI","","html-keyboard-response","239","287085","0.0-1.0-327.0","0","0","86881","","null","","","null","36","NaN","","","","","","","","","","","","","","",""
"","S2","","html-keyboard-response","240","287341","0.0-1.0-328.0","0","0","86881","","null","","","null","36","","NaN","","","","","","","","","","","","","",""
"","response","","html-keyboard-response","241","288082","0.0-1.0-329.0-0.0","0","0","86881","","740","","","75","36","","","1","36","training","adjacent","BC","2","3","L.jpg","P.jpg","1","1","1","",""
"","feedback","","html-keyboard-response","242","289088","0.0-1.0-330.0-0.0","0","0","86881","","null","","","null","36","","","","","","","","","","","","","","","",""
"","ITI","","html-keyboard-response","243","290093","0.0-1.0-333.0","0","0","86881","","null","","","null","36","","","","","","","","","","","","","","","NaN",""
"","S1","","html-keyboard-response","244","290350","0.0-1.0-335.0","0","0","86881","","null","","","null","37","","","","","","","","","","","","","","","",""
"","ISI","","html-keyboard-response","245","290853","0.0-1.0-336.0","0","0","86881","","null","","","null","37","NaN","","","","","","","","","","","","","","",""
"","S2","","html-keyboard-response","246","291110","0.0-1.0-337.0","0","0","86881","","null","","","null","37","","NaN","","","","","","","","","","","","","",""
"","response","","html-keyboard-response","247","291514","0.0-1.0-338.0-0.0","0","0","86881","","403","","","68","37","","","1","37","training","adjacent","GF","7","6","R.jpg","Q.jpg","0","0","1","",""
"","feedback","","html-keyboard-response","248","292518","0.0-1.0-339.0-0.0","0","0","86881","","null","","","null","37","","","","","","","","","","","","","","","",""
"","ITI","","html-keyboard-response","249","293524","0.0-1.0-342.0","0","0","86881","","null","","","null","37","","","","","","","","","","","","","","","NaN",""
"","S1","","html-keyboard-response","250","293778","0.0-1.0-344.0","0","0","86881","","null","","","null","38","","","","","","","","","","","","","","","",""
"","ISI","","html-keyboard-response","251","294283","0.0-1.0-345.0","0","0","86881","","null","","","null","38","NaN","","","","","","","","","","","","","","",""
"","S2","","html-keyboard-response","252","294538","0.0-1.0-346.0","0","0","86881","","null","","","null","38","","NaN","","","","","","","","","","","","","",""
"","response","","html-keyboard-response","253","295274","0.0-1.0-347.0-0.0","0","0","86881","","734","","","75","38","","","1","38","training","adjacent","FG","6","7","Q.jpg","R.jpg","1","1","1","",""
"","feedback","","html-keyboard-response","254","296280","0.0-1.0-348.0-0.0","0","0","86881","","null","","","null","38","","","","","","","","","","","","","","","",""
"","ITI","","html-keyboard-response","255","297287","0.0-1.0-351.0","0","0","86881","","null","","","null","38","","","","","","","","","","","","","","","NaN",""
"","S1","","html-keyboard-response","256","297545","0.0-1.0-353.0","0","0","86881","","null","","","null","39","","","","","","","","","","","","","","","",""
"","ISI","","html-keyboard-response","257","298050","0.0-1.0-354.0","0","0","86881","","null","","","null","39","NaN","","","","","","","","","","","","","","",""
"","S2","","html-keyboard-response","258","298306","0.0-1.0-355.0","0","0","86881","","null","","","null","39","","NaN","","","","","","","","","","","","","",""
"","response","","html-keyboard-response","259","299215","0.0-1.0-356.0-0.0","0","0","86881","","906","","","68","39","","","1","39","training","adjacent","DE","4","5","N.jpg","O.jpg","0","1","0","",""
"","feedback","","html-keyboard-response","260","300221","0.0-1.0-357.0-0.0","0","0","86881","","null","","","null","39","","","","","","","","","","","","","","","",""
"","time_out","","html-keyboard-response","261","302224","0.0-1.0-359.0-0.0","0","0","86881","","null","","","null","39","","","","","","","","","","","","","","","",""
"","ITI","","html-keyboard-response","262","303229","0.0-1.0-360.0","0","0","86881","","null","","","null","39","","","","","","","","","","","","","","","NaN",""
"","S1","","html-keyboard-response","263","303483","0.0-1.0-362.0","0","0","86881","","null","","","null","40","","","","","","","","","","","","","","","",""
"","ISI","","html-keyboard-response","264","303988","0.0-1.0-363.0","0","0","86881","","null","","","null","40","NaN","","","","","","","","","","","","","","",""
"","S2","","html-keyboard-response","265","304244","0.0-1.0-364.0","0","0","86881","","null","","","null","40","","NaN","","","","","","","","","","","","","",""
"","response","","html-keyboard-response","266","305418","0.0-1.0-365.0-0.0","0","0","86881","","1172","","","75","40","","","1","40","training","adjacent","FG","6","7","Q.jpg","R.jpg","1","1","1","",""
"","feedback","","html-keyboard-response","267","306421","0.0-1.0-366.0-0.0","0","0","86881","","null","","","null","40","","","","","","","","","","","","","","","",""
"","ITI","","html-keyboard-response","268","307427","0.0-1.0-369.0","0","0","86881","","null","","","null","40","","","","","","","","","","","","","","","NaN",""
"","S1","","html-keyboard-response","269","307680","0.0-1.0-371.0","0","0","86881","","null","","","null","41","","","","","","","","","","","","","","","",""
"","ISI","","html-keyboard-response","270","308187","0.0-1.0-372.0","0","0","86881","","null","","","null","41","NaN","","","","","","","","","","","","","","",""
"","S2","","html-keyboard-response","271","308441","0.0-1.0-373.0","0","0","86881","","null","","","null","41","","NaN","","","","","","","","","","","","","",""
"","response","","html-keyboard-response","272","309244","0.0-1.0-374.0-0.0","0","0","86881","","801","","","75","41","","","1","41","training","adjacent","CB","3","2","P.jpg","L.jpg","1","0","0","",""
"","feedback","","html-keyboard-response","273","310248","0.0-1.0-375.0-0.0","0","0","86881","","null","","","null","41","","","","","","","","","","","","","","","",""
"","time_out","","html-keyboard-response","274","312255","0.0-1.0-377.0-0.0","0","0","86881","","null","","","null","41","","","","","","","","","","","","","","","",""
"","ITI","","html-keyboard-response","275","313261","0.0-1.0-378.0","0","0","86881","","null","","","null","41","","","","","","","","","","","","","","","NaN",""
"","S1","","html-keyboard-response","276","313514","0.0-1.0-380.0","0","0","86881","","null","","","null","42","","","","","","","","","","","","","","","",""
"","ISI","","html-keyboard-response","277","314019","0.0-1.0-381.0","0","0","86881","","null","","","null","42","NaN","","","","","","","","","","","","","","",""
"","S2","","html-keyboard-response","278","314275","0.0-1.0-382.0","0","0","86881","","null","","","null","42","","NaN","","","","","","","","","","","","","",""
"","response","","html-keyboard-response","279","314968","0.0-1.0-383.0-0.0","0","0","86881","","690","","","68","42","","","1","42","training","adjacent","AB","1","2","M.jpg","L.jpg","0","1","0","",""
"","feedback","","html-keyboard-response","280","315976","0.0-1.0-384.0-0.0","0","0","86881","","null","","","null","42","","","","","","","","","","","","","","","",""
"","time_out","","html-keyboard-response","281","317981","0.0-1.0-386.0-0.0","0","0","86881","","null","","","null","42","","","","","","","","","","","","","","","",""
"","ITI","","html-keyboard-response","282","318988","0.0-1.0-387.0","0","0","86881","","null","","","null","42","","","","","","","","","","","","","","","NaN",""
"","S1","","html-keyboard-response","283","319243","0.0-1.0-389.0","0","0","86881","","null","","","null","43","","","","","","","","","","","","","","","",""
"","ISI","","html-keyboard-response","284","319749","0.0-1.0-390.0","0","0","86881","","null","","","null","43","NaN","","","","","","","","","","","","","","",""
"","S2","","html-keyboard-response","285","320004","0.0-1.0-391.0","0","0","86881","","null","","","null","43","","NaN","","","","","","","","","","","","","",""
"","response","","html-keyboard-response","286","321278","0.0-1.0-392.0-0.0","0","0","86881","","1272","","","68","43","","","1","43","training","adjacent","FE","6","5","Q.jpg","O.jpg","0","0","1","",""
"","feedback","","html-keyboard-response","287","322285","0.0-1.0-393.0-0.0","0","0","86881","","null","","","null","43","","","","","","","","","","","","","","","",""
"","ITI","","html-keyboard-response","288","323292","0.0-1.0-396.0","0","0","86881","","null","","","null","43","","","","","","","","","","","","","","","NaN",""
"","S1","","html-keyboard-response","289","323545","0.0-1.0-398.0","0","0","86881","","null","","","null","44","","","","","","","","","","","","","","","",""
"","ISI","","html-keyboard-response","290","324050","0.0-1.0-399.0","0","0","86881","","null","","","null","44","NaN","","","","","","","","","","","","","","",""
"","S2","","html-keyboard-response","291","324305","0.0-1.0-400.0","0","0","86881","","null","","","null","44","","NaN","","","","","","","","","","","","","",""
"","response","","html-keyboard-response","292","325333","0.0-1.0-401.0-0.0","0","0","86881","","1025","","","68","44","","","1","44","training","adjacent","EF","5","6","O.jpg","Q.jpg","0","1","0","",""
"","feedback","","html-keyboard-response","293","326337","0.0-1.0-402.0-0.0","0","0","86881","","null","","","null","44","","","","","","","","","","","","","","","",""
"","time_out","","html-keyboard-response","294","328340","0.0-1.0-404.0-0.0","0","0","86881","","null","","","null","44","","","","","","","","","","","","","","","",""
"","ITI","","html-keyboard-response","295","329347","0.0-1.0-405.0","0","0","86881","","null","","","null","44","","","","","","","","","","","","","","","NaN",""
"","S1","","html-keyboard-response","296","329600","0.0-1.0-407.0","0","0","86881","","null","","","null","45","","","","","","","","","","","","","","","",""
"","ISI","","html-keyboard-response","297","330104","0.0-1.0-408.0","0","0","86881","","null","","","null","45","NaN","","","","","","","","","","","","","","",""
"","S2","","html-keyboard-response","298","330360","0.0-1.0-409.0","0","0","86881","","null","","","null","45","","NaN","","","","","","","","","","","","","",""
"","response","","html-keyboard-response","299","331189","0.0-1.0-410.0-0.0","0","0","86881","","826","","","75","45","","","1","45","training","adjacent","DC","4","3","N.jpg","P.jpg","1","0","0","",""
"","feedback","","html-keyboard-response","300","332194","0.0-1.0-411.0-0.0","0","0","86881","","null","","","null","45","","","","","","","","","","","","","","","",""
"","time_out","","html-keyboard-response","301","334197","0.0-1.0-413.0-0.0","0","0","86881","","null","","","null","45","","","","","","","","","","","","","","","",""
"","ITI","","html-keyboard-response","302","335204","0.0-1.0-414.0","0","0","86881","","null","","","null","45","","","","","","","","","","","","","","","NaN",""
"","S1","","html-keyboard-response","303","335457","0.0-1.0-416.0","0","0","86881","","null","","","null","46","","","","","","","","","","","","","","","",""
"","ISI","","html-keyboard-response","304","335961","0.0-1.0-417.0","0","0","86881","","null","","","null","46","NaN","","","","","","","","","","","","","","",""
"","S2","","html-keyboard-response","305","336217","0.0-1.0-418.0","0","0","86881","","null","","","null","46","","NaN","","","","","","","","","","","","","",""
"","response","","html-keyboard-response","306","337081","0.0-1.0-419.0-0.0","0","0","86881","","862","","","75","46","","","1","46","training","adjacent","FG","6","7","Q.jpg","R.jpg","1","1","1","",""
"","feedback","","html-keyboard-response","307","338089","0.0-1.0-420.0-0.0","0","0","86881","","null","","","null","46","","","","","","","","","","","","","","","",""
"","ITI","","html-keyboard-response","308","339096","0.0-1.0-423.0","0","0","86881","","null","","","null","46","","","","","","","","","","","","","","","NaN",""
"","S1","","html-keyboard-response","309","339351","0.0-1.0-425.0","0","0","86881","","null","","","null","47","","","","","","","","","","","","","","","",""
"","ISI","","html-keyboard-response","310","339856","0.0-1.0-426.0","0","0","86881","","null","","","null","47","NaN","","","","","","","","","","","","","","",""
"","S2","","html-keyboard-response","311","340114","0.0-1.0-427.0","0","0","86881","","null","","","null","47","","NaN","","","","","","","","","","","","","",""
"","response","","html-keyboard-response","312","341009","0.0-1.0-428.0-0.0","0","0","86881","","892","","","68","47","","","1","47","training","adjacent","ED","5","4","O.jpg","N.jpg","0","0","1","",""
"","feedback","","html-keyboard-response","313","342016","0.0-1.0-429.0-0.0","0","0","86881","","null","","","null","47","","","","","","","","","","","","","","","",""
"","ITI","","html-keyboard-response","314","343022","0.0-1.0-432.0","0","0","86881","","null","","","null","47","","","","","","","","","","","","","","","NaN",""
"","block_over","","html-keyboard-response","315","346642","0.0-1.0-433.0-0.0","0","0","86881","","3618","","","32","47","","","","","","","","","","","","","","","",""
"","S1","","html-keyboard-response","316","346898","0.0-1.0-434.0","0","0","86881","","null","","","null","48","","","","","","","","","","","","","","","",""
"","ISI","","html-keyboard-response","317","347405","0.0-1.0-435.0","0","0","86881","","null","","","null","48","NaN","","","","","","","","","","","","","","",""
"","S2","","html-keyboard-response","318","347658","0.0-1.0-436.0","0","0","86881","","null","","","null","48","","NaN","","","","","","","","","","","","","",""
"","response","","html-keyboard-response","319","348250","0.0-1.0-437.0-0.0","0","0","86881","","590","","","75","48","","","2","48","training","adjacent","CD","3","4","P.jpg","N.jpg","1","1","1","",""
"","feedback","","html-keyboard-response","320","349255","0.0-1.0-438.0-0.0","0","0","86881","","null","","","null","48","","","","","","","","","","","","","","","",""
"","ITI","","html-keyboard-response","321","350260","0.0-1.0-441.0","0","0","86881","","null","","","null","48","","","","","","","","","","","","","","","NaN",""
"","S1","","html-keyboard-response","322","350514","0.0-1.0-443.0","0","0","86881","","null","","","null","49","","","","","","","","","","","","","","","",""
"","ISI","","html-keyboard-response","323","351019","0.0-1.0-444.0","0","0","86881","","null","","","null","49","NaN","","","","","","","","","","","","","","",""
"","S2","","html-keyboard-response","324","351275","0.0-1.0-445.0","0","0","86881","","null","","","null","49","","NaN","","","","","","","","","","","","","",""
"","response","","html-keyboard-response","325","351858","0.0-1.0-446.0-0.0","0","0","86881","","582","","","75","49","","","2","49","training","adjacent","CB","3","2","P.jpg","L.jpg","1","0","0","",""
"","feedback","","html-keyboard-response","326","352865","0.0-1.0-447.0-0.0","0","0","86881","","null","","","null","49","","","","","","","","","","","","","","","",""
"","time_out","","html-keyboard-response","327","354868","0.0-1.0-449.0-0.0","0","0","86881","","null","","","null","49","","","","","","","","","","","","","","","",""
"","ITI","","html-keyboard-response","328","355874","0.0-1.0-450.0","0","0","86881","","null","","","null","49","","","","","","","","","","","","","","","NaN",""
"","S1","","html-keyboard-response","329","356128","0.0-1.0-452.0","0","0","86881","","null","","","null","50","","","","","","","","","","","","","","","",""
"","ISI","","html-keyboard-response","330","356633","0.0-1.0-453.0","0","0","86881","","null","","","null","50","NaN","","","","","","","","","","","","","","",""
"","S2","","html-keyboard-response","331","356888","0.0-1.0-454.0","0","0","86881","","null","","","null","50","","NaN","","","","","","","","","","","","","",""
"","response","","html-keyboard-response","332","357661","0.0-1.0-455.0-0.0","0","0","86881","","771","","","68","50","","","2","50","training","adjacent","AB","1","2","M.jpg","L.jpg","0","1","0","",""
"","feedback","","html-keyboard-response","333","358667","0.0-1.0-456.0-0.0","0","0","86881","","null","","","null","50","","","","","","","","","","","","","","","",""
"","time_out","","html-keyboard-response","334","360673","0.0-1.0-458.0-0.0","0","0","86881","","null","","","null","50","","","","","","","","","","","","","","","",""
"","ITI","","html-keyboard-response","335","361680","0.0-1.0-459.0","0","0","86881","","null","","","null","50","","","","","","","","","","","","","","","NaN",""
"","S1","","html-keyboard-response","336","361934","0.0-1.0-461.0","0","0","86881","","null","","","null","51","","","","","","","","","","","","","","","",""
"","ISI","","html-keyboard-response","337","362438","0.0-1.0-462.0","0","0","86881","","null","","","null","51","NaN","","","","","","","","","","","","","","",""
"","S2","","html-keyboard-response","338","362693","0.0-1.0-463.0","0","0","86881","","null","","","null","51","","NaN","","","","","","","","","","","","","",""
"","response","","html-keyboard-response","339","363465","0.0-1.0-464.0-0.0","0","0","86881","","769","","","75","51","","","2","51","training","adjacent","DC","4","3","N.jpg","P.jpg","1","0","0","",""
"","feedback","","html-keyboard-response","340","364469","0.0-1.0-465.0-0.0","0","0","86881","","null","","","null","51","","","","","","","","","","","","","","","",""
"","time_out","","html-keyboard-response","341","366477","0.0-1.0-467.0-0.0","0","0","86881","","null","","","null","51","","","","","","","","","","","","","","","",""
"","ITI","","html-keyboard-response","342","367483","0.0-1.0-468.0","0","0","86881","","null","","","null","51","","","","","","","","","","","","","","","NaN",""
"","S1","","html-keyboard-response","343","367737","0.0-1.0-470.0","0","0","86881","","null","","","null","52","","","","","","","","","","","","","","","",""
"","ISI","","html-keyboard-response","344","368242","0.0-1.0-471.0","0","0","86881","","null","","","null","52","NaN","","","","","","","","","","","","","","",""
"","S2","","html-keyboard-response","345","368498","0.0-1.0-472.0","0","0","86881","","null","","","null","52","","NaN","","","","","","","","","","","","","",""
"","response","","html-keyboard-response","346","369378","0.0-1.0-473.0-0.0","0","0","86881","","878","","","68","52","","","2","52","training","adjacent","GF","7","6","R.jpg","Q.jpg","0","0","1","",""
"","feedback","","html-keyboard-response","347","370384","0.0-1.0-474.0-0.0","0","0","86881","","null","","","null","52","","","","","","","","","","","","","","","",""
"","ITI","","html-keyboard-response","348","371392","0.0-1.0-477.0","0","0","86881","","null","","","null","52","","","","","","","","","","","","","","","NaN",""
"","S1","","html-keyboard-response","349","371649","0.0-1.0-479.0","0","0","86881","","null","","","null","53","","","","","","","","","","","","","","","",""
"","ISI","","html-keyboard-response","350","372155","0.0-1.0-480.0","0","0","86881","","null","","","null","53","NaN","","","","","","","","","","","","","","",""
"","S2","","html-keyboard-response","351","372410","0.0-1.0-481.0","0","0","86881","","null","","","null","53","","NaN","","","","","","","","","","","","","",""
"","response","","html-keyboard-response","352","373154","0.0-1.0-482.0-0.0","0","0","86881","","742","","","68","53","","","2","53","training","adjacent","DC","4","3","N.jpg","P.jpg","0","0","1","",""
"","feedback","","html-keyboard-response","353","374157","0.0-1.0-483.0-0.0","0","0","86881","","null","","","null","53","","","","","","","","","","","","","","","",""
"","ITI","","html-keyboard-response","354","375163","0.0-1.0-486.0","0","0","86881","","null","","","null","53","","","","","","","","","","","","","","","NaN",""
"","S1","","html-keyboard-response","355","375420","0.0-1.0-488.0","0","0","86881","","null","","","null","54","","","","","","","","","","","","","","","",""
"","ISI","","html-keyboard-response","356","375924","0.0-1.0-489.0","0","0","86881","","null","","","null","54","NaN","","","","","","","","","","","","","","",""
"","S2","","html-keyboard-response","357","376182","0.0-1.0-490.0","0","0","86881","","null","","","null","54","","NaN","","","","","","","","","","","","","",""
"","response","","html-keyboard-response","358","376906","0.0-1.0-491.0-0.0","0","0","86881","","722","","","68","54","","","2","54","training","adjacent","EF","5","6","O.jpg","Q.jpg","0","1","0","",""
"","feedback","","html-keyboard-response","359","377913","0.0-1.0-492.0-0.0","0","0","86881","","null","","","null","54","","","","","","","","","","","","","","","",""
"","time_out","","html-keyboard-response","360","379916","0.0-1.0-494.0-0.0","0","0","86881","","null","","","null","54","","","","","","","","","","","","","","","",""
"","ITI","","html-keyboard-response","361","380923","0.0-1.0-495.0","0","0","86881","","null","","","null","54","","","","","","","","","","","","","","","NaN",""
"","S1","","html-keyboard-response","362","381177","0.0-1.0-497.0","0","0","86881","","null","","","null","55","","","","","","","","","","","","","","","",""
"","ISI","","html-keyboard-response","363","381683","0.0-1.0-498.0","0","0","86881","","null","","","null","55","NaN","","","","","","","","","","","","","","",""
"","S2","","html-keyboard-response","364","381940","0.0-1.0-499.0","0","0","86881","","null","","","null","55","","NaN","","","","","","","","","","","","","",""
"","response","","html-keyboard-response","365","382699","0.0-1.0-500.0-0.0","0","0","86881","","758","","","75","55","","","2","55","training","adjacent","DE","4","5","N.jpg","O.jpg","1","1","1","",""
"","feedback","","html-keyboard-response","366","383704","0.0-1.0-501.0-0.0","0","0","86881","","null","","","null","55","","","","","","","","","","","","","","","",""
"","ITI","","html-keyboard-response","367","384711","0.0-1.0-504.0","0","0","86881","","null","","","null","55","","","","","","","","","","","","","","","NaN",""
"","S1","","html-keyboard-response","368","384966","0.0-1.0-506.0","0","0","86881","","null","","","null","56","","","","","","","","","","","","","","","",""
"","ISI","","html-keyboard-response","369","385472","0.0-1.0-507.0","0","0","86881","","null","","","null","56","NaN","","","","","","","","","","","","","","",""
"","S2","","html-keyboard-response","370","385728","0.0-1.0-508.0","0","0","86881","","null","","","null","56","","NaN","","","","","","","","","","","","","",""
"","response","","html-keyboard-response","371","386787","0.0-1.0-509.0-0.0","0","0","86881","","1057","","","75","56","","","2","56","training","adjacent","GF","7","6","R.jpg","Q.jpg","1","0","0","",""
"","feedback","","html-keyboard-response","372","387794","0.0-1.0-510.0-0.0","0","0","86881","","null","","","null","56","","","","","","","","","","","","","","","",""
"","time_out","","html-keyboard-response","373","389801","0.0-1.0-512.0-0.0","0","0","86881","","null","","","null","56","","","","","","","","","","","","","","","",""
"","ITI","","html-keyboard-response","374","390808","0.0-1.0-513.0","0","0","86881","","null","","","null","56","","","","","","","","","","","","","","","NaN",""
"","S1","","html-keyboard-response","375","391061","0.0-1.0-515.0","0","0","86881","","null","","","null","57","","","","","","","","","","","","","","","",""
"","ISI","","html-keyboard-response","376","391566","0.0-1.0-516.0","0","0","86881","","null","","","null","57","NaN","","","","","","","","","","","","","","",""
"","S2","","html-keyboard-response","377","391821","0.0-1.0-517.0","0","0","86881","","null","","","null","57","","NaN","","","","","","","","","","","","","",""
"","response","","html-keyboard-response","378","392747","0.0-1.0-518.0-0.0","0","0","86881","","924","","","75","57","","","2","57","training","adjacent","CB","3","2","P.jpg","L.jpg","1","0","0","",""
"","feedback","","html-keyboard-response","379","393754","0.0-1.0-519.0-0.0","0","0","86881","","null","","","null","57","","","","","","","","","","","","","","","",""
"","time_out","","html-keyboard-response","380","395758","0.0-1.0-521.0-0.0","0","0","86881","","null","","","null","57","","","","","","","","","","","","","","","",""
"","ITI","","html-keyboard-response","381","396765","0.0-1.0-522.0","0","0","86881","","null","","","null","57","","","","","","","","","","","","","","","NaN",""
"","S1","","html-keyboard-response","382","397022","0.0-1.0-524.0","0","0","86881","","null","","","null","58","","","","","","","","","","","","","","","",""
"","ISI","","html-keyboard-response","383","397525","0.0-1.0-525.0","0","0","86881","","null","","","null","58","NaN","","","","","","","","","","","","","","",""
"","S2","","html-keyboard-response","384","397780","0.0-1.0-526.0","0","0","86881","","null","","","null","58","","NaN","","","","","","","","","","","","","",""
"","response","","html-keyboard-response","385","398507","0.0-1.0-527.0-0.0","0","0","86881","","725","","","68","58","","","2","58","training","adjacent","CD","3","4","P.jpg","N.jpg","0","1","0","",""
"","feedback","","html-keyboard-response","386","399512","0.0-1.0-528.0-0.0","0","0","86881","","null","","","null","58","","","","","","","","","","","","","","","",""
"","time_out","","html-keyboard-response","387","401516","0.0-1.0-530.0-0.0","0","0","86881","","null","","","null","58","","","","","","","","","","","","","","","",""
"","ITI","","html-keyboard-response","388","402522","0.0-1.0-531.0","0","0","86881","","null","","","null","58","","","","","","","","","","","","","","","NaN",""
"","S1","","html-keyboard-response","389","402775","0.0-1.0-533.0","0","0","86881","","null","","","null","59","","","","","","","","","","","","","","","",""
"","ISI","","html-keyboard-response","390","403280","0.0-1.0-534.0","0","0","86881","","null","","","null","59","NaN","","","","","","","","","","","","","","",""
"","S2","","html-keyboard-response","391","403534","0.0-1.0-535.0","0","0","86881","","null","","","null","59","","NaN","","","","","","","","","","","","","",""
"","response","","html-keyboard-response","392","404128","0.0-1.0-536.0-0.0","0","0","86881","","591","","","75","59","","","2","59","training","adjacent","DC","4","3","N.jpg","P.jpg","1","0","0","",""
"","feedback","","html-keyboard-response","393","405133","0.0-1.0-537.0-0.0","0","0","86881","","null","","","null","59","","","","","","","","","","","","","","","",""
"","time_out","","html-keyboard-response","394","407140","0.0-1.0-539.0-0.0","0","0","86881","","null","","","null","59","","","","","","","","","","","","","","","",""
"","ITI","","html-keyboard-response","395","408145","0.0-1.0-540.0","0","0","86881","","null","","","null","59","","","","","","","","","","","","","","","NaN",""
"","S1","","html-keyboard-response","396","408400","0.0-1.0-542.0","0","0","86881","","null","","","null","60","","","","","","","","","","","","","","","",""
"","ISI","","html-keyboard-response","397","408905","0.0-1.0-543.0","0","0","86881","","null","","","null","60","NaN","","","","","","","","","","","","","","",""
"","S2","","html-keyboard-response","398","409161","0.0-1.0-544.0","0","0","86881","","null","","","null","60","","NaN","","","","","","","","","","","","","",""
"","response","","html-keyboard-response","399","409819","0.0-1.0-545.0-0.0","0","0","86881","","656","","","68","60","","","2","60","training","adjacent","GF","7","6","R.jpg","Q.jpg","0","0","1","",""
"","feedback","","html-keyboard-response","400","410826","0.0-1.0-546.0-0.0","0","0","86881","","null","","","null","60","","","","","","","","","","","","","","","",""
"","ITI","","html-keyboard-response","401","411832","0.0-1.0-549.0","0","0","86881","","null","","","null","60","","","","","","","","","","","","","","","NaN",""
"","S1","","html-keyboard-response","402","412086","0.0-1.0-551.0","0","0","86881","","null","","","null","61","","","","","","","","","","","","","","","",""
"","ISI","","html-keyboard-response","403","412593","0.0-1.0-552.0","0","0","86881","","null","","","null","61","NaN","","","","","","","","","","","","","","",""
"","S2","","html-keyboard-response","404","412847","0.0-1.0-553.0","0","0","86881","","null","","","null","61","","NaN","","","","","","","","","","","","","",""
"","response","","html-keyboard-response","405","413443","0.0-1.0-554.0-0.0","0","0","86881","","594","","","68","61","","","2","61","training","adjacent","BC","2","3","L.jpg","P.jpg","0","1","0","",""
"","feedback","","html-keyboard-response","406","414449","0.0-1.0-555.0-0.0","0","0","86881","","null","","","null","61","","","","","","","","","","","","","","","",""
"","time_out","","html-keyboard-response","407","416451","0.0-1.0-557.0-0.0","0","0","86881","","null","","","null","61","","","","","","","","","","","","","","","",""
"","ITI","","html-keyboard-response","408","417459","0.0-1.0-558.0","0","0","86881","","null","","","null","61","","","","","","","","","","","","","","","NaN",""
"","S1","","html-keyboard-response","409","417716","0.0-1.0-560.0","0","0","86881","","null","","","null","62","","","","","","","","","","","","","","","",""
"","ISI","","html-keyboard-response","410","418222","0.0-1.0-561.0","0","0","86881","","null","","","null","62","NaN","","","","","","","","","","","","","","",""
"","S2","","html-keyboard-response","411","418477","0.0-1.0-562.0","0","0","86881","","null","","","null","62","","NaN","","","","","","","","","","","","","",""
"","response","","html-keyboard-response","412","419400","0.0-1.0-563.0-0.0","0","0","86881","","920","","","75","62","","","2","62","training","adjacent","GF","7","6","R.jpg","Q.jpg","1","0","0","",""
"","feedback","","html-keyboard-response","413","420406","0.0-1.0-564.0-0.0","0","0","86881","","null","","","null","62","","","","","","","","","","","","","","","",""
"","time_out","","html-keyboard-response","414","422413","0.0-1.0-566.0-0.0","0","0","86881","","null","","","null","62","","","","","","","","","","","","","","","",""
"","ITI","","html-keyboard-response","415","423419","0.0-1.0-567.0","0","0","86881","","null","","","null","62","","","","","","","","","","","","","","","NaN",""
"","S1","","html-keyboard-response","416","423673","0.0-1.0-569.0","0","0","86881","","null","","","null","63","","","","","","","","","","","","","","","",""
"","ISI","","html-keyboard-response","417","424177","0.0-1.0-570.0","0","0","86881","","null","","","null","63","NaN","","","","","","","","","","","","","","",""
"","S2","","html-keyboard-response","418","424433","0.0-1.0-571.0","0","0","86881","","null","","","null","63","","NaN","","","","","","","","","","","","","",""
"","response","","html-keyboard-response","419","425230","0.0-1.0-572.0-0.0","0","0","86881","","794","","","75","63","","","2","63","training","adjacent","FG","6","7","Q.jpg","R.jpg","1","1","1","",""
"","feedback","","html-keyboard-response","420","426238","0.0-1.0-573.0-0.0","0","0","86881","","null","","","null","63","","","","","","","","","","","","","","","",""
"","ITI","","html-keyboard-response","421","427243","0.0-1.0-576.0","0","0","86881","","null","","","null","63","","","","","","","","","","","","","","","NaN",""
"","S1","","html-keyboard-response","422","427498","0.0-1.0-578.0","0","0","86881","","null","","","null","64","","","","","","","","","","","","","","","",""
"","ISI","","html-keyboard-response","423","428005","0.0-1.0-579.0","0","0","86881","","null","","","null","64","NaN","","","","","","","","","","","","","","",""
"","S2","","html-keyboard-response","424","428258","0.0-1.0-580.0","0","0","86881","","null","","","null","64","","NaN","","","","","","","","","","","","","",""
"","response","","html-keyboard-response","425","428966","0.0-1.0-581.0-0.0","0","0","86881","","705","","","75","64","","","2","64","training","adjacent","BA","2","1","L.jpg","M.jpg","1","0","0","",""
"","feedback","","html-keyboard-response","426","429971","0.0-1.0-582.0-0.0","0","0","86881","","null","","","null","64","","","","","","","","","","","","","","","",""
"","time_out","","html-keyboard-response","427","431978","0.0-1.0-584.0-0.0","0","0","86881","","null","","","null","64","","","","","","","","","","","","","","","",""
"","ITI","","html-keyboard-response","428","432984","0.0-1.0-585.0","0","0","86881","","null","","","null","64","","","","","","","","","","","","","","","NaN",""
"","S1","","html-keyboard-response","429","433238","0.0-1.0-587.0","0","0","86881","","null","","","null","65","","","","","","","","","","","","","","","",""
"","ISI","","html-keyboard-response","430","433744","0.0-1.0-588.0","0","0","86881","","null","","","null","65","NaN","","","","","","","","","","","","","","",""
"","S2","","html-keyboard-response","431","434001","0.0-1.0-589.0","0","0","86881","","null","","","null","65","","NaN","","","","","","","","","","","","","",""
"","response","","html-keyboard-response","432","434842","0.0-1.0-590.0-0.0","0","0","86881","","838","","","68","65","","","2","65","training","adjacent","AB","1","2","M.jpg","L.jpg","0","1","0","",""
"","feedback","","html-keyboard-response","433","435845","0.0-1.0-591.0-0.0","0","0","86881","","null","","","null","65","","","","","","","","","","","","","","","",""
"","time_out","","html-keyboard-response","434","437848","0.0-1.0-593.0-0.0","0","0","86881","","null","","","null","65","","","","","","","","","","","","","","","",""
"","ITI","","html-keyboard-response","435","438855","0.0-1.0-594.0","0","0","86881","","null","","","null","65","","","","","","","","","","","","","","","NaN",""
"","S1","","html-keyboard-response","436","439109","0.0-1.0-596.0","0","0","86881","","null","","","null","66","","","","","","","","","","","","","","","",""
"","ISI","","html-keyboard-response","437","439613","0.0-1.0-597.0","0","0","86881","","null","","","null","66","NaN","","","","","","","","","","","","","","",""
"","S2","","html-keyboard-response","438","439868","0.0-1.0-598.0","0","0","86881","","null","","","null","66","","NaN","","","","","","","","","","","","","",""
"","response","","html-keyboard-response","439","440764","0.0-1.0-599.0-0.0","0","0","86881","","894","","","68","66","","","2","66","training","adjacent","FE","6","5","Q.jpg","O.jpg","0","0","1","",""
"","feedback","","html-keyboard-response","440","441772","0.0-1.0-600.0-0.0","0","0","86881","","null","","","null","66","","","","","","","","","","","","","","","",""
"","ITI","","html-keyboard-response","441","442778","0.0-1.0-603.0","0","0","86881","","null","","","null","66","","","","","","","","","","","","","","","NaN",""
"","S1","","html-keyboard-response","442","443034","0.0-1.0-605.0","0","0","86881","","null","","","null","67","","","","","","","","","","","","","","","",""
"","ISI","","html-keyboard-response","443","443537","0.0-1.0-606.0","0","0","86881","","null","","","null","67","NaN","","","","","","","","","","","","","","",""
"","S2","","html-keyboard-response","444","443792","0.0-1.0-607.0","0","0","86881","","null","","","null","67","","NaN","","","","","","","","","","","","","",""
"","response","","html-keyboard-response","445","444484","0.0-1.0-608.0-0.0","0","0","86881","","690","","","68","67","","","2","67","training","adjacent","FE","6","5","Q.jpg","O.jpg","0","0","1","",""
"","feedback","","html-keyboard-response","446","445487","0.0-1.0-609.0-0.0","0","0","86881","","null","","","null","67","","","","","","","","","","","","","","","",""
"","ITI","","html-keyboard-response","447","446494","0.0-1.0-612.0","0","0","86881","","null","","","null","67","","","","","","","","","","","","","","","NaN",""
"","S1","","html-keyboard-response","448","446747","0.0-1.0-614.0","0","0","86881","","null","","","null","68","","","","","","","","","","","","","","","",""
"","ISI","","html-keyboard-response","449","447252","0.0-1.0-615.0","0","0","86881","","null","","","null","68","NaN","","","","","","","","","","","","","","",""
"","S2","","html-keyboard-response","450","447507","0.0-1.0-616.0","0","0","86881","","null","","","null","68","","NaN","","","","","","","","","","","","","",""
"","response","","html-keyboard-response","451","448710","0.0-1.0-617.0-0.0","0","0","86881","","1200","","","75","68","","","2","68","training","adjacent","FG","6","7","Q.jpg","R.jpg","1","1","1","",""
"","feedback","","html-keyboard-response","452","449717","0.0-1.0-618.0-0.0","0","0","86881","","null","","","null","68","","","","","","","","","","","","","","","",""
"","ITI","","html-keyboard-response","453","450723","0.0-1.0-621.0","0","0","86881","","null","","","null","68","","","","","","","","","","","","","","","NaN",""
"","S1","","html-keyboard-response","454","450978","0.0-1.0-623.0","0","0","86881","","null","","","null","69","","","","","","","","","","","","","","","",""
"","ISI","","html-keyboard-response","455","451483","0.0-1.0-624.0","0","0","86881","","null","","","null","69","NaN","","","","","","","","","","","","","","",""
"","S2","","html-keyboard-response","456","451739","0.0-1.0-625.0","0","0","86881","","null","","","null","69","","NaN","","","","","","","","","","","","","",""
"","response","","html-keyboard-response","457","452494","0.0-1.0-626.0-0.0","0","0","86881","","753","","","68","69","","","2","69","training","adjacent","FE","6","5","Q.jpg","O.jpg","0","0","1","",""
"","feedback","","html-keyboard-response","458","453497","0.0-1.0-627.0-0.0","0","0","86881","","null","","","null","69","","","","","","","","","","","","","","","",""
"","ITI","","html-keyboard-response","459","454503","0.0-1.0-630.0","0","0","86881","","null","","","null","69","","","","","","","","","","","","","","","NaN",""
"","S1","","html-keyboard-response","460","454761","0.0-1.0-632.0","0","0","86881","","null","","","null","70","","","","","","","","","","","","","","","",""
"","ISI","","html-keyboard-response","461","455268","0.0-1.0-633.0","0","0","86881","","null","","","null","70","NaN","","","","","","","","","","","","","","",""
"","S2","","html-keyboard-response","462","455524","0.0-1.0-634.0","0","0","86881","","null","","","null","70","","NaN","","","","","","","","","","","","","",""
"","response","","html-keyboard-response","463","456627","0.0-1.0-635.0-0.0","0","0","86881","","1100","","","68","70","","","2","70","training","adjacent","BC","2","3","L.jpg","P.jpg","0","1","0","",""
"","feedback","","html-keyboard-response","464","457631","0.0-1.0-636.0-0.0","0","0","86881","","null","","","null","70","","","","","","","","","","","","","","","",""
"","time_out","","html-keyboard-response","465","459638","0.0-1.0-638.0-0.0","0","0","86881","","null","","","null","70","","","","","","","","","","","","","","","",""
"","ITI","","html-keyboard-response","466","460644","0.0-1.0-639.0","0","0","86881","","null","","","null","70","","","","","","","","","","","","","","","NaN",""
"","S1","","html-keyboard-response","467","460899","0.0-1.0-641.0","0","0","86881","","null","","","null","71","","","","","","","","","","","","","","","",""
"","ISI","","html-keyboard-response","468","461404","0.0-1.0-642.0","0","0","86881","","null","","","null","71","NaN","","","","","","","","","","","","","","",""
"","S2","","html-keyboard-response","469","461659","0.0-1.0-643.0","0","0","86881","","null","","","null","71","","NaN","","","","","","","","","","","","","",""
"","response","","html-keyboard-response","470","462326","0.0-1.0-644.0-0.0","0","0","86881","","665","","","75","71","","","2","71","training","adjacent","FG","6","7","Q.jpg","R.jpg","1","1","1","",""
"","feedback","","html-keyboard-response","471","463331","0.0-1.0-645.0-0.0","0","0","86881","","null","","","null","71","","","","","","","","","","","","","","","",""
"","ITI","","html-keyboard-response","472","464337","0.0-1.0-648.0","0","0","86881","","null","","","null","71","","","","","","","","","","","","","","","NaN",""
"","S1","","html-keyboard-response","473","464590","0.0-1.0-650.0","0","0","86881","","null","","","null","72","","","","","","","","","","","","","","","",""
"","ISI","","html-keyboard-response","474","465096","0.0-1.0-651.0","0","0","86881","","null","","","null","72","NaN","","","","","","","","","","","","","","",""
"","S2","","html-keyboard-response","475","465351","0.0-1.0-652.0","0","0","86881","","null","","","null","72","","NaN","","","","","","","","","","","","","",""
"","response","","html-keyboard-response","476","466214","0.0-1.0-653.0-0.0","0","0","86881","","860","","","68","72","","","2","72","training","adjacent","DE","4","5","N.jpg","O.jpg","0","1","0","",""
"","feedback","","html-keyboard-response","477","467220","0.0-1.0-654.0-0.0","0","0","86881","","null","","","null","72","","","","","","","","","","","","","","","",""
"","time_out","","html-keyboard-response","478","469223","0.0-1.0-656.0-0.0","0","0","86881","","null","","","null","72","","","","","","","","","","","","","","","",""
"","ITI","","html-keyboard-response","479","470228","0.0-1.0-657.0","0","0","86881","","null","","","null","72","","","","","","","","","","","","","","","NaN",""
"","S1","","html-keyboard-response","480","470483","0.0-1.0-659.0","0","0","86881","","null","","","null","73","","","","","","","","","","","","","","","",""
"","ISI","","html-keyboard-response","481","470988","0.0-1.0-660.0","0","0","86881","","null","","","null","73","NaN","","","","","","","","","","","","","","",""
"","S2","","html-keyboard-response","482","471245","0.0-1.0-661.0","0","0","86881","","null","","","null","73","","NaN","","","","","","","","","","","","","",""
"","response","","html-keyboard-response","483","472005","0.0-1.0-662.0-0.0","0","0","86881","","758","","","75","73","","","2","73","training","adjacent","EF","5","6","O.jpg","Q.jpg","1","1","1","",""
"","feedback","","html-keyboard-response","484","473010","0.0-1.0-663.0-0.0","0","0","86881","","null","","","null","73","","","","","","","","","","","","","","","",""
"","ITI","","html-keyboard-response","485","474016","0.0-1.0-666.0","0","0","86881","","null","","","null","73","","","","","","","","","","","","","","","NaN",""
"","S1","","html-keyboard-response","486","474273","0.0-1.0-668.0","0","0","86881","","null","","","null","74","","","","","","","","","","","","","","","",""
"","ISI","","html-keyboard-response","487","474778","0.0-1.0-669.0","0","0","86881","","null","","","null","74","NaN","","","","","","","","","","","","","","",""
"","S2","","html-keyboard-response","488","475034","0.0-1.0-670.0","0","0","86881","","null","","","null","74","","NaN","","","","","","","","","","","","","",""
"","response","","html-keyboard-response","489","475638","0.0-1.0-671.0-0.0","0","0","86881","","601","","","75","74","","","2","74","training","adjacent","BA","2","1","L.jpg","M.jpg","1","0","0","",""
"","feedback","","html-keyboard-response","490","476642","0.0-1.0-672.0-0.0","0","0","86881","","null","","","null","74","","","","","","","","","","","","","","","",""
"","time_out","","html-keyboard-response","491","478647","0.0-1.0-674.0-0.0","0","0","86881","","null","","","null","74","","","","","","","","","","","","","","","",""
"","ITI","","html-keyboard-response","492","479652","0.0-1.0-675.0","0","0","86881","","null","","","null","74","","","","","","","","","","","","","","","NaN",""
"","S1","","html-keyboard-response","493","479910","0.0-1.0-677.0","0","0","86881","","null","","","null","75","","","","","","","","","","","","","","","",""
"","ISI","","html-keyboard-response","494","480415","0.0-1.0-678.0","0","0","86881","","null","","","null","75","NaN","","","","","","","","","","","","","","",""
"","S2","","html-keyboard-response","495","480670","0.0-1.0-679.0","0","0","86881","","null","","","null","75","","NaN","","","","","","","","","","","","","",""
"","response","","html-keyboard-response","496","481507","0.0-1.0-680.0-0.0","0","0","86881","","835","","","75","75","","","2","75","training","adjacent","ED","5","4","O.jpg","N.jpg","1","0","0","",""
"","feedback","","html-keyboard-response","497","482510","0.0-1.0-681.0-0.0","0","0","86881","","null","","","null","75","","","","","","","","","","","","","","","",""
"","time_out","","html-keyboard-response","498","484518","0.0-1.0-683.0-0.0","0","0","86881","","null","","","null","75","","","","","","","","","","","","","","","",""
"","ITI","","html-keyboard-response","499","485523","0.0-1.0-684.0","0","0","86881","","null","","","null","75","","","","","","","","","","","","","","","NaN",""
"","S1","","html-keyboard-response","500","485778","0.0-1.0-686.0","0","0","86881","","null","","","null","76","","","","","","","","","","","","","","","",""
"","ISI","","html-keyboard-response","501","486283","0.0-1.0-687.0","0","0","86881","","null","","","null","76","NaN","","","","","","","","","","","","","","",""
"","S2","","html-keyboard-response","502","486539","0.0-1.0-688.0","0","0","86881","","null","","","null","76","","NaN","","","","","","","","","","","","","",""
"","response","","html-keyboard-response","503","487357","0.0-1.0-689.0-0.0","0","0","86881","","816","","","68","76","","","2","76","training","adjacent","BA","2","1","L.jpg","M.jpg","0","0","1","",""
"","feedback","","html-keyboard-response","504","488362","0.0-1.0-690.0-0.0","0","0","86881","","null","","","null","76","","","","","","","","","","","","","","","",""
"","ITI","","html-keyboard-response","505","489368","0.0-1.0-693.0","0","0","86881","","null","","","null","76","","","","","","","","","","","","","","","NaN",""
"","S1","","html-keyboard-response","506","489621","0.0-1.0-695.0","0","0","86881","","null","","","null","77","","","","","","","","","","","","","","","",""
"","ISI","","html-keyboard-response","507","490128","0.0-1.0-696.0","0","0","86881","","null","","","null","77","NaN","","","","","","","","","","","","","","",""
"","S2","","html-keyboard-response","508","490382","0.0-1.0-697.0","0","0","86881","","null","","","null","77","","NaN","","","","","","","","","","","","","",""
"","response","","html-keyboard-response","509","491173","0.0-1.0-698.0-0.0","0","0","86881","","789","","","68","77","","","2","77","training","adjacent","BC","2","3","L.jpg","P.jpg","0","1","0","",""
"","feedback","","html-keyboard-response","510","492181","0.0-1.0-699.0-0.0","0","0","86881","","null","","","null","77","","","","","","","","","","","","","","","",""
"","time_out","","html-keyboard-response","511","494188","0.0-1.0-701.0-0.0","0","0","86881","","null","","","null","77","","","","","","","","","","","","","","","",""
"","ITI","","html-keyboard-response","512","495195","0.0-1.0-702.0","0","0","86881","","null","","","null","77","","","","","","","","","","","","","","","NaN",""
"","S1","","html-keyboard-response","513","495449","0.0-1.0-704.0","0","0","86881","","null","","","null","78","","","","","","","","","","","","","","","",""
"","ISI","","html-keyboard-response","514","495954","0.0-1.0-705.0","0","0","86881","","null","","","null","78","NaN","","","","","","","","","","","","","","",""
"","S2","","html-keyboard-response","515","496210","0.0-1.0-706.0","0","0","86881","","null","","","null","78","","NaN","","","","","","","","","","","","","",""
"","response","","html-keyboard-response","516","496685","0.0-1.0-707.0-0.0","0","0","86881","","473","","","75","78","","","2","78","training","adjacent","DE","4","5","N.jpg","O.jpg","1","1","1","",""
"","feedback","","html-keyboard-response","517","497691","0.0-1.0-708.0-0.0","0","0","86881","","null","","","null","78","","","","","","","","","","","","","","","",""
"","ITI","","html-keyboard-response","518","498696","0.0-1.0-711.0","0","0","86881","","null","","","null","78","","","","","","","","","","","","","","","NaN",""
"","S1","","html-keyboard-response","519","498951","0.0-1.0-713.0","0","0","86881","","null","","","null","79","","","","","","","","","","","","","","","",""
"","ISI","","html-keyboard-response","520","499454","0.0-1.0-714.0","0","0","86881","","null","","","null","79","NaN","","","","","","","","","","","","","","",""
"","S2","","html-keyboard-response","521","499710","0.0-1.0-715.0","0","0","86881","","null","","","null","79","","NaN","","","","","","","","","","","","","",""
"","response","","html-keyboard-response","522","500085","0.0-1.0-716.0-0.0","0","0","86881","","372","","","75","79","","","2","79","training","adjacent","ED","5","4","O.jpg","N.jpg","1","0","0","",""
"","feedback","","html-keyboard-response","523","501091","0.0-1.0-717.0-0.0","0","0","86881","","null","","","null","79","","","","","","","","","","","","","","","",""
"","time_out","","html-keyboard-response","524","503098","0.0-1.0-719.0-0.0","0","0","86881","","null","","","null","79","","","","","","","","","","","","","","","",""
"","ITI","","html-keyboard-response","525","504104","0.0-1.0-720.0","0","0","86881","","null","","","null","79","","","","","","","","","","","","","","","NaN",""
"","S1","","html-keyboard-response","526","504360","0.0-1.0-722.0","0","0","86881","","null","","","null","80","","","","","","","","","","","","","","","",""
"","ISI","","html-keyboard-response","527","504865","0.0-1.0-723.0","0","0","86881","","null","","","null","80","NaN","","","","","","","","","","","","","","",""
"","S2","","html-keyboard-response","528","505120","0.0-1.0-724.0","0","0","86881","","null","","","null","80","","NaN","","","","","","","","","","","","","",""
"","response","","html-keyboard-response","529","505760","0.0-1.0-725.0-0.0","0","0","86881","","638","","","68","80","","","2","80","training","adjacent","CD","3","4","P.jpg","N.jpg","0","1","0","",""
"","feedback","","html-keyboard-response","530","506764","0.0-1.0-726.0-0.0","0","0","86881","","null","","","null","80","","","","","","","","","","","","","","","",""
"","time_out","","html-keyboard-response","531","508771","0.0-1.0-728.0-0.0","0","0","86881","","null","","","null","80","","","","","","","","","","","","","","","",""
"","ITI","","html-keyboard-response","532","509778","0.0-1.0-729.0","0","0","86881","","null","","","null","80","","","","","","","","","","","","","","","NaN",""
"","S1","","html-keyboard-response","533","510032","0.0-1.0-731.0","0","0","86881","","null","","","null","81","","","","","","","","","","","","","","","",""
"","ISI","","html-keyboard-response","534","510536","0.0-1.0-732.0","0","0","86881","","null","","","null","81","NaN","","","","","","","","","","","","","","",""
"","S2","","html-keyboard-response","535","510791","0.0-1.0-733.0","0","0","86881","","null","","","null","81","","NaN","","","","","","","","","","","","","",""
"","response","","html-keyboard-response","536","511428","0.0-1.0-734.0-0.0","0","0","86881","","634","","","75","81","","","2","81","training","adjacent","CD","3","4","P.jpg","N.jpg","1","1","1","",""
"","feedback","","html-keyboard-response","537","512434","0.0-1.0-735.0-0.0","0","0","86881","","null","","","null","81","","","","","","","","","","","","","","","",""
"","ITI","","html-keyboard-response","538","513440","0.0-1.0-738.0","0","0","86881","","null","","","null","81","","","","","","","","","","","","","","","NaN",""
"","S1","","html-keyboard-response","539","513694","0.0-1.0-740.0","0","0","86881","","null","","","null","82","","","","","","","","","","","","","","","",""
"","ISI","","html-keyboard-response","540","514199","0.0-1.0-741.0","0","0","86881","","null","","","null","82","NaN","","","","","","","","","","","","","","",""
"","S2","","html-keyboard-response","541","514455","0.0-1.0-742.0","0","0","86881","","null","","","null","82","","NaN","","","","","","","","","","","","","",""
"","response","","html-keyboard-response","542","515211","0.0-1.0-743.0-0.0","0","0","86881","","755","","","68","82","","","2","82","training","adjacent","DC","4","3","N.jpg","P.jpg","0","0","1","",""
"","feedback","","html-keyboard-response","543","516215","0.0-1.0-744.0-0.0","0","0","86881","","null","","","null","82","","","","","","","","","","","","","","","",""
"","ITI","","html-keyboard-response","544","517220","0.0-1.0-747.0","0","0","86881","","null","","","null","82","","","","","","","","","","","","","","","NaN",""
"","S1","","html-keyboard-response","545","517478","0.0-1.0-749.0","0","0","86881","","null","","","null","83","","","","","","","","","","","","","","","",""
"","ISI","","html-keyboard-response","546","517984","0.0-1.0-750.0","0","0","86881","","null","","","null","83","NaN","","","","","","","","","","","","","","",""
"","S2","","html-keyboard-response","547","518239","0.0-1.0-751.0","0","0","86881","","null","","","null","83","","NaN","","","","","","","","","","","","","",""
"","response","","html-keyboard-response","548","518731","0.0-1.0-752.0-0.0","0","0","86881","","490","","","68","83","","","2","83","training","adjacent","CB","3","2","P.jpg","L.jpg","0","0","1","",""
"","feedback","","html-keyboard-response","549","519738","0.0-1.0-753.0-0.0","0","0","86881","","null","","","null","83","","","","","","","","","","","","","","","",""
"","ITI","","html-keyboard-response","550","520744","0.0-1.0-756.0","0","0","86881","","null","","","null","83","","","","","","","","","","","","","","","NaN",""
"","S1","","html-keyboard-response","551","520999","0.0-1.0-758.0","0","0","86881","","null","","","null","84","","","","","","","","","","","","","","","",""
"","ISI","","html-keyboard-response","552","521501","0.0-1.0-759.0","0","0","86881","","null","","","null","84","NaN","","","","","","","","","","","","","","",""
"","S2","","html-keyboard-response","553","521757","0.0-1.0-760.0","0","0","86881","","null","","","null","84","","NaN","","","","","","","","","","","","","",""
"","response","","html-keyboard-response","554","522411","0.0-1.0-761.0-0.0","0","0","86881","","652","","","68","84","","","2","84","training","adjacent","EF","5","6","O.jpg","Q.jpg","0","1","0","",""
"","feedback","","html-keyboard-response","555","523417","0.0-1.0-762.0-0.0","0","0","86881","","null","","","null","84","","","","","","","","","","","","","","","",""
"","time_out","","html-keyboard-response","556","525422","0.0-1.0-764.0-0.0","0","0","86881","","null","","","null","84","","","","","","","","","","","","","","","",""
"","ITI","","html-keyboard-response","557","526429","0.0-1.0-765.0","0","0","86881","","null","","","null","84","","","","","","","","","","","","","","","NaN",""
"","S1","","html-keyboard-response","558","526685","0.0-1.0-767.0","0","0","86881","","null","","","null","85","","","","","","","","","","","","","","","",""
"","ISI","","html-keyboard-response","559","527190","0.0-1.0-768.0","0","0","86881","","null","","","null","85","NaN","","","","","","","","","","","","","","",""
"","S2","","html-keyboard-response","560","527445","0.0-1.0-769.0","0","0","86881","","null","","","null","85","","NaN","","","","","","","","","","","","","",""
"","response","","html-keyboard-response","561","528093","0.0-1.0-770.0-0.0","0","0","86881","","646","","","75","85","","","2","85","training","adjacent","ED","5","4","O.jpg","N.jpg","1","0","0","",""
"","feedback","","html-keyboard-response","562","529100","0.0-1.0-771.0-0.0","0","0","86881","","null","","","null","85","","","","","","","","","","","","","","","",""
"","time_out","","html-keyboard-response","563","531102","0.0-1.0-773.0-0.0","0","0","86881","","null","","","null","85","","","","","","","","","","","","","","","",""
"","ITI","","html-keyboard-response","564","532109","0.0-1.0-774.0","0","0","86881","","null","","","null","85","","","","","","","","","","","","","","","NaN",""
"","S1","","html-keyboard-response","565","532364","0.0-1.0-776.0","0","0","86881","","null","","","null","86","","","","","","","","","","","","","","","",""
"","ISI","","html-keyboard-response","566","532868","0.0-1.0-777.0","0","0","86881","","null","","","null","86","NaN","","","","","","","","","","","","","","",""
"","S2","","html-keyboard-response","567","533123","0.0-1.0-778.0","0","0","86881","","null","","","null","86","","NaN","","","","","","","","","","","","","",""
"","response","","html-keyboard-response","568","533453","0.0-1.0-779.0-0.0","0","0","86881","","328","","","75","86","","","2","86","training","adjacent","CB","3","2","P.jpg","L.jpg","1","0","0","",""
"","feedback","","html-keyboard-response","569","534458","0.0-1.0-780.0-0.0","0","0","86881","","null","","","null","86","","","","","","","","","","","","","","","",""
"","time_out","","html-keyboard-response","570","536465","0.0-1.0-782.0-0.0","0","0","86881","","null","","","null","86","","","","","","","","","","","","","","","",""
"","ITI","","html-keyboard-response","571","537472","0.0-1.0-783.0","0","0","86881","","null","","","null","86","","","","","","","","","","","","","","","NaN",""
"","S1","","html-keyboard-response","572","537726","0.0-1.0-785.0","0","0","86881","","null","","","null","87","","","","","","","","","","","","","","","",""
"","ISI","","html-keyboard-response","573","538232","0.0-1.0-786.0","0","0","86881","","null","","","null","87","NaN","","","","","","","","","","","","","","",""
"","S2","","html-keyboard-response","574","538486","0.0-1.0-787.0","0","0","86881","","null","","","null","87","","NaN","","","","","","","","","","","","","",""
"","response","","html-keyboard-response","575","539047","0.0-1.0-788.0-0.0","0","0","86881","","559","","","75","87","","","2","87","training","adjacent","FE","6","5","Q.jpg","O.jpg","1","0","0","",""
"","feedback","","html-keyboard-response","576","540053","0.0-1.0-789.0-0.0","0","0","86881","","null","","","null","87","","","","","","","","","","","","","","","",""
"","time_out","","html-keyboard-response","577","542060","0.0-1.0-791.0-0.0","0","0","86881","","null","","","null","87","","","","","","","","","","","","","","","",""
"","ITI","","html-keyboard-response","578","543066","0.0-1.0-792.0","0","0","86881","","null","","","null","87","","","","","","","","","","","","","","","NaN",""
"","S1","","html-keyboard-response","579","543321","0.0-1.0-794.0","0","0","86881","","null","","","null","88","","","","","","","","","","","","","","","",""
"","ISI","","html-keyboard-response","580","543826","0.0-1.0-795.0","0","0","86881","","null","","","null","88","NaN","","","","","","","","","","","","","","",""
