"success","ttype","start_time","trial_type","trial_index","time_elapsed","internal_node_id","warning","missed_checkup","PID","view_history","rt","responses","repeat_instructions","key_press","index","keypress_isi","keypress_S2","block","trial_num","phase","pair_type","S1_stim","S2_stim","S1_img","S2_img","S1_chosen","S1_higher","accuracy","keypress_iti","total_bonus_tally"
"true","full_screen","d07252022hr1948","fullscreen","0","2250","0.0-0.0","0","0","93680","","","","","","","","","","","","","","","","","","","","",""
"","instructions","","instructions","1","4225","0.0-1.0-0.0-0.0","0","0","93680","[{""page_index"":0,""viewing_time"":1641},{""page_index"":1,""viewing_time"":154},{""page_index"":2,""viewing_time"":178}]","1973","","","","","","","","","","","","","","","","","","",""
"","comprehension_check","","survey-multi-choice","2","10711","0.0-1.0-0.0-1.0","0","0","93680","","6483","{""Q0"":""True"",""Q1"":""True"",""Q2"":""When you see the prompt 'MAKE A CHOICE' after the second image was presented"",""Q3"":""Green mark"",""Q4"":""either D or K""}","0","","","","","","","","","","","","","","","","",""
"","start_exp","","html-keyboard-response","3","11603","0.0-1.0-1.0","0","0","93680","","888","","","32","","","","","","","","","","","","","","","",""
"","S1","","html-keyboard-response","4","11855","0.0-1.0-2.0","0","0","93680","","null","","","null","0","","","","","","","","","","","","","","",""
"","ISI","","html-keyboard-response","5","11961","0.0-1.0-3.0","0","0","93680","","null","","","null","0","NaN","","","","","","","","","","","","","",""
"","S2","","html-keyboard-response","6","12215","0.0-1.0-4.0","0","0","93680","","119","","","68","0","","d","","","","","","","","","","","","",""
"","response","","html-keyboard-response","7","12343","0.0-1.0-5.0","0","0","93680","","127","","","68","0","","","1","0","training","adjacent","3","4","N.jpg","R.jpg","1","1","1","",""
"","feedback","","html-keyboard-response","8","12447","0.0-1.0-6.0-0.0","0","0","93680","","null","","","null","0","","","","","","","","","","","","","","",""
"","ITI","","html-keyboard-response","9","12950","0.0-1.0-9.0","0","0","93680","","155","","","68","0","","","","","","","","","","","","","","d",""
"","S1","","html-keyboard-response","10","13203","0.0-1.0-11.0","0","0","93680","","null","","","null","1","","","","","","","","","","","","","","",""
"","ISI","","html-keyboard-response","11","13307","0.0-1.0-12.0","0","0","93680","","40","","","68","1","d","","","","","","","","","","","","","",""
"","S2","","html-keyboard-response","12","13560","0.0-1.0-13.0","0","0","93680","","3","","","75","1","","k","","","","","","","","","","","","",""
"","response","","html-keyboard-response","13","13639","0.0-1.0-14.0","0","0","93680","","78","","","75","1","","","1","1","training","adjacent","7","6","O.jpg","Q.jpg","0","0","1","",""
"","feedback","","html-keyboard-response","14","13743","0.0-1.0-15.0-0.0","0","0","93680","","null","","","null","1","","","","","","","","","","","","","","",""
"","ITI","","html-keyboard-response","15","14246","0.0-1.0-18.0","0","0","93680","","64","","","75","1","","","","","","","","","","","","","","k",""
"","S1","","html-keyboard-response","16","14498","0.0-1.0-20.0","0","0","93680","","null","","","null","2","","","","","","","","","","","","","","",""
"","ISI","","html-keyboard-response","17","14601","0.0-1.0-21.0","0","0","93680","","null","","","null","2","NaN","","","","","","","","","","","","","",""
"","S2","","html-keyboard-response","18","14858","0.0-1.0-22.0","0","0","93680","","82","","","75","2","","k","","","","","","","","","","","","",""
"","response","","html-keyboard-response","19","14859","0.0-1.0-23.0","0","0","93680","","1","","","75","2","","","1","2","training","adjacent","4","3","R.jpg","N.jpg","0","0","1","",""
"","feedback","","html-keyboard-response","20","14964","0.0-1.0-24.0-0.0","0","0","93680","","null","","","null","2","","","","","","","","","","","","","","",""
"","ITI","","html-keyboard-response","21","15467","0.0-1.0-27.0","0","0","93680","","71","","","75","2","","","","","","","","","","","","","","k",""
"","S1","","html-keyboard-response","22","15719","0.0-1.0-29.0","0","0","93680","","null","","","null","3","","","","","","","","","","","","","","",""
"","ISI","","html-keyboard-response","23","15820","0.0-1.0-30.0","0","0","93680","","54","","","75","3","k","","","","","","","","","","","","","",""
"","S2","","html-keyboard-response","24","16072","0.0-1.0-31.0","0","0","93680","","193","","","75","3","","k","","","","","","","","","","","","",""
"","response","","html-keyboard-response","25","16204","0.0-1.0-32.0","0","0","93680","","130","","","75","3","","","1","3","training","adjacent","5","4","P.jpg","R.jpg","0","0","1","",""
"","feedback","","html-keyboard-response","26","16309","0.0-1.0-33.0-0.0","0","0","93680","","null","","","null","3","","","","","","","","","","","","","","",""
"","ITI","","html-keyboard-response","27","16812","0.0-1.0-36.0","0","0","93680","","77","","","75","3","","","","","","","","","","","","","","k",""
"","S1","","html-keyboard-response","28","17066","0.0-1.0-38.0","0","0","93680","","null","","","null","4","","","","","","","","","","","","","","",""
"","ISI","","html-keyboard-response","29","17172","0.0-1.0-39.0","0","0","93680","","2","","","75","4","k","","","","","","","","","","","","","",""
"","S2","","html-keyboard-response","30","17425","0.0-1.0-40.0","0","0","93680","","60","","","75","4","","k","","","","","","","","","","","","",""
"","response","","html-keyboard-response","31","17595","0.0-1.0-41.0","0","0","93680","","168","","","75","4","","","1","4","training","adjacent","6","7","Q.jpg","O.jpg","0","1","0","",""
"","feedback","","html-keyboard-response","32","17700","0.0-1.0-42.0-0.0","0","0","93680","","null","","","null","4","","","","","","","","","","","","","","",""
"","time_out","","html-keyboard-response","33","17807","0.0-1.0-44.0-0.0","0","0","93680","","null","","","null","4","","","","","","","","","","","","","","",""
"","ITI","","html-keyboard-response","34","18312","0.0-1.0-45.0","0","0","93680","","122","","","75","4","","","","","","","","","","","","","","k",""
"","S1","","html-keyboard-response","35","18565","0.0-1.0-47.0","0","0","93680","","null","","","null","5","","","","","","","","","","","","","","",""
"","ISI","","html-keyboard-response","36","18671","0.0-1.0-48.0","0","0","93680","","null","","","null","5","NaN","","","","","","","","","","","","","",""
"","S2","","html-keyboard-response","37","18925","0.0-1.0-49.0","0","0","93680","","243","","","75","5","","k","","","","","","","","","","","","",""
"","response","","html-keyboard-response","38","19081","0.0-1.0-50.0","0","0","93680","","156","","","75","5","","","1","5","training","adjacent","5","6","P.jpg","Q.jpg","0","1","0","",""
"","feedback","","html-keyboard-response","39","19184","0.0-1.0-51.0-0.0","0","0","93680","","null","","","null","5","","","","","","","","","","","","","","",""
"","time_out","","html-keyboard-response","40","19290","0.0-1.0-53.0-0.0","0","0","93680","","null","","","null","5","","","","","","","","","","","","","","",""
"","ITI","","html-keyboard-response","41","19797","0.0-1.0-54.0","0","0","93680","","154","","","75","5","","","","","","","","","","","","","","k",""
"","S1","","html-keyboard-response","42","20050","0.0-1.0-56.0","0","0","93680","","null","","","null","6","","","","","","","","","","","","","","",""
"","ISI","","html-keyboard-response","43","20153","0.0-1.0-57.0","0","0","93680","","null","","","null","6","NaN","","","","","","","","","","","","","",""
"","S2","","html-keyboard-response","44","20408","0.0-1.0-58.0","0","0","93680","","110","","","68","6","","d","","","","","","","","","","","","",""
"","response","","html-keyboard-response","45","20499","0.0-1.0-59.0","0","0","93680","","89","","","68","6","","","1","6","training","adjacent","2","3","L.jpg","N.jpg","1","1","1","",""
"","feedback","","html-keyboard-response","46","20602","0.0-1.0-60.0-0.0","0","0","93680","","null","","","null","6","","","","","","","","","","","","","","",""
"","ITI","","html-keyboard-response","47","21107","0.0-1.0-63.0","0","0","93680","","117","","","68","6","","","","","","","","","","","","","","d",""
"","S1","","html-keyboard-response","48","21362","0.0-1.0-65.0","0","0","93680","","null","","","null","7","","","","","","","","","","","","","","",""
"","ISI","","html-keyboard-response","49","21465","0.0-1.0-66.0","0","0","93680","","57","","","68","7","d","","","","","","","","","","","","","",""
"","S2","","html-keyboard-response","50","21722","0.0-1.0-67.0","0","0","93680","","184","","","68","7","","d","","","","","","","","","","","","",""
"","response","","html-keyboard-response","51","21898","0.0-1.0-68.0","0","0","93680","","174","","","68","7","","","1","7","training","adjacent","3","2","N.jpg","L.jpg","1","0","0","",""
"","feedback","","html-keyboard-response","52","22000","0.0-1.0-69.0-0.0","0","0","93680","","null","","","null","7","","","","","","","","","","","","","","",""
"","time_out","","html-keyboard-response","53","22107","0.0-1.0-71.0-0.0","0","0","93680","","null","","","null","7","","","","","","","","","","","","","","",""
"","ITI","","html-keyboard-response","54","22613","0.0-1.0-72.0","0","0","93680","","41","","","68","7","","","","","","","","","","","","","","d",""
"","S1","","html-keyboard-response","55","22867","0.0-1.0-74.0","0","0","93680","","null","","","null","8","","","","","","","","","","","","","","",""
"","ISI","","html-keyboard-response","56","22975","0.0-1.0-75.0","0","0","93680","","null","","","null","8","NaN","","","","","","","","","","","","","",""
"","S2","","html-keyboard-response","57","23229","0.0-1.0-76.0","0","0","93680","","13","","","68","8","","d","","","","","","","","","","","","",""
"","response","","html-keyboard-response","58","23457","0.0-1.0-77.0","0","0","93680","","227","","","68","8","","","1","8","training","adjacent","1","2","M.jpg","L.jpg","1","1","1","",""
"","feedback","","html-keyboard-response","59","23562","0.0-1.0-78.0-0.0","0","0","93680","","null","","","null","8","","","","","","","","","","","","","","",""
"","ITI","","html-keyboard-response","60","24065","0.0-1.0-81.0","0","0","93680","","139","","","68","8","","","","","","","","","","","","","","d",""
"","S1","","html-keyboard-response","61","24320","0.0-1.0-83.0","0","0","93680","","null","","","null","9","","","","","","","","","","","","","","",""
"","ISI","","html-keyboard-response","62","24426","0.0-1.0-84.0","0","0","93680","","34","","","68","9","d","","","","","","","","","","","","","",""
"","S2","","html-keyboard-response","63","24683","0.0-1.0-85.0","0","0","93680","","117","","","75","9","","k","","","","","","","","","","","","",""
"","response","","html-keyboard-response","64","24712","0.0-1.0-86.0","0","0","93680","","28","","","75","9","","","1","9","training","adjacent","4","5","R.jpg","P.jpg","0","1","0","",""
"","feedback","","html-keyboard-response","65","24815","0.0-1.0-87.0-0.0","0","0","93680","","null","","","null","9","","","","","","","","","","","","","","",""
"","time_out","","html-keyboard-response","66","24917","0.0-1.0-89.0-0.0","0","0","93680","","null","","","null","9","","","","","","","","","","","","","","",""
"","ITI","","html-keyboard-response","67","25421","0.0-1.0-90.0","0","0","93680","","140","","","75","9","","","","","","","","","","","","","","k",""
"","S1","","html-keyboard-response","68","25677","0.0-1.0-92.0","0","0","93680","","null","","","null","10","","","","","","","","","","","","","","",""
"","ISI","","html-keyboard-response","69","25780","0.0-1.0-93.0","0","0","93680","","86","","","75","10","k","","","","","","","","","","","","","",""
"","S2","","html-keyboard-response","70","26034","0.0-1.0-94.0","0","0","93680","","172","","","75","10","","k","","","","","","","","","","","","",""
"","response","","html-keyboard-response","71","26118","0.0-1.0-95.0","0","0","93680","","83","","","75","10","","","1","10","training","adjacent","2","1","L.jpg","M.jpg","0","0","1","",""
"","feedback","","html-keyboard-response","72","26220","0.0-1.0-96.0-0.0","0","0","93680","","null","","","null","10","","","","","","","","","","","","","","",""
"","ITI","","html-keyboard-response","73","26723","0.0-1.0-99.0","0","0","93680","","82","","","75","10","","","","","","","","","","","","","","k",""
"","S1","","html-keyboard-response","74","26979","0.0-1.0-101.0","0","0","93680","","null","","","null","11","","","","","","","","","","","","","","",""
"","ISI","","html-keyboard-response","75","27083","0.0-1.0-102.0","0","0","93680","","69","","","75","11","k","","","","","","","","","","","","","",""
"","S2","","html-keyboard-response","76","27338","0.0-1.0-103.0","0","0","93680","","136","","","75","11","","k","","","","","","","","","","","","",""
"","response","","html-keyboard-response","77","27393","0.0-1.0-104.0","0","0","93680","","54","","","75","11","","","1","11","training","adjacent","6","5","Q.jpg","P.jpg","0","0","1","",""
"","feedback","","html-keyboard-response","78","27495","0.0-1.0-105.0-0.0","0","0","93680","","null","","","null","11","","","","","","","","","","","","","","",""
"","ITI","","html-keyboard-response","79","27997","0.0-1.0-108.0","0","0","93680","","205","","","75","11","","","","","","","","","","","","","","k",""
"","block_over","","html-keyboard-response","80","29086","0.0-1.0-109.0-0.0","0","0","93680","","1086","","","32","11","","","","","","","","","","","","","","",""
"","S1","","html-keyboard-response","81","29341","0.0-1.0-110.0","0","0","93680","","null","","","null","12","","","","","","","","","","","","","","",""
"","ISI","","html-keyboard-response","82","29444","0.0-1.0-111.0","0","0","93680","","null","","","null","12","NaN","","","","","","","","","","","","","",""
"","S2","","html-keyboard-response","83","29698","0.0-1.0-112.0","0","0","93680","","75","","","75","12","","k","","","","","","","","","","","","",""
"","response","","html-keyboard-response","84","29708","0.0-1.0-113.0","0","0","93680","","9","","","75","12","","","2","12","training","adjacent","6","5","Q.jpg","P.jpg","0","0","1","",""
"","feedback","","html-keyboard-response","85","29809","0.0-1.0-114.0-0.0","0","0","93680","","null","","","null","12","","","","","","","","","","","","","","",""
"","ITI","","html-keyboard-response","86","30313","0.0-1.0-117.0","0","0","93680","","102","","","75","12","","","","","","","","","","","","","","k",""
"","S1","","html-keyboard-response","87","30564","0.0-1.0-119.0","0","0","93680","","null","","","null","13","","","","","","","","","","","","","","",""
"","ISI","","html-keyboard-response","88","30668","0.0-1.0-120.0","0","0","93680","","null","","","null","13","NaN","","","","","","","","","","","","","",""
"","S2","","html-keyboard-response","89","30922","0.0-1.0-121.0","0","0","93680","","43","","","75","13","","k","","","","","","","","","","","","",""
"","response","","html-keyboard-response","90","30948","0.0-1.0-122.0","0","0","93680","","25","","","75","13","","","2","13","training","adjacent","4","3","R.jpg","N.jpg","0","0","1","",""
"","feedback","","html-keyboard-response","91","31051","0.0-1.0-123.0-0.0","0","0","93680","","null","","","null","13","","","","","","","","","","","","","","",""
"","ITI","","html-keyboard-response","92","31553","0.0-1.0-126.0","0","0","93680","","85","","","75","13","","","","","","","","","","","","","","k",""
"","S1","","html-keyboard-response","93","31809","0.0-1.0-128.0","0","0","93680","","null","","","null","14","","","","","","","","","","","","","","",""
"","ISI","","html-keyboard-response","94","31914","0.0-1.0-129.0","0","0","93680","","null","","","null","14","NaN","","","","","","","","","","","","","",""
"","S2","","html-keyboard-response","95","32168","0.0-1.0-130.0","0","0","93680","","43","","","75","14","","k","","","","","","","","","","","","",""
"","response","","html-keyboard-response","96","32309","0.0-1.0-131.0","0","0","93680","","140","","","75","14","","","2","14","training","adjacent","3","2","N.jpg","L.jpg","0","0","1","",""
"","feedback","","html-keyboard-response","97","32411","0.0-1.0-132.0-0.0","0","0","93680","","null","","","null","14","","","","","","","","","","","","","","",""
"","ITI","","html-keyboard-response","98","32916","0.0-1.0-135.0","0","0","93680","","97","","","75","14","","","","","","","","","","","","","","k",""
"","S1","","html-keyboard-response","99","33170","0.0-1.0-137.0","0","0","93680","","null","","","null","15","","","","","","","","","","","","","","",""
"","ISI","","html-keyboard-response","100","33272","0.0-1.0-138.0","0","0","93680","","null","","","null","15","NaN","","","","","","","","","","","","","",""
"","S2","","html-keyboard-response","101","33524","0.0-1.0-139.0","0","0","93680","","30","","","75","15","","k","","","","","","","","","","","","",""
"","response","","html-keyboard-response","102","33731","0.0-1.0-140.0","0","0","93680","","205","","","75","15","","","2","15","training","adjacent","7","6","O.jpg","Q.jpg","0","0","1","",""
"","feedback","","html-keyboard-response","103","33833","0.0-1.0-141.0-0.0","0","0","93680","","null","","","null","15","","","","","","","","","","","","","","",""
"","ITI","","html-keyboard-response","104","34339","0.0-1.0-144.0","0","0","93680","","109","","","75","15","","","","","","","","","","","","","","k",""
"","S1","","html-keyboard-response","105","34592","0.0-1.0-146.0","0","0","93680","","null","","","null","16","","","","","","","","","","","","","","",""
"","ISI","","html-keyboard-response","106","34693","0.0-1.0-147.0","0","0","93680","","4","","","75","16","k","","","","","","","","","","","","","",""
"","S2","","html-keyboard-response","107","34948","0.0-1.0-148.0","0","0","93680","","114","","","75","16","","k","","","","","","","","","","","","",""
"","response","","html-keyboard-response","108","35028","0.0-1.0-149.0","0","0","93680","","79","","","75","16","","","2","16","training","adjacent","2","3","L.jpg","N.jpg","0","1","0","",""
"","feedback","","html-keyboard-response","109","35130","0.0-1.0-150.0-0.0","0","0","93680","","null","","","null","16","","","","","","","","","","","","","","",""
"","time_out","","html-keyboard-response","110","35236","0.0-1.0-152.0-0.0","0","0","93680","","null","","","null","16","","","","","","","","","","","","","","",""
"","ITI","","html-keyboard-response","111","35739","0.0-1.0-153.0","0","0","93680","","5","","","75","16","","","","","","","","","","","","","","k",""
"","S1","","html-keyboard-response","112","35994","0.0-1.0-155.0","0","0","93680","","null","","","null","17","","","","","","","","","","","","","","",""
"","ISI","","html-keyboard-response","113","36099","0.0-1.0-156.0","0","0","93680","","null","","","null","17","NaN","","","","","","","","","","","","","",""
"","S2","","html-keyboard-response","114","36351","0.0-1.0-157.0","0","0","93680","","31","","","75","17","","k","","","","","","","","","","","","",""
"","response","","html-keyboard-response","115","36352","0.0-1.0-158.0","0","0","93680","","1","","","75","17","","","2","17","training","adjacent","1","2","M.jpg","L.jpg","0","1","0","",""
"","feedback","","html-keyboard-response","116","36453","0.0-1.0-159.0-0.0","0","0","93680","","null","","","null","17","","","","","","","","","","","","","","",""
"","time_out","","html-keyboard-response","117","36555","0.0-1.0-161.0-0.0","0","0","93680","","null","","","null","17","","","","","","","","","","","","","","",""
"","ITI","","html-keyboard-response","118","37056","0.0-1.0-162.0","0","0","93680","","7","","","75","17","","","","","","","","","","","","","","k",""
"","S1","","html-keyboard-response","119","37311","0.0-1.0-164.0","0","0","93680","","null","","","null","18","","","","","","","","","","","","","","",""
"","ISI","","html-keyboard-response","120","37414","0.0-1.0-165.0","0","0","93680","","null","","","null","18","NaN","","","","","","","","","","","","","",""
"","S2","","html-keyboard-response","121","37666","0.0-1.0-166.0","0","0","93680","","98","","","75","18","","k","","","","","","","","","","","","",""
"","response","","html-keyboard-response","122","37747","0.0-1.0-167.0","0","0","93680","","80","","","75","18","","","2","18","training","adjacent","6","7","Q.jpg","O.jpg","0","1","0","",""
"","feedback","","html-keyboard-response","123","37849","0.0-1.0-168.0-0.0","0","0","93680","","null","","","null","18","","","","","","","","","","","","","","",""
"","time_out","","html-keyboard-response","124","37954","0.0-1.0-170.0-0.0","0","0","93680","","null","","","null","18","","","","","","","","","","","","","","",""
"","ITI","","html-keyboard-response","125","38455","0.0-1.0-171.0","0","0","93680","","27","","","75","18","","","","","","","","","","","","","","k",""
"","S1","","html-keyboard-response","126","38708","0.0-1.0-173.0","0","0","93680","","null","","","null","19","","","","","","","","","","","","","","",""
"","ISI","","html-keyboard-response","127","38810","0.0-1.0-174.0","0","0","93680","","null","","","null","19","NaN","","","","","","","","","","","","","",""
"","S2","","html-keyboard-response","128","39065","0.0-1.0-175.0","0","0","93680","","119","","","75","19","","k","","","","","","","","","","","","",""
"","response","","html-keyboard-response","129","39146","0.0-1.0-176.0","0","0","93680","","81","","","75","19","","","2","19","training","adjacent","5","4","P.jpg","R.jpg","0","0","1","",""
"","feedback","","html-keyboard-response","130","39250","0.0-1.0-177.0-0.0","0","0","93680","","null","","","null","19","","","","","","","","","","","","","","",""
"","ITI","","html-keyboard-response","131","39756","0.0-1.0-180.0","0","0","93680","","109","","","75","19","","","","","","","","","","","","","","k",""
"","S1","","html-keyboard-response","132","40009","0.0-1.0-182.0","0","0","93680","","null","","","null","20","","","","","","","","","","","","","","",""
"","ISI","","html-keyboard-response","133","40111","0.0-1.0-183.0","0","0","93680","","null","","","null","20","NaN","","","","","","","","","","","","","",""
"","S2","","html-keyboard-response","134","40366","0.0-1.0-184.0","0","0","93680","","43","","","75","20","","k","","","","","","","","","","","","",""
"","response","","html-keyboard-response","135","40373","0.0-1.0-185.0","0","0","93680","","6","","","75","20","","","2","20","training","adjacent","4","5","R.jpg","P.jpg","0","1","0","",""
"","feedback","","html-keyboard-response","136","40475","0.0-1.0-186.0-0.0","0","0","93680","","null","","","null","20","","","","","","","","","","","","","","",""
"","time_out","","html-keyboard-response","137","40577","0.0-1.0-188.0-0.0","0","0","93680","","null","","","null","20","","","","","","","","","","","","","","",""
"","ITI","","html-keyboard-response","138","41084","0.0-1.0-189.0","0","0","93680","","214","","","75","20","","","","","","","","","","","","","","k",""
"","S1","","html-keyboard-response","139","41339","0.0-1.0-191.0","0","0","93680","","null","","","null","21","","","","","","","","","","","","","","",""
"","ISI","","html-keyboard-response","140","41444","0.0-1.0-192.0","0","0","93680","","null","","","null","21","NaN","","","","","","","","","","","","","",""
"","S2","","html-keyboard-response","141","41696","0.0-1.0-193.0","0","0","93680","","46","","","75","21","","k","","","","","","","","","","","","",""
"","response","","html-keyboard-response","142","41721","0.0-1.0-194.0","0","0","93680","","23","","","75","21","","","2","21","training","adjacent","2","1","L.jpg","M.jpg","0","0","1","",""
"","feedback","","html-keyboard-response","143","41823","0.0-1.0-195.0-0.0","0","0","93680","","null","","","null","21","","","","","","","","","","","","","","",""
"","ITI","","html-keyboard-response","144","42330","0.0-1.0-198.0","0","0","93680","","121","","","75","21","","","","","","","","","","","","","","k",""
"","S1","","html-keyboard-response","145","42584","0.0-1.0-200.0","0","0","93680","","null","","","null","22","","","","","","","","","","","","","","",""
"","ISI","","html-keyboard-response","146","42687","0.0-1.0-201.0","0","0","93680","","null","","","null","22","NaN","","","","","","","","","","","","","",""
"","S2","","html-keyboard-response","147","42942","0.0-1.0-202.0","0","0","93680","","79","","","75","22","","k","","","","","","","","","","","","",""
"","response","","html-keyboard-response","148","43120","0.0-1.0-203.0","0","0","93680","","177","","","75","22","","","2","22","training","adjacent","3","4","N.jpg","R.jpg","0","1","0","",""
"","feedback","","html-keyboard-response","149","43223","0.0-1.0-204.0-0.0","0","0","93680","","null","","","null","22","","","","","","","","","","","","","","",""
"","time_out","","html-keyboard-response","150","43324","0.0-1.0-206.0-0.0","0","0","93680","","null","","","null","22","","","","","","","","","","","","","","",""
"","ITI","","html-keyboard-response","151","43829","0.0-1.0-207.0","0","0","93680","","11","","","75","22","","","","","","","","","","","","","","k",""
"","S1","","html-keyboard-response","152","44083","0.0-1.0-209.0","0","0","93680","","null","","","null","23","","","","","","","","","","","","","","",""
"","ISI","","html-keyboard-response","153","44188","0.0-1.0-210.0","0","0","93680","","46","","","75","23","k","","","","","","","","","","","","","",""
"","S2","","html-keyboard-response","154","44443","0.0-1.0-211.0","0","0","93680","","null","","","null","23","","NaN","","","","","","","","","","","","",""
"","response","","html-keyboard-response","155","44665","0.0-1.0-212.0","0","0","93680","","220","","","68","23","","","2","23","training","adjacent","5","6","P.jpg","Q.jpg","1","1","1","",""
"","feedback","","html-keyboard-response","156","44769","0.0-1.0-213.0-0.0","0","0","93680","","null","","","null","23","","","","","","","","","","","","","","",""
"","ITI","","html-keyboard-response","157","45270","0.0-1.0-216.0","0","0","93680","","146","","","68","23","","","","","","","","","","","","","","d",""
"","block_over","","html-keyboard-response","158","57087","0.0-1.0-217.0-0.0","0","0","93680","","11815","","","32","23","","","","","","","","","","","","","","",""
"","S1","","html-keyboard-response","159","57344","0.0-1.0-218.0","0","0","93680","","null","","","null","24","","","","","","","","","","","","","","",""
"","ISI","","html-keyboard-response","160","57446","0.0-1.0-219.0","0","0","93680","","null","","","null","24","NaN","","","","","","","","","","","","","",""
"","S2","","html-keyboard-response","161","57698","0.0-1.0-220.0","0","0","93680","","224","","","68","24","","d","","","","","","","","","","","","",""
"","response","","html-keyboard-response","162","57915","0.0-1.0-221.0","0","0","93680","","215","","","68","24","","","3","24","training","adjacent","2","1","L.jpg","M.jpg","1","0","0","",""
"","feedback","","html-keyboard-response","163","58019","0.0-1.0-222.0-0.0","0","0","93680","","null","","","null","24","","","","","","","","","","","","","","",""
"","time_out","","html-keyboard-response","164","58126","0.0-1.0-224.0-0.0","0","0","93680","","null","","","null","24","","","","","","","","","","","","","","",""
"","ITI","","html-keyboard-response","165","58628","0.0-1.0-225.0","0","0","93680","","34","","","68","24","","","","","","","","","","","","","","d",""
"","S1","","html-keyboard-response","166","58883","0.0-1.0-227.0","0","0","93680","","null","","","null","25","","","","","","","","","","","","","","",""
"","ISI","","html-keyboard-response","167","58985","0.0-1.0-228.0","0","0","93680","","null","","","null","25","NaN","","","","","","","","","","","","","",""
"","S2","","html-keyboard-response","168","59237","0.0-1.0-229.0","0","0","93680","","121","","","86","25","","v","","","","","","","","","","","","",""
"","response","","html-keyboard-response","169","59743","0.0-1.0-230.0","0","0","93680","","null","","","null","25","","","3","25","training","adjacent","6","7","Q.jpg","O.jpg","NaN","1","0","",""
"","too_slow_prompt","","html-keyboard-response","170","60746","0.0-1.0-232.0-0.0","1","0","93680","","null","","","null","","","","","","","","","","","","","","","",""
"","time_out","","html-keyboard-response","171","60850","0.0-1.0-233.0-0.0","0","0","93680","","null","","","null","25","","","","","","","","","","","","","","",""
"","ITI","","html-keyboard-response","172","61353","0.0-1.0-234.0","0","0","93680","","85","","","67","25","","","","","","","","","","","","","","c",""
"","S1","","html-keyboard-response","173","61610","0.0-1.0-236.0","0","0","93680","","null","","","null","26","","","","","","","","","","","","","","",""
"","ISI","","html-keyboard-response","174","61713","0.0-1.0-237.0","0","0","93680","","9","","","88","26","x","","","","","","","","","","","","","",""
"","S2","","html-keyboard-response","175","61966","0.0-1.0-238.0","0","0","93680","","91","","","88","26","","x","","","","","","","","","","","","",""
"","response","","html-keyboard-response","176","62471","0.0-1.0-239.0","0","0","93680","","null","","","null","26","","","3","26","training","adjacent","4","3","R.jpg","N.jpg","NaN","0","0","",""
"","too_slow_prompt","","html-keyboard-response","177","63475","0.0-1.0-241.0-0.0","1","0","93680","","null","","","null","","","","","","","","","","","","","","","",""
"","time_out","","html-keyboard-response","178","63580","0.0-1.0-242.0-0.0","0","0","93680","","null","","","null","26","","","","","","","","","","","","","","",""
"","ITI","","html-keyboard-response","179","64081","0.0-1.0-243.0","0","0","93680","","209","","","68","26","","","","","","","","","","","","","","d",""
"","S1","","html-keyboard-response","180","64336","0.0-1.0-245.0","0","0","93680","","null","","","null","27","","","","","","","","","","","","","","",""
"","ISI","","html-keyboard-response","181","64439","0.0-1.0-246.0","0","0","93680","","95","","","68","27","d","","","","","","","","","","","","","",""
"","S2","","html-keyboard-response","182","64692","0.0-1.0-247.0","0","0","93680","","null","","","null","27","","NaN","","","","","","","","","","","","",""
"","response","","html-keyboard-response","183","64718","0.0-1.0-248.0","0","0","93680","","24","","","68","27","","","3","27","training","adjacent","6","5","Q.jpg","P.jpg","1","0","0","",""
"","feedback","","html-keyboard-response","184","64821","0.0-1.0-249.0-0.0","0","0","93680","","null","","","null","27","","","","","","","","","","","","","","",""
"","time_out","","html-keyboard-response","185","64924","0.0-1.0-251.0-0.0","0","0","93680","","null","","","null","27","","","","","","","","","","","","","","",""
"","ITI","","html-keyboard-response","186","65430","0.0-1.0-252.0","0","0","93680","","71","","","68","27","","","","","","","","","","","","","","d",""
"","S1","","html-keyboard-response","187","65682","0.0-1.0-254.0","0","0","93680","","null","","","null","28","","","","","","","","","","","","","","",""
"","ISI","","html-keyboard-response","188","65784","0.0-1.0-255.0","0","0","93680","","null","","","null","28","NaN","","","","","","","","","","","","","",""
"","S2","","html-keyboard-response","189","66038","0.0-1.0-256.0","0","0","93680","","57","","","68","28","","d","","","","","","","","","","","","",""
"","response","","html-keyboard-response","190","66109","0.0-1.0-257.0","0","0","93680","","70","","","68","28","","","3","28","training","adjacent","4","5","R.jpg","P.jpg","1","1","1","",""
"","feedback","","html-keyboard-response","191","66214","0.0-1.0-258.0-0.0","0","0","93680","","null","","","null","28","","","","","","","","","","","","","","",""
"","ITI","","html-keyboard-response","192","66716","0.0-1.0-261.0","0","0","93680","","125","","","68","28","","","","","","","","","","","","","","d",""
"","S1","","html-keyboard-response","193","66970","0.0-1.0-263.0","0","0","93680","","null","","","null","29","","","","","","","","","","","","","","",""
"","ISI","","html-keyboard-response","194","67077","0.0-1.0-264.0","0","0","93680","","null","","","null","29","NaN","","","","","","","","","","","","","",""
"","S2","","html-keyboard-response","195","67329","0.0-1.0-265.0","0","0","93680","","32","","","68","29","","d","","","","","","","","","","","","",""
"","response","","html-keyboard-response","196","67352","0.0-1.0-266.0","0","0","93680","","22","","","68","29","","","3","29","training","adjacent","5","4","P.jpg","R.jpg","1","0","0","",""
"","feedback","","html-keyboard-response","197","67456","0.0-1.0-267.0-0.0","0","0","93680","","null","","","null","29","","","","","","","","","","","","","","",""
"","time_out","","html-keyboard-response","198","67559","0.0-1.0-269.0-0.0","0","0","93680","","null","","","null","29","","","","","","","","","","","","","","",""
"","ITI","","html-keyboard-response","199","68064","0.0-1.0-270.0","0","0","93680","","47","","","68","29","","","","","","","","","","","","","","d",""
"","S1","","html-keyboard-response","200","68319","0.0-1.0-272.0","0","0","93680","","null","","","null","30","","","","","","","","","","","","","","",""
"","ISI","","html-keyboard-response","201","68423","0.0-1.0-273.0","0","0","93680","","null","","","null","30","NaN","","","","","","","","","","","","","",""
"","S2","","html-keyboard-response","202","68675","0.0-1.0-274.0","0","0","93680","","46","","","75","30","","k","","","","","","","","","","","","",""
"","response","","html-keyboard-response","203","68844","0.0-1.0-275.0","0","0","93680","","167","","","75","30","","","3","30","training","adjacent","1","2","M.jpg","L.jpg","0","1","0","",""
"","feedback","","html-keyboard-response","204","68946","0.0-1.0-276.0-0.0","0","0","93680","","null","","","null","30","","","","","","","","","","","","","","",""
"","time_out","","html-keyboard-response","205","69050","0.0-1.0-278.0-0.0","0","0","93680","","null","","","null","30","","","","","","","","","","","","","","",""
"","ITI","","html-keyboard-response","206","69556","0.0-1.0-279.0","0","0","93680","","167","","","75","30","","","","","","","","","","","","","","k",""
"","S1","","html-keyboard-response","207","69811","0.0-1.0-281.0","0","0","93680","","null","","","null","31","","","","","","","","","","","","","","",""
"","ISI","","html-keyboard-response","208","69915","0.0-1.0-282.0","0","0","93680","","null","","","null","31","NaN","","","","","","","","","","","","","",""
"","S2","","html-keyboard-response","209","70170","0.0-1.0-283.0","0","0","93680","","187","","","75","31","","k","","","","","","","","","","","","",""
"","response","","html-keyboard-response","210","70349","0.0-1.0-284.0","0","0","93680","","177","","","75","31","","","3","31","training","adjacent","5","6","P.jpg","Q.jpg","0","1","0","",""
"","feedback","","html-keyboard-response","211","70452","0.0-1.0-285.0-0.0","0","0","93680","","null","","","null","31","","","","","","","","","","","","","","",""
"","time_out","","html-keyboard-response","212","70554","0.0-1.0-287.0-0.0","0","0","93680","","null","","","null","31","","","","","","","","","","","","","","",""
"","ITI","","html-keyboard-response","213","71056","0.0-1.0-288.0","0","0","93680","","189","","","75","31","","","","","","","","","","","","","","k",""
"","S1","","html-keyboard-response","214","71310","0.0-1.0-290.0","0","0","93680","","null","","","null","32","","","","","","","","","","","","","","",""
"","ISI","","html-keyboard-response","215","71414","0.0-1.0-291.0","0","0","93680","","26","","","75","32","k","","","","","","","","","","","","","",""
"","S2","","html-keyboard-response","216","71669","0.0-1.0-292.0","0","0","93680","","134","","","75","32","","k","","","","","","","","","","","","",""
"","response","","html-keyboard-response","217","71728","0.0-1.0-293.0","0","0","93680","","57","","","75","32","","","3","32","training","adjacent","3","2","N.jpg","L.jpg","0","0","1","",""
"","feedback","","html-keyboard-response","218","71833","0.0-1.0-294.0-0.0","0","0","93680","","null","","","null","32","","","","","","","","","","","","","","",""
"","ITI","","html-keyboard-response","219","72334","0.0-1.0-297.0","0","0","93680","","74","","","75","32","","","","","","","","","","","","","","k",""
"","S1","","html-keyboard-response","220","72588","0.0-1.0-299.0","0","0","93680","","null","","","null","33","","","","","","","","","","","","","","",""
"","ISI","","html-keyboard-response","221","72694","0.0-1.0-300.0","0","0","93680","","null","","","null","33","NaN","","","","","","","","","","","","","",""
"","S2","","html-keyboard-response","222","72948","0.0-1.0-301.0","0","0","93680","","2","","","75","33","","k","","","","","","","","","","","","",""
"","response","","html-keyboard-response","223","73112","0.0-1.0-302.0","0","0","93680","","162","","","75","33","","","3","33","training","adjacent","2","3","L.jpg","N.jpg","0","1","0","",""
"","feedback","","html-keyboard-response","224","73214","0.0-1.0-303.0-0.0","0","0","93680","","null","","","null","33","","","","","","","","","","","","","","",""
"","time_out","","html-keyboard-response","225","73319","0.0-1.0-305.0-0.0","0","0","93680","","null","","","null","33","","","","","","","","","","","","","","",""
"","ITI","","html-keyboard-response","226","73823","0.0-1.0-306.0","0","0","93680","","174","","","75","33","","","","","","","","","","","","","","k",""
"","S1","","html-keyboard-response","227","74078","0.0-1.0-308.0","0","0","93680","","null","","","null","34","","","","","","","","","","","","","","",""
"","ISI","","html-keyboard-response","228","74181","0.0-1.0-309.0","0","0","93680","","94","","","75","34","k","","","","","","","","","","","","","",""
"","S2","","html-keyboard-response","229","74435","0.0-1.0-310.0","0","0","93680","","null","","","null","34","","NaN","","","","","","","","","","","","",""
"","response","","html-keyboard-response","230","74441","0.0-1.0-311.0","0","0","93680","","5","","","75","34","","","3","34","training","adjacent","3","4","N.jpg","R.jpg","0","1","0","",""
"","feedback","","html-keyboard-response","231","74542","0.0-1.0-312.0-0.0","0","0","93680","","null","","","null","34","","","","","","","","","","","","","","",""
"","time_out","","html-keyboard-response","232","74644","0.0-1.0-314.0-0.0","0","0","93680","","null","","","null","34","","","","","","","","","","","","","","",""
"","ITI","","html-keyboard-response","233","75145","0.0-1.0-315.0","0","0","93680","","189","","","75","34","","","","","","","","","","","","","","k",""
"","S1","","html-keyboard-response","234","75399","0.0-1.0-317.0","0","0","93680","","null","","","null","35","","","","","","","","","","","","","","",""
"","ISI","","html-keyboard-response","235","75504","0.0-1.0-318.0","0","0","93680","","null","","","null","35","NaN","","","","","","","","","","","","","",""
"","S2","","html-keyboard-response","236","75759","0.0-1.0-319.0","0","0","93680","","9","","","75","35","","k","","","","","","","","","","","","",""
"","response","","html-keyboard-response","237","75942","0.0-1.0-320.0","0","0","93680","","183","","","75","35","","","3","35","training","adjacent","7","6","O.jpg","Q.jpg","0","0","1","",""
"","feedback","","html-keyboard-response","238","76047","0.0-1.0-321.0-0.0","0","0","93680","","null","","","null","35","","","","","","","","","","","","","","",""
"","ITI","","html-keyboard-response","239","76553","0.0-1.0-324.0","0","0","93680","","69","","","75","35","","","","","","","","","","","","","","k",""
"","block_over","","html-keyboard-response","240","77503","0.0-1.0-325.0-0.0","0","0","93680","","949","","","32","35","","","","","","","","","","","","","","",""
"","S1","","html-keyboard-response","241","77757","0.0-1.0-326.0","0","0","93680","","null","","","null","36","","","","","","","","","","","","","","",""
"","ISI","","html-keyboard-response","242","77859","0.0-1.0-327.0","0","0","93680","","null","","","null","36","NaN","","","","","","","","","","","","","",""
"","S2","","html-keyboard-response","243","78114","0.0-1.0-328.0","0","0","93680","","106","","","75","36","","k","","","","","","","","","","","","",""
"","response","","html-keyboard-response","244","78189","0.0-1.0-329.0","0","0","93680","","74","","","75","36","","","4","36","test","adjacent","1","2","M.jpg","L.jpg","0","1","0","",""
"","feedback","","html-keyboard-response","245","78291","0.0-1.0-330.0-0.0","0","0","93680","","null","","","null","36","","","","","","","","","","","","","","",""
"","time_out","","html-keyboard-response","246","78393","0.0-1.0-332.0-0.0","0","0","93680","","null","","","null","36","","","","","","","","","","","","","","",""
"","ITI","","html-keyboard-response","247","78894","0.0-1.0-333.0","0","0","93680","","181","","","75","36","","","","","","","","","","","","","","k",""
"","S1","","html-keyboard-response","248","79150","0.0-1.0-335.0","0","0","93680","","null","","","null","37","","","","","","","","","","","","","","",""
"","ISI","","html-keyboard-response","249","79255","0.0-1.0-336.0","0","0","93680","","38","","","75","37","k","","","","","","","","","","","","","",""
"","S2","","html-keyboard-response","250","79510","0.0-1.0-337.0","0","0","93680","","null","","","null","37","","NaN","","","","","","","","","","","","",""
"","response","","html-keyboard-response","251","79804","0.0-1.0-338.0","0","0","93680","","292","","","75","37","","","4","37","test","adjacent","2","1","L.jpg","M.jpg","0","0","1","",""
"","feedback","","html-keyboard-response","252","79907","0.0-1.0-339.0-0.0","0","0","93680","","null","","","null","37","","","","","","","","","","","","","","",""
"","ITI","","html-keyboard-response","253","80414","0.0-1.0-342.0","0","0","93680","","290","","","75","37","","","","","","","","","","","","","","k",""
"","S1","","html-keyboard-response","254","80669","0.0-1.0-344.0","0","0","93680","","null","","","null","38","","","","","","","","","","","","","","",""
"","ISI","","html-keyboard-response","255","80776","0.0-1.0-345.0","0","0","93680","","null","","","null","38","NaN","","","","","","","","","","","","","",""
"","S2","","html-keyboard-response","256","81028","0.0-1.0-346.0","0","0","93680","","null","","","null","38","","NaN","","","","","","","","","","","","",""
"","response","","html-keyboard-response","257","81292","0.0-1.0-347.0","0","0","93680","","264","","","68","38","","","4","38","test","non_adjacent","4","1","R.jpg","M.jpg","1","0","0","",""
"","feedback","","html-keyboard-response","258","81396","0.0-1.0-348.0-0.0","0","0","93680","","null","","","null","38","","","","","","","","","","","","","","",""
"","time_out","","html-keyboard-response","259","81498","0.0-1.0-350.0-0.0","0","0","93680","","null","","","null","38","","","","","","","","","","","","","","",""
"","ITI","","html-keyboard-response","260","82000","0.0-1.0-351.0","0","0","93680","","null","","","null","38","","","","","","","","","","","","","","NaN",""
"","S1","","html-keyboard-response","261","82253","0.0-1.0-353.0","0","0","93680","","null","","","null","39","","","","","","","","","","","","","","",""
"","ISI","","html-keyboard-response","262","82357","0.0-1.0-354.0","0","0","93680","","null","","","null","39","NaN","","","","","","","","","","","","","",""
"","S2","","html-keyboard-response","263","82610","0.0-1.0-355.0","0","0","93680","","null","","","null","39","","NaN","","","","","","","","","","","","",""
"","response","","html-keyboard-response","264","82620","0.0-1.0-356.0","0","0","93680","","8","","","68","39","","","4","39","test","non_adjacent","4","2","R.jpg","L.jpg","1","0","0","",""
"","feedback","","html-keyboard-response","265","82723","0.0-1.0-357.0-0.0","0","0","93680","","null","","","null","39","","","","","","","","","","","","","","",""
"","time_out","","html-keyboard-response","266","82830","0.0-1.0-359.0-0.0","0","0","93680","","null","","","null","39","","","","","","","","","","","","","","",""
"","ITI","","html-keyboard-response","267","83335","0.0-1.0-360.0","0","0","93680","","null","","","null","39","","","","","","","","","","","","","","NaN",""
"","S1","","html-keyboard-response","268","83592","0.0-1.0-362.0","0","0","93680","","null","","","null","40","","","","","","","","","","","","","","",""
"","ISI","","html-keyboard-response","269","83699","0.0-1.0-363.0","0","0","93680","","null","","","null","40","NaN","","","","","","","","","","","","","",""
"","S2","","html-keyboard-response","270","83956","0.0-1.0-364.0","0","0","93680","","null","","","null","40","","NaN","","","","","","","","","","","","",""
"","response","","html-keyboard-response","271","84001","0.0-1.0-365.0","0","0","93680","","43","","","68","40","","","4","40","test","non_adjacent","5","2","P.jpg","L.jpg","1","0","0","",""
"","feedback","","html-keyboard-response","272","84105","0.0-1.0-366.0-0.0","0","0","93680","","null","","","null","40","","","","","","","","","","","","","","",""
"","time_out","","html-keyboard-response","273","84209","0.0-1.0-368.0-0.0","0","0","93680","","null","","","null","40","","","","","","","","","","","","","","",""
"","ITI","","html-keyboard-response","274","84714","0.0-1.0-369.0","0","0","93680","","null","","","null","40","","","","","","","","","","","","","","NaN",""
"","S1","","html-keyboard-response","275","84971","0.0-1.0-371.0","0","0","93680","","null","","","null","41","","","","","","","","","","","","","","",""
"","ISI","","html-keyboard-response","276","85078","0.0-1.0-372.0","0","0","93680","","null","","","null","41","NaN","","","","","","","","","","","","","",""
"","S2","","html-keyboard-response","277","85331","0.0-1.0-373.0","0","0","93680","","null","","","null","41","","NaN","","","","","","","","","","","","",""
"","response","","html-keyboard-response","278","85409","0.0-1.0-374.0","0","0","93680","","77","","","75","41","","","4","41","test","adjacent","3","2","N.jpg","L.jpg","0","0","1","",""
"","feedback","","html-keyboard-response","279","85514","0.0-1.0-375.0-0.0","0","0","93680","","null","","","null","41","","","","","","","","","","","","","","",""
"","ITI","","html-keyboard-response","280","86021","0.0-1.0-378.0","0","0","93680","","null","","","null","41","","","","","","","","","","","","","","NaN",""
"","S1","","html-keyboard-response","281","86274","0.0-1.0-380.0","0","0","93680","","null","","","null","42","","","","","","","","","","","","","","",""
"","ISI","","html-keyboard-response","282","86378","0.0-1.0-381.0","0","0","93680","","null","","","null","42","NaN","","","","","","","","","","","","","",""
"","S2","","html-keyboard-response","283","86634","0.0-1.0-382.0","0","0","93680","","null","","","null","42","","NaN","","","","","","","","","","","","",""
"","response","","html-keyboard-response","284","86741","0.0-1.0-383.0","0","0","93680","","107","","","75","42","","","4","42","test","non_adjacent","6","1","Q.jpg","M.jpg","0","0","1","",""
"","feedback","","html-keyboard-response","285","86844","0.0-1.0-384.0-0.0","0","0","93680","","null","","","null","42","","","","","","","","","","","","","","",""
"","ITI","","html-keyboard-response","286","87346","0.0-1.0-387.0","0","0","93680","","null","","","null","42","","","","","","","","","","","","","","NaN",""
"","S1","","html-keyboard-response","287","87600","0.0-1.0-389.0","0","0","93680","","null","","","null","43","","","","","","","","","","","","","","",""
"","ISI","","html-keyboard-response","288","87707","0.0-1.0-390.0","0","0","93680","","null","","","null","43","NaN","","","","","","","","","","","","","",""
"","S2","","html-keyboard-response","289","87964","0.0-1.0-391.0","0","0","93680","","null","","","null","43","","NaN","","","","","","","","","","","","",""
"","response","","html-keyboard-response","290","88232","0.0-1.0-392.0","0","0","93680","","267","","","75","43","","","4","43","test","non_adjacent","7","1","O.jpg","M.jpg","0","0","1","",""
"","feedback","","html-keyboard-response","291","88334","0.0-1.0-393.0-0.0","0","0","93680","","null","","","null","43","","","","","","","","","","","","","","",""
"","ITI","","html-keyboard-response","292","88840","0.0-1.0-396.0","0","0","93680","","null","","","null","43","","","","","","","","","","","","","","NaN",""
"","S1","","html-keyboard-response","293","89097","0.0-1.0-398.0","0","0","93680","","null","","","null","44","","","","","","","","","","","","","","",""
"","ISI","","html-keyboard-response","294","89202","0.0-1.0-399.0","0","0","93680","","null","","","null","44","NaN","","","","","","","","","","","","","",""
"","S2","","html-keyboard-response","295","89458","0.0-1.0-400.0","0","0","93680","","null","","","null","44","","NaN","","","","","","","","","","","","",""
"","response","","html-keyboard-response","296","89872","0.0-1.0-401.0","0","0","93680","","413","","","75","44","","","4","44","test","non_adjacent","1","3","M.jpg","N.jpg","0","1","0","",""
"","feedback","","html-keyboard-response","297","89975","0.0-1.0-402.0-0.0","0","0","93680","","null","","","null","44","","","","","","","","","","","","","","",""
"","time_out","","html-keyboard-response","298","90078","0.0-1.0-404.0-0.0","0","0","93680","","null","","","null","44","","","","","","","","","","","","","","",""
"","ITI","","html-keyboard-response","299","90583","0.0-1.0-405.0","0","0","93680","","null","","","null","44","","","","","","","","","","","","","","NaN",""
"","S1","","html-keyboard-response","300","90838","0.0-1.0-407.0","0","0","93680","","null","","","null","45","","","","","","","","","","","","","","",""
"","ISI","","html-keyboard-response","301","90943","0.0-1.0-408.0","0","0","93680","","null","","","null","45","NaN","","","","","","","","","","","","","",""
"","S2","","html-keyboard-response","302","91197","0.0-1.0-409.0","0","0","93680","","null","","","null","45","","NaN","","","","","","","","","","","","",""
"","response","","html-keyboard-response","303","91704","0.0-1.0-410.0","0","0","93680","","null","","","null","45","","","4","45","test","non_adjacent","3","1","N.jpg","M.jpg","NaN","0","0","",""
"","too_slow_prompt","","html-keyboard-response","304","92710","0.0-1.0-412.0-0.0","1","0","93680","","null","","","null","","","","","","","","","","","","","","","",""
"","time_out","","html-keyboard-response","305","92814","0.0-1.0-413.0-0.0","0","0","93680","","null","","","null","45","","","","","","","","","","","","","","",""
"","ITI","","html-keyboard-response","306","93319","0.0-1.0-414.0","0","0","93680","","null","","","null","45","","","","","","","","","","","","","","NaN",""
"","S1","","html-keyboard-response","307","93572","0.0-1.0-416.0","0","0","93680","","null","","","null","46","","","","","","","","","","","","","","",""
"","ISI","","html-keyboard-response","308","93675","0.0-1.0-417.0","0","0","93680","","null","","","null","46","NaN","","","","","","","","","","","","","",""
"","S2","","html-keyboard-response","309","93927","0.0-1.0-418.0","0","0","93680","","null","","","null","46","","NaN","","","","","","","","","","","","",""
"","response","","html-keyboard-response","310","94430","0.0-1.0-419.0","0","0","93680","","null","","","null","46","","","4","46","test","non_adjacent","7","2","O.jpg","L.jpg","NaN","0","0","",""
"","too_slow_prompt","","html-keyboard-response","311","95434","0.0-1.0-421.0-0.0","1","0","93680","","null","","","null","","","","","","","","","","","","","","","",""
"","time_out","","html-keyboard-response","312","95539","0.0-1.0-422.0-0.0","0","0","93680","","null","","","null","46","","","","","","","","","","","","","","",""
"","ITI","","html-keyboard-response","313","96043","0.0-1.0-423.0","0","0","93680","","null","","","null","46","","","","","","","","","","","","","","NaN",""
"","S1","","html-keyboard-response","314","96296","0.0-1.0-425.0","0","0","93680","","null","","","null","47","","","","","","","","","","","","","","",""
"","ISI","","html-keyboard-response","315","96400","0.0-1.0-426.0","0","0","93680","","null","","","null","47","NaN","","","","","","","","","","","","","",""
"","S2","","html-keyboard-response","316","96652","0.0-1.0-427.0","0","0","93680","","null","","","null","47","","NaN","","","","","","","","","","","","",""
"","response","","html-keyboard-response","317","97051","0.0-1.0-428.0","0","0","93680","","398","","","75","47","","","4","47","test","non_adjacent","6","2","Q.jpg","L.jpg","0","0","1","",""
"","feedback","","html-keyboard-response","318","97153","0.0-1.0-429.0-0.0","0","0","93680","","null","","","null","47","","","","","","","","","","","","","","",""
"","ITI","","html-keyboard-response","319","97659","0.0-1.0-432.0","0","0","93680","","null","","","null","47","","","","","","","","","","","","","","NaN",""
"","S1","","html-keyboard-response","320","97914","0.0-1.0-434.0","0","0","93680","","null","","","null","48","","","","","","","","","","","","","","",""
"","ISI","","html-keyboard-response","321","98019","0.0-1.0-435.0","0","0","93680","","null","","","null","48","NaN","","","","","","","","","","","","","",""
"","S2","","html-keyboard-response","322","98274","0.0-1.0-436.0","0","0","93680","","134","","","75","48","","k","","","","","","","","","","","","",""
"","response","","html-keyboard-response","323","98776","0.0-1.0-437.0","0","0","93680","","null","","","null","48","","","4","48","test","non_adjacent","5","1","P.jpg","M.jpg","NaN","0","0","",""
"","too_slow_prompt","","html-keyboard-response","324","99781","0.0-1.0-439.0-0.0","1","0","93680","","null","","","null","","","","","","","","","","","","","","","",""
"","time_out","","html-keyboard-response","325","99885","0.0-1.0-440.0-0.0","0","0","93680","","null","","","null","48","","","","","","","","","","","","","","",""
"","ITI","","html-keyboard-response","326","100391","0.0-1.0-441.0","0","0","93680","","null","","","null","48","","","","","","","","","","","","","","NaN",""
"","S1","","html-keyboard-response","327","100647","0.0-1.0-443.0","0","0","93680","","null","","","null","49","","","","","","","","","","","","","","",""
"","ISI","","html-keyboard-response","328","100751","0.0-1.0-444.0","0","0","93680","","null","","","null","49","NaN","","","","","","","","","","","","","",""
"","S2","","html-keyboard-response","329","101007","0.0-1.0-445.0","0","0","93680","","202","","","75","49","","k","","","","","","","","","","","","",""
"","response","","html-keyboard-response","330","101220","0.0-1.0-446.0","0","0","93680","","211","","","75","49","","","4","49","test","adjacent","4","3","R.jpg","N.jpg","0","0","1","",""
"","feedback","","html-keyboard-response","331","101323","0.0-1.0-447.0-0.0","0","0","93680","","null","","","null","49","","","","","","","","","","","","","","",""
"","ITI","","html-keyboard-response","332","101830","0.0-1.0-450.0","0","0","93680","","null","","","null","49","","","","","","","","","","","","","","NaN",""
"","S1","","html-keyboard-response","333","102084","0.0-1.0-452.0","0","0","93680","","null","","","null","50","","","","","","","","","","","","","","",""
"","ISI","","html-keyboard-response","334","102186","0.0-1.0-453.0","0","0","93680","","97","","","75","50","k","","","","","","","","","","","","","",""
"","S2","","html-keyboard-response","335","102443","0.0-1.0-454.0","0","0","93680","","null","","","null","50","","NaN","","","","","","","","","","","","",""
"","response","","html-keyboard-response","336","102448","0.0-1.0-455.0","0","0","93680","","3","","","75","50","","","4","50","test","non_adjacent","6","3","Q.jpg","N.jpg","0","0","1","",""
"","feedback","","html-keyboard-response","337","102549","0.0-1.0-456.0-0.0","0","0","93680","","null","","","null","50","","","","","","","","","","","","","","",""
"","ITI","","html-keyboard-response","338","103056","0.0-1.0-459.0","0","0","93680","","133","","","75","50","","","","","","","","","","","","","","k",""
"","S1","","html-keyboard-response","339","103310","0.0-1.0-461.0","0","0","93680","","null","","","null","51","","","","","","","","","","","","","","",""
"","ISI","","html-keyboard-response","340","103414","0.0-1.0-462.0","0","0","93680","","null","","","null","51","NaN","","","","","","","","","","","","","",""
"","S2","","html-keyboard-response","341","103669","0.0-1.0-463.0","0","0","93680","","165","","","75","51","","k","","","","","","","","","","","","",""
"","response","","html-keyboard-response","342","104052","0.0-1.0-464.0","0","0","93680","","382","","","75","51","","","4","51","test","adjacent","3","4","N.jpg","R.jpg","0","1","0","",""
"","feedback","","html-keyboard-response","343","104156","0.0-1.0-465.0-0.0","0","0","93680","","null","","","null","51","","","","","","","","","","","","","","",""
"","time_out","","html-keyboard-response","344","104260","0.0-1.0-467.0-0.0","0","0","93680","","null","","","null","51","","","","","","","","","","","","","","",""
"","ITI","","html-keyboard-response","345","104762","0.0-1.0-468.0","0","0","93680","","41","","","75","51","","","","","","","","","","","","","","k",""
"","S1","","html-keyboard-response","346","105014","0.0-1.0-470.0","0","0","93680","","null","","","null","52","","","","","","","","","","","","","","",""
"","ISI","","html-keyboard-response","347","105120","0.0-1.0-471.0","0","0","93680","","41","","","75","52","k","","","","","","","","","","","","","",""
"","S2","","html-keyboard-response","348","105377","0.0-1.0-472.0","0","0","93680","","199","","","75","52","","k","","","","","","","","","","","","",""
"","response","","html-keyboard-response","349","105547","0.0-1.0-473.0","0","0","93680","","168","","","75","52","","","4","52","test","non_adjacent","5","3","P.jpg","N.jpg","0","0","1","",""
"","feedback","","html-keyboard-response","350","105653","0.0-1.0-474.0-0.0","0","0","93680","","null","","","null","52","","","","","","","","","","","","","","",""
"","ITI","","html-keyboard-response","351","106157","0.0-1.0-477.0","0","0","93680","","null","","","null","52","","","","","","","","","","","","","","NaN",""
"","S1","","html-keyboard-response","352","106413","0.0-1.0-479.0","0","0","93680","","null","","","null","53","","","","","","","","","","","","","","",""
"","ISI","","html-keyboard-response","353","106516","0.0-1.0-480.0","0","0","93680","","null","","","null","53","NaN","","","","","","","","","","","","","",""
"","S2","","html-keyboard-response","354","106772","0.0-1.0-481.0","0","0","93680","","12","","","75","53","","k","","","","","","","","","","","","",""
"","response","","html-keyboard-response","355","106789","0.0-1.0-482.0","0","0","93680","","16","","","75","53","","","4","53","test","non_adjacent","7","3","O.jpg","N.jpg","0","0","1","",""
"","feedback","","html-keyboard-response","356","106894","0.0-1.0-483.0-0.0","0","0","93680","","null","","","null","53","","","","","","","","","","","","","","",""
"","ITI","","html-keyboard-response","357","107400","0.0-1.0-486.0","0","0","93680","","139","","","75","53","","","","","","","","","","","","","","k",""
"","S1","","html-keyboard-response","358","107655","0.0-1.0-488.0","0","0","93680","","null","","","null","54","","","","","","","","","","","","","","",""
"","ISI","","html-keyboard-response","359","107759","0.0-1.0-489.0","0","0","93680","","null","","","null","54","NaN","","","","","","","","","","","","","",""
"","S2","","html-keyboard-response","360","108016","0.0-1.0-490.0","0","0","93680","","27","","","75","54","","k","","","","","","","","","","","","",""
"","response","","html-keyboard-response","361","108084","0.0-1.0-491.0","0","0","93680","","66","","","75","54","","","4","54","test","non_adjacent","1","4","M.jpg","R.jpg","0","1","0","",""
"","feedback","","html-keyboard-response","362","108189","0.0-1.0-492.0-0.0","0","0","93680","","null","","","null","54","","","","","","","","","","","","","","",""
"","time_out","","html-keyboard-response","363","108293","0.0-1.0-494.0-0.0","0","0","93680","","null","","","null","54","","","","","","","","","","","","","","",""
"","ITI","","html-keyboard-response","364","108797","0.0-1.0-495.0","0","0","93680","","61","","","75","54","","","","","","","","","","","","","","k",""
"","S1","","html-keyboard-response","365","109049","0.0-1.0-497.0","0","0","93680","","null","","","null","55","","","","","","","","","","","","","","",""
"","ISI","","html-keyboard-response","366","109151","0.0-1.0-498.0","0","0","93680","","null","","","null","55","NaN","","","","","","","","","","","","","",""
"","S2","","html-keyboard-response","367","109406","0.0-1.0-499.0","0","0","93680","","101","","","75","55","","k","","","","","","","","","","","","",""
"","response","","html-keyboard-response","368","109503","0.0-1.0-500.0","0","0","93680","","96","","","75","55","","","4","55","test","adjacent","2","3","L.jpg","N.jpg","0","1","0","",""
"","feedback","","html-keyboard-response","369","109607","0.0-1.0-501.0-0.0","0","0","93680","","null","","","null","55","","","","","","","","","","","","","","",""
"","time_out","","html-keyboard-response","370","109710","0.0-1.0-503.0-0.0","0","0","93680","","null","","","null","55","","","","","","","","","","","","","","",""
"","ITI","","html-keyboard-response","371","110214","0.0-1.0-504.0","0","0","93680","","322","","","75","55","","","","","","","","","","","","","","k",""
"","S1","","html-keyboard-response","372","110469","0.0-1.0-506.0","0","0","93680","","null","","","null","56","","","","","","","","","","","","","","",""
"","ISI","","html-keyboard-response","373","110573","0.0-1.0-507.0","0","0","93680","","null","","","null","56","NaN","","","","","","","","","","","","","",""
"","S2","","html-keyboard-response","374","110830","0.0-1.0-508.0","0","0","93680","","156","","","75","56","","k","","","","","","","","","","","","",""
"","response","","html-keyboard-response","375","111027","0.0-1.0-509.0","0","0","93680","","196","","","75","56","","","4","56","test","non_adjacent","2","4","L.jpg","R.jpg","0","1","0","",""
"","feedback","","html-keyboard-response","376","111132","0.0-1.0-510.0-0.0","0","0","93680","","null","","","null","56","","","","","","","","","","","","","","",""
"","time_out","","html-keyboard-response","377","111236","0.0-1.0-512.0-0.0","0","0","93680","","null","","","null","56","","","","","","","","","","","","","","",""
"","ITI","","html-keyboard-response","378","111741","0.0-1.0-513.0","0","0","93680","","73","","","75","56","","","","","","","","","","","","","","k",""
"","block_over","","html-keyboard-response","379","114711","0.0-1.0-514.0-0.0","0","0","93680","","2967","","","32","56","","","","","","","","","","","","","","",""
"","S1","","html-keyboard-response","380","114964","0.0-1.0-515.0","0","0","93680","","null","","","null","57","","","","","","","","","","","","","","",""
"","ISI","","html-keyboard-response","381","115070","0.0-1.0-516.0","0","0","93680","","22","","","75","57","k","","","","","","","","","","","","","",""
"","S2","","html-keyboard-response","382","115322","0.0-1.0-517.0","0","0","93680","","null","","","null","57","","NaN","","","","","","","","","","","","",""
"","response","","html-keyboard-response","383","115356","0.0-1.0-518.0","0","0","93680","","32","","","75","57","","","5","57","test","non_adjacent","2","5","L.jpg","P.jpg","0","1","0","",""
"","feedback","","html-keyboard-response","384","115458","0.0-1.0-519.0-0.0","0","0","93680","","null","","","null","57","","","","","","","","","","","","","","",""
"","time_out","","html-keyboard-response","385","115559","0.0-1.0-521.0-0.0","0","0","93680","","null","","","null","57","","","","","","","","","","","","","","",""
"","ITI","","html-keyboard-response","386","116064","0.0-1.0-522.0","0","0","93680","","14","","","75","57","","","","","","","","","","","","","","k",""
"","S1","","html-keyboard-response","387","116319","0.0-1.0-524.0","0","0","93680","","null","","","null","58","","","","","","","","","","","","","","",""
"","ISI","","html-keyboard-response","388","116424","0.0-1.0-525.0","0","0","93680","","null","","","null","58","NaN","","","","","","","","","","","","","",""
"","S2","","html-keyboard-response","389","116679","0.0-1.0-526.0","0","0","93680","","49","","","75","58","","k","","","","","","","","","","","","",""
"","response","","html-keyboard-response","390","116735","0.0-1.0-527.0","0","0","93680","","54","","","75","58","","","5","58","test","non_adjacent","6","4","Q.jpg","R.jpg","0","0","1","",""
"","feedback","","html-keyboard-response","391","116838","0.0-1.0-528.0-0.0","0","0","93680","","null","","","null","58","","","","","","","","","","","","","","",""
"","ITI","","html-keyboard-response","392","117344","0.0-1.0-531.0","0","0","93680","","448","","","75","58","","","","","","","","","","","","","","k",""
"","S1","","html-keyboard-response","393","117599","0.0-1.0-533.0","0","0","93680","","null","","","null","59","","","","","","","","","","","","","","",""
"","ISI","","html-keyboard-response","394","117702","0.0-1.0-534.0","0","0","93680","","null","","","null","59","NaN","","","","","","","","","","","","","",""
"","S2","","html-keyboard-response","395","117957","0.0-1.0-535.0","0","0","93680","","115","","","75","59","","k","","","","","","","","","","","","",""
"","response","","html-keyboard-response","396","118356","0.0-1.0-536.0","0","0","93680","","397","","","75","59","","","5","59","test","non_adjacent","1","6","M.jpg","Q.jpg","0","1","0","",""
"","feedback","","html-keyboard-response","397","118460","0.0-1.0-537.0-0.0","0","0","93680","","null","","","null","59","","","","","","","","","","","","","","",""
"","time_out","","html-keyboard-response","398","118564","0.0-1.0-539.0-0.0","0","0","93680","","null","","","null","59","","","","","","","","","","","","","","",""
"","ITI","","html-keyboard-response","399","119069","0.0-1.0-540.0","0","0","93680","","281","","","75","59","","","","","","","","","","","","","","k",""
"","S1","","html-keyboard-response","400","119323","0.0-1.0-542.0","0","0","93680","","null","","","null","60","","","","","","","","","","","","","","",""
"","ISI","","html-keyboard-response","401","119428","0.0-1.0-543.0","0","0","93680","","null","","","null","60","NaN","","","","","","","","","","","","","",""
"","S2","","html-keyboard-response","402","119680","0.0-1.0-544.0","0","0","93680","","149","","","75","60","","k","","","","","","","","","","","","",""
"","response","","html-keyboard-response","403","119980","0.0-1.0-545.0","0","0","93680","","299","","","75","60","","","5","60","test","adjacent","5","4","P.jpg","R.jpg","0","0","1","",""
"","feedback","","html-keyboard-response","404","120083","0.0-1.0-546.0-0.0","0","0","93680","","null","","","null","60","","","","","","","","","","","","","","",""
"","ITI","","html-keyboard-response","405","120586","0.0-1.0-549.0","0","0","93680","","389","","","75","60","","","","","","","","","","","","","","k",""
"","S1","","html-keyboard-response","406","120843","0.0-1.0-551.0","0","0","93680","","null","","","null","61","","","","","","","","","","","","","","",""
"","ISI","","html-keyboard-response","407","120948","0.0-1.0-552.0","0","0","93680","","null","","","null","61","NaN","","","","","","","","","","","","","",""
"","S2","","html-keyboard-response","408","121201","0.0-1.0-553.0","0","0","93680","","248","","","75","61","","k","","","","","","","","","","","","",""
"","response","","html-keyboard-response","409","121489","0.0-1.0-554.0","0","0","93680","","288","","","75","61","","","5","61","test","non_adjacent","7","4","O.jpg","R.jpg","0","0","1","",""
"","feedback","","html-keyboard-response","410","121594","0.0-1.0-555.0-0.0","0","0","93680","","null","","","null","61","","","","","","","","","","","","","","",""
"","ITI","","html-keyboard-response","411","122097","0.0-1.0-558.0","0","0","93680","","267","","","75","61","","","","","","","","","","","","","","k",""
"","S1","","html-keyboard-response","412","122354","0.0-1.0-560.0","0","0","93680","","null","","","null","62","","","","","","","","","","","","","","",""
"","ISI","","html-keyboard-response","413","122457","0.0-1.0-561.0","0","0","93680","","98","","","68","62","d","","","","","","","","","","","","","",""
"","S2","","html-keyboard-response","414","122710","0.0-1.0-562.0","0","0","93680","","null","","","null","62","","NaN","","","","","","","","","","","","",""
"","response","","html-keyboard-response","415","122894","0.0-1.0-563.0","0","0","93680","","182","","","68","62","","","5","62","test","adjacent","6","5","Q.jpg","P.jpg","1","0","0","",""
"","feedback","","html-keyboard-response","416","122996","0.0-1.0-564.0-0.0","0","0","93680","","null","","","null","62","","","","","","","","","","","","","","",""
"","time_out","","html-keyboard-response","417","123102","0.0-1.0-566.0-0.0","0","0","93680","","null","","","null","62","","","","","","","","","","","","","","",""
"","ITI","","html-keyboard-response","418","123608","0.0-1.0-567.0","0","0","93680","","183","","","68","62","","","","","","","","","","","","","","d",""
"","S1","","html-keyboard-response","419","123864","0.0-1.0-569.0","0","0","93680","","null","","","null","63","","","","","","","","","","","","","","",""
"","ISI","","html-keyboard-response","420","123968","0.0-1.0-570.0","0","0","93680","","null","","","null","63","NaN","","","","","","","","","","","","","",""
"","S2","","html-keyboard-response","421","124222","0.0-1.0-571.0","0","0","93680","","201","","","68","63","","d","","","","","","","","","","","","",""
"","response","","html-keyboard-response","422","124526","0.0-1.0-572.0","0","0","93680","","302","","","68","63","","","5","63","test","non_adjacent","7","5","O.jpg","P.jpg","1","0","0","",""
"","feedback","","html-keyboard-response","423","124627","0.0-1.0-573.0-0.0","0","0","93680","","null","","","null","63","","","","","","","","","","","","","","",""
"","time_out","","html-keyboard-response","424","124729","0.0-1.0-575.0-0.0","0","0","93680","","null","","","null","63","","","","","","","","","","","","","","",""
"","ITI","","html-keyboard-response","425","125231","0.0-1.0-576.0","0","0","93680","","182","","","68","63","","","","","","","","","","","","","","d",""
"","S1","","html-keyboard-response","426","125485","0.0-1.0-578.0","0","0","93680","","null","","","null","64","","","","","","","","","","","","","","",""
"","ISI","","html-keyboard-response","427","125591","0.0-1.0-579.0","0","0","93680","","72","","","68","64","d","","","","","","","","","","","","","",""
"","S2","","html-keyboard-response","428","125844","0.0-1.0-580.0","0","0","93680","","null","","","null","64","","NaN","","","","","","","","","","","","",""
"","response","","html-keyboard-response","429","125870","0.0-1.0-581.0","0","0","93680","","24","","","68","64","","","5","64","test","non_adjacent","1","5","M.jpg","P.jpg","1","1","1","",""
"","feedback","","html-keyboard-response","430","125975","0.0-1.0-582.0-0.0","0","0","93680","","null","","","null","64","","","","","","","","","","","","","","",""
"","ITI","","html-keyboard-response","431","126479","0.0-1.0-585.0","0","0","93680","","330","","","68","64","","","","","","","","","","","","","","d",""
"","S1","","html-keyboard-response","432","126734","0.0-1.0-587.0","0","0","93680","","null","","","null","65","","","","","","","","","","","","","","",""
"","ISI","","html-keyboard-response","433","126840","0.0-1.0-588.0","0","0","93680","","47","","","68","65","d","","","","","","","","","","","","","",""
"","S2","","html-keyboard-response","434","127096","0.0-1.0-589.0","0","0","93680","","null","","","null","65","","NaN","","","","","","","","","","","","",""
"","response","","html-keyboard-response","435","127102","0.0-1.0-590.0","0","0","93680","","5","","","68","65","","","5","65","test","non_adjacent","1","7","M.jpg","O.jpg","1","1","1","",""
"","feedback","","html-keyboard-response","436","127203","0.0-1.0-591.0-0.0","0","0","93680","","null","","","null","65","","","","","","","","","","","","","","",""
"","ITI","","html-keyboard-response","437","127710","0.0-1.0-594.0","0","0","93680","","246","","","68","65","","","","","","","","","","","","","","d",""
"","S1","","html-keyboard-response","438","127964","0.0-1.0-596.0","0","0","93680","","null","","","null","66","","","","","","","","","","","","","","",""
"","ISI","","html-keyboard-response","439","128068","0.0-1.0-597.0","0","0","93680","","55","","","68","66","d","","","","","","","","","","","","","",""
"","S2","","html-keyboard-response","440","128321","0.0-1.0-598.0","0","0","93680","","242","","","68","66","","d","","","","","","","","","","","","",""
"","response","","html-keyboard-response","441","128661","0.0-1.0-599.0","0","0","93680","","338","","","68","66","","","5","66","test","non_adjacent","2","6","L.jpg","Q.jpg","1","1","1","",""
"","feedback","","html-keyboard-response","442","128764","0.0-1.0-600.0-0.0","0","0","93680","","null","","","null","66","","","","","","","","","","","","","","",""
"","ITI","","html-keyboard-response","443","129266","0.0-1.0-603.0","0","0","93680","","273","","","68","66","","","","","","","","","","","","","","d",""
"","S1","","html-keyboard-response","444","129520","0.0-1.0-605.0","0","0","93680","","null","","","null","67","","","","","","","","","","","","","","",""
"","ISI","","html-keyboard-response","445","129626","0.0-1.0-606.0","0","0","93680","","null","","","null","67","NaN","","","","","","","","","","","","","",""
"","S2","","html-keyboard-response","446","129882","0.0-1.0-607.0","0","0","93680","","234","","","68","67","","d","","","","","","","","","","","","",""
"","response","","html-keyboard-response","447","130181","0.0-1.0-608.0","0","0","93680","","297","","","68","67","","","5","67","test","adjacent","6","7","Q.jpg","O.jpg","1","1","1","",""
"","feedback","","html-keyboard-response","448","130285","0.0-1.0-609.0-0.0","0","0","93680","","null","","","null","67","","","","","","","","","","","","","","",""
"","ITI","","html-keyboard-response","449","130791","0.0-1.0-612.0","0","0","93680","","433","","","68","67","","","","","","","","","","","","","","d",""
"","S1","","html-keyboard-response","450","131045","0.0-1.0-614.0","0","0","93680","","null","","","null","68","","","","","","","","","","","","","","",""
"","ISI","","html-keyboard-response","451","131151","0.0-1.0-615.0","0","0","93680","","null","","","null","68","NaN","","","","","","","","","","","","","",""
"","S2","","html-keyboard-response","452","131408","0.0-1.0-616.0","0","0","93680","","21","","","68","68","","d","","","","","","","","","","","","",""
"","response","","html-keyboard-response","453","131494","0.0-1.0-617.0","0","0","93680","","85","","","68","68","","","5","68","test","non_adjacent","5","7","P.jpg","O.jpg","1","1","1","",""
"","feedback","","html-keyboard-response","454","131601","0.0-1.0-618.0-0.0","0","0","93680","","null","","","null","68","","","","","","","","","","","","","","",""
"","ITI","","html-keyboard-response","455","132105","0.0-1.0-621.0","0","0","93680","","null","","","null","68","","","","","","","","","","","","","","NaN",""
"","S1","","html-keyboard-response","456","132358","0.0-1.0-623.0","0","0","93680","","null","","","null","69","","","","","","","","","","","","","","",""
"","ISI","","html-keyboard-response","457","132464","0.0-1.0-624.0","0","0","93680","","2","","","68","69","d","","","","","","","","","","","","","",""
"","S2","","html-keyboard-response","458","132717","0.0-1.0-625.0","0","0","93680","","237","","","68","69","","d","","","","","","","","","","","","",""
"","response","","html-keyboard-response","459","133038","0.0-1.0-626.0","0","0","93680","","319","","","68","69","","","5","69","test","non_adjacent","3","5","N.jpg","P.jpg","1","1","1","",""
"","feedback","","html-keyboard-response","460","133141","0.0-1.0-627.0-0.0","0","0","93680","","null","","","null","69","","","","","","","","","","","","","","",""
"","ITI","","html-keyboard-response","461","133648","0.0-1.0-630.0","0","0","93680","","null","","","null","69","","","","","","","","","","","","","","NaN",""
"","S1","","html-keyboard-response","462","133902","0.0-1.0-632.0","0","0","93680","","null","","","null","70","","","","","","","","","","","","","","",""
"","ISI","","html-keyboard-response","463","134003","0.0-1.0-633.0","0","0","93680","","null","","","null","70","NaN","","","","","","","","","","","","","",""
"","S2","","html-keyboard-response","464","134259","0.0-1.0-634.0","0","0","93680","","235","","","75","70","","k","","","","","","","","","","","","",""
"","response","","html-keyboard-response","465","134552","0.0-1.0-635.0","0","0","93680","","292","","","75","70","","","5","70","test","non_adjacent","4","7","R.jpg","O.jpg","0","1","0","",""
"","feedback","","html-keyboard-response","466","134656","0.0-1.0-636.0-0.0","0","0","93680","","null","","","null","70","","","","","","","","","","","","","","",""
"","time_out","","html-keyboard-response","467","134759","0.0-1.0-638.0-0.0","0","0","93680","","null","","","null","70","","","","","","","","","","","","","","",""
"","ITI","","html-keyboard-response","468","135264","0.0-1.0-639.0","0","0","93680","","null","","","null","70","","","","","","","","","","","","","","NaN",""
"","S1","","html-keyboard-response","469","135516","0.0-1.0-641.0","0","0","93680","","null","","","null","71","","","","","","","","","","","","","","",""
"","ISI","","html-keyboard-response","470","135623","0.0-1.0-642.0","0","0","93680","","null","","","null","71","NaN","","","","","","","","","","","","","",""
"","S2","","html-keyboard-response","471","135876","0.0-1.0-643.0","0","0","93680","","null","","","null","71","","NaN","","","","","","","","","","","","",""
"","response","","html-keyboard-response","472","135881","0.0-1.0-644.0","0","0","93680","","4","","","75","71","","","5","71","test","non_adjacent","3","6","N.jpg","Q.jpg","0","1","0","",""
"","feedback","","html-keyboard-response","473","135984","0.0-1.0-645.0-0.0","0","0","93680","","null","","","null","71","","","","","","","","","","","","","","",""
"","time_out","","html-keyboard-response","474","136090","0.0-1.0-647.0-0.0","0","0","93680","","null","","","null","71","","","","","","","","","","","","","","",""
"","ITI","","html-keyboard-response","475","136597","0.0-1.0-648.0","0","0","93680","","null","","","null","71","","","","","","","","","","","","","","NaN",""
"","S1","","html-keyboard-response","476","136854","0.0-1.0-650.0","0","0","93680","","null","","","null","72","","","","","","","","","","","","","","",""
"","ISI","","html-keyboard-response","477","136960","0.0-1.0-651.0","0","0","93680","","50","","","75","72","k","","","","","","","","","","","","","",""
"","S2","","html-keyboard-response","478","137212","0.0-1.0-652.0","0","0","93680","","248","","","75","72","","k","","","","","","","","","","","","",""
"","response","","html-keyboard-response","479","137714","0.0-1.0-653.0","0","0","93680","","null","","","null","72","","","5","72","test","adjacent","4","5","R.jpg","P.jpg","NaN","1","0","",""
"","too_slow_prompt","","html-keyboard-response","480","138720","0.0-1.0-655.0-0.0","1","0","93680","","null","","","null","","","","","","","","","","","","","","","",""
"","time_out","","html-keyboard-response","481","138826","0.0-1.0-656.0-0.0","0","0","93680","","null","","","null","72","","","","","","","","","","","","","","",""
"","ITI","","html-keyboard-response","482","139329","0.0-1.0-657.0","0","0","93680","","277","","","75","72","","","","","","","","","","","","","","k",""
"","S1","","html-keyboard-response","483","139581","0.0-1.0-659.0","0","0","93680","","null","","","null","73","","","","","","","","","","","","","","",""
"","ISI","","html-keyboard-response","484","139684","0.0-1.0-660.0","0","0","93680","","69","","","75","73","k","","","","","","","","","","","","","",""
"","S2","","html-keyboard-response","485","139935","0.0-1.0-661.0","0","0","93680","","250","","","75","73","","k","","","","","","","","","","","","",""
"","response","","html-keyboard-response","486","140414","0.0-1.0-662.0","0","0","93680","","478","","","75","73","","","5","73","test","adjacent","5","6","P.jpg","Q.jpg","0","1","0","",""
"","feedback","","html-keyboard-response","487","140516","0.0-1.0-663.0-0.0","0","0","93680","","null","","","null","73","","","","","","","","","","","","","","",""
"","time_out","","html-keyboard-response","488","140619","0.0-1.0-665.0-0.0","0","0","93680","","null","","","null","73","","","","","","","","","","","","","","",""
"","ITI","","html-keyboard-response","489","141124","0.0-1.0-666.0","0","0","93680","","324","","","75","73","","","","","","","","","","","","","","k",""
"","S1","","html-keyboard-response","490","141380","0.0-1.0-668.0","0","0","93680","","null","","","null","74","","","","","","","","","","","","","","",""
"","ISI","","html-keyboard-response","491","141485","0.0-1.0-669.0","0","0","93680","","59","","","75","74","k","","","","","","","","","","","","","",""
"","S2","","html-keyboard-response","492","141739","0.0-1.0-670.0","0","0","93680","","null","","","null","74","","NaN","","","","","","","","","","","","",""
"","response","","html-keyboard-response","493","141818","0.0-1.0-671.0","0","0","93680","","79","","","75","74","","","5","74","test","adjacent","7","6","O.jpg","Q.jpg","0","0","1","",""
"","feedback","","html-keyboard-response","494","141922","0.0-1.0-672.0-0.0","0","0","93680","","null","","","null","74","","","","","","","","","","","","","","",""
"","ITI","","html-keyboard-response","495","142428","0.0-1.0-675.0","0","0","93680","","null","","","null","74","","","","","","","","","","","","","","NaN",""
"","S1","","html-keyboard-response","496","142685","0.0-1.0-677.0","0","0","93680","","null","","","null","75","","","","","","","","","","","","","","",""
"","ISI","","html-keyboard-response","497","142791","0.0-1.0-678.0","0","0","93680","","81","","","75","75","k","","","","","","","","","","","","","",""
"","S2","","html-keyboard-response","498","143045","0.0-1.0-679.0","0","0","93680","","245","","","75","75","","k","","","","","","","","","","","","",""
"","response","","html-keyboard-response","499","143547","0.0-1.0-680.0","0","0","93680","","null","","","null","75","","","5","75","test","non_adjacent","3","7","N.jpg","O.jpg","NaN","1","0","",""
"","too_slow_prompt","","html-keyboard-response","500","144552","0.0-1.0-682.0-0.0","1","0","93680","","null","","","null","","","","","","","","","","","","","","","",""
"","time_out","","html-keyboard-response","501","144657","0.0-1.0-683.0-0.0","0","0","93680","","null","","","null","75","","","","","","","","","","","","","","",""
"","ITI","","html-keyboard-response","502","145159","0.0-1.0-684.0","0","0","93680","","269","","","75","75","","","","","","","","","","","","","","k",""
"","S1","","html-keyboard-response","503","145414","0.0-1.0-686.0","0","0","93680","","null","","","null","76","","","","","","","","","","","","","","",""
"","ISI","","html-keyboard-response","504","145519","0.0-1.0-687.0","0","0","93680","","38","","","75","76","k","","","","","","","","","","","","","",""
"","S2","","html-keyboard-response","505","145774","0.0-1.0-688.0","0","0","93680","","232","","","75","76","","k","","","","","","","","","","","","",""
"","response","","html-keyboard-response","506","146059","0.0-1.0-689.0","0","0","93680","","283","","","75","76","","","5","76","test","non_adjacent","4","6","R.jpg","Q.jpg","0","1","0","",""
"","feedback","","html-keyboard-response","507","146164","0.0-1.0-690.0-0.0","0","0","93680","","null","","","null","76","","","","","","","","","","","","","","",""
"","time_out","","html-keyboard-response","508","146267","0.0-1.0-692.0-0.0","0","0","93680","","null","","","null","76","","","","","","","","","","","","","","",""
"","ITI","","html-keyboard-response","509","146772","0.0-1.0-693.0","0","0","93680","","132","","","75","76","","","","","","","","","","","","","","k",""
"","S1","","html-keyboard-response","510","147029","0.0-1.0-695.0","0","0","93680","","null","","","null","77","","","","","","","","","","","","","","",""
"","ISI","","html-keyboard-response","511","147131","0.0-1.0-696.0","0","0","93680","","96","","","75","77","k","","","","","","","","","","","","","",""
"","S2","","html-keyboard-response","512","147384","0.0-1.0-697.0","0","0","93680","","null","","","null","77","","NaN","","","","","","","","","","","","",""
"","response","","html-keyboard-response","513","147395","0.0-1.0-698.0","0","0","93680","","9","","","75","77","","","5","77","test","non_adjacent","2","7","L.jpg","O.jpg","0","1","0","",""
"","feedback","","html-keyboard-response","514","147497","0.0-1.0-699.0-0.0","0","0","93680","","null","","","null","77","","","","","","","","","","","","","","",""
"","time_out","","html-keyboard-response","515","147600","0.0-1.0-701.0-0.0","0","0","93680","","null","","","null","77","","","","","","","","","","","","","","",""
"","ITI","","html-keyboard-response","516","148105","0.0-1.0-702.0","0","0","93680","","68","","","75","77","","","","","","","","","","","","","","k",""
"","block_over","","html-keyboard-response","517","151308","0.0-1.0-703.0-0.0","0","0","93680","","3200","","","32","77","","","","","","","","","","","","","","",""
"","S1","","html-keyboard-response","518","151565","0.0-1.0-704.0","0","0","93680","","null","","","null","78","","","","","","","","","","","","","","",""
"","ISI","","html-keyboard-response","519","151672","0.0-1.0-705.0","0","0","93680","","63","","","75","78","k","","","","","","","","","","","","","",""
"","S2","","html-keyboard-response","520","151927","0.0-1.0-706.0","0","0","93680","","212","","","75","78","","k","","","","","","","","","","","","",""
"","response","","html-keyboard-response","521","152076","0.0-1.0-707.0","0","0","93680","","147","","","75","78","","","6","78","test","non_adjacent","5","2","P.jpg","L.jpg","0","0","1","",""
"","feedback","","html-keyboard-response","522","152178","0.0-1.0-708.0-0.0","0","0","93680","","null","","","null","78","","","","","","","","","","","","","","",""
"","ITI","","html-keyboard-response","523","152681","0.0-1.0-711.0","0","0","93680","","99","","","75","78","","","","","","","","","","","","","","k",""
"","S1","","html-keyboard-response","524","152936","0.0-1.0-713.0","0","0","93680","","null","","","null","79","","","","","","","","","","","","","","",""
"","ISI","","html-keyboard-response","525","153041","0.0-1.0-714.0","0","0","93680","","null","","","null","79","NaN","","","","","","","","","","","","","",""
"","S2","","html-keyboard-response","526","153296","0.0-1.0-715.0","0","0","93680","","91","","","75","79","","k","","","","","","","","","","","","",""
"","response","","html-keyboard-response","527","153331","0.0-1.0-716.0","0","0","93680","","34","","","75","79","","","6","79","test","non_adjacent","7","2","O.jpg","L.jpg","0","0","1","",""
"","feedback","","html-keyboard-response","528","153434","0.0-1.0-717.0-0.0","0","0","93680","","null","","","null","79","","","","","","","","","","","","","","",""
"","ITI","","html-keyboard-response","529","153939","0.0-1.0-720.0","0","0","93680","","133","","","75","79","","","","","","","","","","","","","","k",""
"","S1","","html-keyboard-response","530","154194","0.0-1.0-722.0","0","0","93680","","null","","","null","80","","","","","","","","","","","","","","",""
"","ISI","","html-keyboard-response","531","154296","0.0-1.0-723.0","0","0","93680","","67","","","75","80","k","","","","","","","","","","","","","",""
"","S2","","html-keyboard-response","532","154550","0.0-1.0-724.0","0","0","93680","","175","","","75","80","","k","","","","","","","","","","","","",""
"","response","","html-keyboard-response","533","154792","0.0-1.0-725.0","0","0","93680","","240","","","75","80","","","6","80","test","non_adjacent","6","1","Q.jpg","M.jpg","0","0","1","",""
"","feedback","","html-keyboard-response","534","154895","0.0-1.0-726.0-0.0","0","0","93680","","null","","","null","80","","","","","","","","","","","","","","",""
"","ITI","","html-keyboard-response","535","155401","0.0-1.0-729.0","0","0","93680","","141","","","75","80","","","","","","","","","","","","","","k",""
"","S1","","html-keyboard-response","536","155654","0.0-1.0-731.0","0","0","93680","","null","","","null","81","","","","","","","","","","","","","","",""
"","ISI","","html-keyboard-response","537","155759","0.0-1.0-732.0","0","0","93680","","88","","","75","81","k","","","","","","","","","","","","","",""
"","S2","","html-keyboard-response","538","156013","0.0-1.0-733.0","0","0","93680","","null","","","null","81","","NaN","","","","","","","","","","","","",""
"","response","","html-keyboard-response","539","156051","0.0-1.0-734.0","0","0","93680","","36","","","75","81","","","6","81","test","adjacent","1","2","M.jpg","L.jpg","0","1","0","",""
"","feedback","","html-keyboard-response","540","156158","0.0-1.0-735.0-0.0","0","0","93680","","null","","","null","81","","","","","","","","","","","","","","",""
"","time_out","","html-keyboard-response","541","156262","0.0-1.0-737.0-0.0","0","0","93680","","null","","","null","81","","","","","","","","","","","","","","",""
"","ITI","","html-keyboard-response","542","156766","0.0-1.0-738.0","0","0","93680","","34","","","75","81","","","","","","","","","","","","","","k",""
"","S1","","html-keyboard-response","543","157019","0.0-1.0-740.0","0","0","93680","","null","","","null","82","","","","","","","","","","","","","","",""
"","ISI","","html-keyboard-response","544","157123","0.0-1.0-741.0","0","0","93680","","29","","","75","82","k","","","","","","","","","","","","","",""
"","S2","","html-keyboard-response","545","157375","0.0-1.0-742.0","0","0","93680","","164","","","75","82","","k","","","","","","","","","","","","",""
"","response","","html-keyboard-response","546","157506","0.0-1.0-743.0","0","0","93680","","129","","","75","82","","","6","82","test","non_adjacent","6","3","Q.jpg","N.jpg","0","0","1","",""
"","feedback","","html-keyboard-response","547","157610","0.0-1.0-744.0-0.0","0","0","93680","","null","","","null","82","","","","","","","","","","","","","","",""
"","ITI","","html-keyboard-response","548","158113","0.0-1.0-747.0","0","0","93680","","349","","","75","82","","","","","","","","","","","","","","k",""
"","S1","","html-keyboard-response","549","158365","0.0-1.0-749.0","0","0","93680","","null","","","null","83","","","","","","","","","","","","","","",""
"","ISI","","html-keyboard-response","550","158466","0.0-1.0-750.0","0","0","93680","","17","","","75","83","k","","","","","","","","","","","","","",""
"","S2","","html-keyboard-response","551","158718","0.0-1.0-751.0","0","0","93680","","134","","","75","83","","k","","","","","","","","","","","","",""
"","response","","html-keyboard-response","552","158833","0.0-1.0-752.0","0","0","93680","","113","","","75","83","","","6","83","test","non_adjacent","3","1","N.jpg","M.jpg","0","0","1","",""
"","feedback","","html-keyboard-response","553","158937","0.0-1.0-753.0-0.0","0","0","93680","","null","","","null","83","","","","","","","","","","","","","","",""
"","ITI","","html-keyboard-response","554","159438","0.0-1.0-756.0","0","0","93680","","128","","","75","83","","","","","","","","","","","","","","k",""
"","S1","","html-keyboard-response","555","159696","0.0-1.0-758.0","0","0","93680","","null","","","null","84","","","","","","","","","","","","","","",""
"","ISI","","html-keyboard-response","556","159798","0.0-1.0-759.0","0","0","93680","","57","","","75","84","k","","","","","","","","","","","","","",""
"","S2","","html-keyboard-response","557","160051","0.0-1.0-760.0","0","0","93680","","223","","","75","84","","k","","","","","","","","","","","","",""
"","response","","html-keyboard-response","558","160234","0.0-1.0-761.0","0","0","93680","","181","","","75","84","","","6","84","test","non_adjacent","7","1","O.jpg","M.jpg","0","0","1","",""
"","feedback","","html-keyboard-response","559","160335","0.0-1.0-762.0-0.0","0","0","93680","","null","","","null","84","","","","","","","","","","","","","","",""
"","ITI","","html-keyboard-response","560","160837","0.0-1.0-765.0","0","0","93680","","119","","","75","84","","","","","","","","","","","","","","k",""
"","S1","","html-keyboard-response","561","161094","0.0-1.0-767.0","0","0","93680","","null","","","null","85","","","","","","","","","","","","","","",""
"","ISI","","html-keyboard-response","562","161198","0.0-1.0-768.0","0","0","93680","","null","","","null","85","NaN","","","","","","","","","","","","","",""
"","S2","","html-keyboard-response","563","161451","0.0-1.0-769.0","0","0","93680","","6","","","75","85","","k","","","","","","","","","","","","",""
"","response","","html-keyboard-response","564","161656","0.0-1.0-770.0","0","0","93680","","203","","","75","85","","","6","85","test","non_adjacent","4","2","R.jpg","L.jpg","0","0","1","",""
"","feedback","","html-keyboard-response","565","161760","0.0-1.0-771.0-0.0","0","0","93680","","null","","","null","85","","","","","","","","","","","","","","",""
"","ITI","","html-keyboard-response","566","162263","0.0-1.0-774.0","0","0","93680","","98","","","75","85","","","","","","","","","","","","","","k",""
"","S1","","html-keyboard-response","567","162516","0.0-1.0-776.0","0","0","93680","","null","","","null","86","","","","","","","","","","","","","","",""
"","ISI","","html-keyboard-response","568","162620","0.0-1.0-777.0","0","0","93680","","null","","","null","86","NaN","","","","","","","","","","","","","",""
"","S2","","html-keyboard-response","569","162875","0.0-1.0-778.0","0","0","93680","","172","","","75","86","","k","","","","","","","","","","","","",""
"","response","","html-keyboard-response","570","163047","0.0-1.0-779.0","0","0","93680","","171","","","75","86","","","6","86","test","non_adjacent","5","3","P.jpg","N.jpg","0","0","1","",""
"","feedback","","html-keyboard-response","571","163149","0.0-1.0-780.0-0.0","0","0","93680","","null","","","null","86","","","","","","","","","","","","","","",""
"","ITI","","html-keyboard-response","572","163654","0.0-1.0-783.0","0","0","93680","","95","","","75","86","","","","","","","","","","","","","","k",""
"","S1","","html-keyboard-response","573","163909","0.0-1.0-785.0","0","0","93680","","null","","","null","87","","","","","","","","","","","","","","",""
"","ISI","","html-keyboard-response","574","164012","0.0-1.0-786.0","0","0","93680","","null","","","null","87","NaN","","","","","","","","","","","","","",""
"","S2","","html-keyboard-response","575","164266","0.0-1.0-787.0","0","0","93680","","null","","","null","87","","NaN","","","","","","","","","","","","",""
"","response","","html-keyboard-response","576","164358","0.0-1.0-788.0","0","0","93680","","91","","","75","87","","","6","87","test","non_adjacent","6","2","Q.jpg","L.jpg","0","0","1","",""
"","feedback","","html-keyboard-response","577","164463","0.0-1.0-789.0-0.0","0","0","93680","","null","","","null","87","","","","","","","","","","","","","","",""
"","ITI","","html-keyboard-response","578","164967","0.0-1.0-792.0","0","0","93680","","null","","","null","87","","","","","","","","","","","","","","NaN",""
"","S1","","html-keyboard-response","579","165219","0.0-1.0-794.0","0","0","93680","","null","","","null","88","","","","","","","","","","","","","","",""
"","ISI","","html-keyboard-response","580","165321","0.0-1.0-795.0","0","0","93680","","98","","","75","88","k","","","","","","","","","","","","","",""
"","S2","","html-keyboard-response","581","165578","0.0-1.0-796.0","0","0","93680","","201","","","75","88","","k","","","","","","","","","","","","",""
"","response","","html-keyboard-response","582","165744","0.0-1.0-797.0","0","0","93680","","164","","","75","88","","","6","88","test","non_adjacent","7","3","O.jpg","N.jpg","0","0","1","",""
"","feedback","","html-keyboard-response","583","165847","0.0-1.0-798.0-0.0","0","0","93680","","null","","","null","88","","","","","","","","","","","","","","",""
"","ITI","","html-keyboard-response","584","166350","0.0-1.0-801.0","0","0","93680","","null","","","null","88","","","","","","","","","","","","","","NaN",""
"","S1","","html-keyboard-response","585","166607","0.0-1.0-803.0","0","0","93680","","null","","","null","89","","","","","","","","","","","","","","",""
"","ISI","","html-keyboard-response","586","166713","0.0-1.0-804.0","0","0","93680","","39","","","75","89","k","","","","","","","","","","","","","",""
"","S2","","html-keyboard-response","587","166965","0.0-1.0-805.0","0","0","93680","","212","","","75","89","","k","","","","","","","","","","","","",""
"","response","","html-keyboard-response","588","167179","0.0-1.0-806.0","0","0","93680","","212","","","75","89","","","6","89","test","adjacent","3","4","N.jpg","R.jpg","0","1","0","",""
"","feedback","","html-keyboard-response","589","167284","0.0-1.0-807.0-0.0","0","0","93680","","null","","","null","89","","","","","","","","","","","","","","",""
"","time_out","","html-keyboard-response","590","167391","0.0-1.0-809.0-0.0","0","0","93680","","null","","","null","89","","","","","","","","","","","","","","",""
"","ITI","","html-keyboard-response","591","167897","0.0-1.0-810.0","0","0","93680","","88","","","75","89","","","","","","","","","","","","","","k",""
"","S1","","html-keyboard-response","592","168151","0.0-1.0-812.0","0","0","93680","","null","","","null","90","","","","","","","","","","","","","","",""
"","ISI","","html-keyboard-response","593","168253","0.0-1.0-813.0","0","0","93680","","null","","","null","90","NaN","","","","","","","","","","","","","",""
"","S2","","html-keyboard-response","594","168507","0.0-1.0-814.0","0","0","93680","","0","","","75","90","","k","","","","","","","","","","","","",""
"","response","","html-keyboard-response","595","168609","0.0-1.0-815.0","0","0","93680","","99","","","75","90","","","6","90","test","non_adjacent","5","1","P.jpg","M.jpg","0","0","1","",""
"","feedback","","html-keyboard-response","596","168714","0.0-1.0-816.0-0.0","0","0","93680","","null","","","null","90","","","","","","","","","","","","","","",""
"","ITI","","html-keyboard-response","597","169216","0.0-1.0-819.0","0","0","93680","","183","","","75","90","","","","","","","","","","","","","","k",""
"","S1","","html-keyboard-response","598","169469","0.0-1.0-821.0","0","0","93680","","null","","","null","91","","","","","","","","","","","","","","",""
"","ISI","","html-keyboard-response","599","169574","0.0-1.0-822.0","0","0","93680","","null","","","null","91","NaN","","","","","","","","","","","","","",""
"","S2","","html-keyboard-response","600","169826","0.0-1.0-823.0","0","0","93680","","117","","","75","91","","k","","","","","","","","","","","","",""
"","response","","html-keyboard-response","601","170164","0.0-1.0-824.0","0","0","93680","","336","","","75","91","","","6","91","test","adjacent","4","3","R.jpg","N.jpg","0","0","1","",""
"","feedback","","html-keyboard-response","602","170266","0.0-1.0-825.0-0.0","0","0","93680","","null","","","null","91","","","","","","","","","","","","","","",""
"","ITI","","html-keyboard-response","603","170772","0.0-1.0-828.0","0","0","93680","","221","","","75","91","","","","","","","","","","","","","","k",""
"","S1","","html-keyboard-response","604","171025","0.0-1.0-830.0","0","0","93680","","null","","","null","92","","","","","","","","","","","","","","",""
