"success","ttype","start_time","trial_type","trial_index","time_elapsed","internal_node_id","warning","missed_checkup","PID","view_history","rt","responses","repeat_instructions","key_press","index","keypress_isi","keypress_S2","block","trial_num","phase","group_type","pair_type","S1_stim","S2_stim","S1_img","S2_img","S1_chosen","S1_higher","accuracy","keypress_iti","total_bonus_tally"
"true","full_screen","d03072023hr1752","fullscreen","0","51080","0.0-0.0","0","0","54033","","","","","","","","","","","","","","","","","","","","","",""
"","instructions","","instructions","1","278753","0.0-1.0-0.0-0.0","0","0","54033","[{""page_index"":0,""viewing_time"":14390},{""page_index"":1,""viewing_time"":52215},{""page_index"":2,""viewing_time"":155729},{""page_index"":3,""viewing_time"":5335}]","227670","","","","","","","","","","","","","","","","","","","",""
"","comprehension_check","","survey-multi-choice","2","455870","0.0-1.0-0.0-1.0","0","0","54033","","177099","{""Q0"":""True"",""Q1"":""K"",""Q2"":""Once the second image appears and while the screen 'MAKE A CHOICE' is shown"",""Q3"":""Green mark"",""Q4"":""either D or K""}","0","","","","","","","","","","","","","","","","","",""
"","start_exp","","html-keyboard-response","3","459286","0.0-1.0-1.0","0","0","54033","","3409","","","32","","","","","","","","","","","","","","","","",""
"","S1","","html-keyboard-response","4","459543","0.0-1.0-2.0","0","0","54033","","null","","","null","0","","","","","","","","","","","","","","","",""
"","ISI","","html-keyboard-response","5","460552","0.0-1.0-3.0","0","0","54033","","null","","","null","0","NaN","","","","","","","","","","","","","","",""
"","S2","","html-keyboard-response","6","460808","0.0-1.0-4.0","0","0","54033","","null","","","null","0","","NaN","","","","","","","","","","","","","",""
"","response","","html-keyboard-response","7","461740","0.0-1.0-5.0-0.0","0","0","54033","","927","","","68","0","","","1","0","training","adjacent","EF","5","6","O.jpg","R.jpg","0","1","0","",""
"","feedback","","html-keyboard-response","8","462752","0.0-1.0-6.0-0.0","0","0","54033","","null","","","null","0","","","","","","","","","","","","","","","",""
"","time_out","","html-keyboard-response","9","464761","0.0-1.0-8.0-0.0","0","0","54033","","null","","","null","0","","","","","","","","","","","","","","","",""
"","ITI","","html-keyboard-response","10","465771","0.0-1.0-9.0","0","0","54033","","null","","","null","0","","","","","","","","","","","","","","","NaN",""
"","S1","","html-keyboard-response","11","466031","0.0-1.0-11.0","0","0","54033","","null","","","null","1","","","","","","","","","","","","","","","",""
"","ISI","","html-keyboard-response","12","467040","0.0-1.0-12.0","0","0","54033","","116","","","32","1","space","","","","","","","","","","","","","","",""
"","S2","","html-keyboard-response","13","467295","0.0-1.0-13.0","0","0","54033","","null","","","null","1","","NaN","","","","","","","","","","","","","",""
"","response","","html-keyboard-response","14","468222","0.0-1.0-14.0-0.0","0","0","54033","","925","","","75","1","","","1","1","training","adjacent","CD","3","4","N.jpg","M.jpg","1","1","1","",""
"","feedback","","html-keyboard-response","15","469232","0.0-1.0-15.0-0.0","0","0","54033","","null","","","null","1","","","","","","","","","","","","","","","",""
"","ITI","","html-keyboard-response","16","470240","0.0-1.0-18.0","0","0","54033","","null","","","null","1","","","","","","","","","","","","","","","NaN",""
"","S1","","html-keyboard-response","17","470496","0.0-1.0-20.0","0","0","54033","","null","","","null","2","","","","","","","","","","","","","","","",""
"","ISI","","html-keyboard-response","18","471504","0.0-1.0-21.0","0","0","54033","","null","","","null","2","NaN","","","","","","","","","","","","","","",""
"","S2","","html-keyboard-response","19","471759","0.0-1.0-22.0","0","0","54033","","null","","","null","2","","NaN","","","","","","","","","","","","","",""
"","response","","html-keyboard-response","20","473520","0.0-1.0-23.0-0.0","0","0","54033","","null","","","null","2","","","1","2","training","adjacent","DC","4","3","M.jpg","N.jpg","NaN","0","0","",""
"","too_slow_prompt","","html-keyboard-response","21","474527","0.0-1.0-25.0-0.0","1","0","54033","","null","","","null","","","","","","","","","","","","","","","","",""
"","time_out","","html-keyboard-response","22","476536","0.0-1.0-26.0-0.0","0","0","54033","","null","","","null","2","","","","","","","","","","","","","","","",""
"","ITI","","html-keyboard-response","23","477544","0.0-1.0-27.0","0","0","54033","","null","","","null","2","","","","","","","","","","","","","","","NaN",""
"","S1","","html-keyboard-response","24","477799","0.0-1.0-29.0","0","0","54033","","null","","","null","3","","","","","","","","","","","","","","","",""
"","ISI","","html-keyboard-response","25","478808","0.0-1.0-30.0","0","0","54033","","221","","","32","3","space","","","","","","","","","","","","","","",""
"","S2","","html-keyboard-response","26","479063","0.0-1.0-31.0","0","0","54033","","null","","","null","3","","NaN","","","","","","","","","","","","","",""
"","response","","html-keyboard-response","27","479409","0.0-1.0-32.0-0.0","0","0","54033","","343","","","68","3","","","1","3","training","adjacent","AB","1","2","P.jpg","L.jpg","0","1","0","",""
"","feedback","","html-keyboard-response","28","480417","0.0-1.0-33.0-0.0","0","0","54033","","null","","","null","3","","","","","","","","","","","","","","","",""
"","time_out","","html-keyboard-response","29","482423","0.0-1.0-35.0-0.0","0","0","54033","","null","","","null","3","","","","","","","","","","","","","","","",""
"","ITI","","html-keyboard-response","30","483431","0.0-1.0-36.0","0","0","54033","","null","","","null","3","","","","","","","","","","","","","","","NaN",""
"","S1","","html-keyboard-response","31","483688","0.0-1.0-38.0","0","0","54033","","null","","","null","4","","","","","","","","","","","","","","","",""
"","ISI","","html-keyboard-response","32","484695","0.0-1.0-39.0","0","0","54033","","502","","","75","4","k","","","","","","","","","","","","","","",""
"","S2","","html-keyboard-response","33","484893","0.0-1.0-40.0","0","0","54033","","195","","","68","4","","d","1","4","training","adjacent","BC","2","3","L.jpg","N.jpg","0","1","0","",""
"","feedback","","html-keyboard-response","34","485904","0.0-1.0-42.0-0.0","0","0","54033","","null","","","null","4","","","","","","","","","","","","","","","",""
"","time_out","","html-keyboard-response","35","487912","0.0-1.0-44.0-0.0","0","0","54033","","null","","","null","4","","","","","","","","","","","","","","","",""
"","ITI","","html-keyboard-response","36","488919","0.0-1.0-45.0","0","0","54033","","721","","","32","4","","","","","","","","","","","","","","","space",""
"","S1","","html-keyboard-response","37","489175","0.0-1.0-47.0","0","0","54033","","null","","","null","5","","","","","","","","","","","","","","","",""
"","ISI","","html-keyboard-response","38","490183","0.0-1.0-48.0","0","0","54033","","412","","","75","5","k","","","","","","","","","","","","","","",""
"","S2","","html-keyboard-response","39","490440","0.0-1.0-49.0","0","0","54033","","null","","","null","5","","NaN","","","","","","","","","","","","","",""
"","response","","html-keyboard-response","40","490651","0.0-1.0-50.0-0.0","0","0","54033","","209","","","75","5","","","1","5","training","adjacent","FE","6","5","R.jpg","O.jpg","1","0","0","",""
"","feedback","","html-keyboard-response","41","491655","0.0-1.0-51.0-0.0","0","0","54033","","null","","","null","5","","","","","","","","","","","","","","","",""
"","time_out","","html-keyboard-response","42","493663","0.0-1.0-53.0-0.0","0","0","54033","","null","","","null","5","","","","","","","","","","","","","","","",""
"","ITI","","html-keyboard-response","43","494670","0.0-1.0-54.0","0","0","54033","","158","","","68","5","","","","","","","","","","","","","","","d",""
"","S1","","html-keyboard-response","44","494927","0.0-1.0-56.0","0","0","54033","","null","","","null","6","","","","","","","","","","","","","","","",""
"","ISI","","html-keyboard-response","45","495935","0.0-1.0-57.0","0","0","54033","","398","","","68","6","d","","","","","","","","","","","","","","",""
"","S2","","html-keyboard-response","46","496124","0.0-1.0-58.0","0","0","54033","","186","","","75","6","","k","1","6","training","adjacent","FE","6","5","R.jpg","O.jpg","1","0","0","",""
"","feedback","","html-keyboard-response","47","497127","0.0-1.0-60.0-0.0","0","0","54033","","null","","","null","6","","","","","","","","","","","","","","","",""
"","time_out","","html-keyboard-response","48","499135","0.0-1.0-62.0-0.0","0","0","54033","","null","","","null","6","","","","","","","","","","","","","","","",""
"","ITI","","html-keyboard-response","49","500142","0.0-1.0-63.0","0","0","54033","","null","","","null","6","","","","","","","","","","","","","","","NaN",""
"","S1","","html-keyboard-response","50","500400","0.0-1.0-65.0","0","0","54033","","null","","","null","7","","","","","","","","","","","","","","","",""
"","ISI","","html-keyboard-response","51","501407","0.0-1.0-66.0","0","0","54033","","545","","","75","7","k","","","","","","","","","","","","","","",""
"","S2","","html-keyboard-response","52","501663","0.0-1.0-67.0","0","0","54033","","null","","","null","7","","NaN","","","","","","","","","","","","","",""
"","response","","html-keyboard-response","53","502146","0.0-1.0-68.0-0.0","0","0","54033","","481","","","75","7","","","1","7","training","adjacent","BC","2","3","L.jpg","N.jpg","1","1","1","",""
"","feedback","","html-keyboard-response","54","503151","0.0-1.0-69.0-0.0","0","0","54033","","null","","","null","7","","","","","","","","","","","","","","","",""
"","ITI","","html-keyboard-response","55","504160","0.0-1.0-72.0","0","0","54033","","null","","","null","7","","","","","","","","","","","","","","","NaN",""
"","S1","","html-keyboard-response","56","504415","0.0-1.0-74.0","0","0","54033","","null","","","null","8","","","","","","","","","","","","","","","",""
"","ISI","","html-keyboard-response","57","505423","0.0-1.0-75.0","0","0","54033","","null","","","null","8","NaN","","","","","","","","","","","","","","",""
"","S2","","html-keyboard-response","58","505678","0.0-1.0-76.0","0","0","54033","","null","","","null","8","","NaN","","","","","","","","","","","","","",""
"","response","","html-keyboard-response","59","506567","0.0-1.0-77.0-0.0","0","0","54033","","887","","","75","8","","","1","8","training","adjacent","BA","2","1","L.jpg","P.jpg","1","0","0","",""
"","feedback","","html-keyboard-response","60","507575","0.0-1.0-78.0-0.0","0","0","54033","","null","","","null","8","","","","","","","","","","","","","","","",""
"","time_out","","html-keyboard-response","61","509584","0.0-1.0-80.0-0.0","0","0","54033","","null","","","null","8","","","","","","","","","","","","","","","",""
"","ITI","","html-keyboard-response","62","510592","0.0-1.0-81.0","0","0","54033","","null","","","null","8","","","","","","","","","","","","","","","NaN",""
"","S1","","html-keyboard-response","63","510848","0.0-1.0-83.0","0","0","54033","","null","","","null","9","","","","","","","","","","","","","","","",""
"","ISI","","html-keyboard-response","64","511855","0.0-1.0-84.0","0","0","54033","","null","","","null","9","NaN","","","","","","","","","","","","","","",""
"","S2","","html-keyboard-response","65","512113","0.0-1.0-85.0","0","0","54033","","null","","","null","9","","NaN","","","","","","","","","","","","","",""
"","response","","html-keyboard-response","66","512499","0.0-1.0-86.0-0.0","0","0","54033","","384","","","68","9","","","1","9","training","adjacent","BA","2","1","L.jpg","P.jpg","0","0","1","",""
"","feedback","","html-keyboard-response","67","513503","0.0-1.0-87.0-0.0","0","0","54033","","null","","","null","9","","","","","","","","","","","","","","","",""
"","ITI","","html-keyboard-response","68","514513","0.0-1.0-90.0","0","0","54033","","null","","","null","9","","","","","","","","","","","","","","","NaN",""
"","S1","","html-keyboard-response","69","514768","0.0-1.0-92.0","0","0","54033","","null","","","null","10","","","","","","","","","","","","","","","",""
"","ISI","","html-keyboard-response","70","515776","0.0-1.0-93.0","0","0","54033","","null","","","null","10","NaN","","","","","","","","","","","","","","",""
"","S2","","html-keyboard-response","71","516031","0.0-1.0-94.0","0","0","54033","","null","","","null","10","","NaN","","","","","","","","","","","","","",""
"","response","","html-keyboard-response","72","516793","0.0-1.0-95.0-0.0","0","0","54033","","758","","","75","10","","","1","10","training","adjacent","GF","7","6","Q.jpg","R.jpg","1","0","0","",""
"","feedback","","html-keyboard-response","73","517799","0.0-1.0-96.0-0.0","0","0","54033","","null","","","null","10","","","","","","","","","","","","","","","",""
"","time_out","","html-keyboard-response","74","519810","0.0-1.0-98.0-0.0","0","0","54033","","null","","","null","10","","","","","","","","","","","","","","","",""
"","ITI","","html-keyboard-response","75","520816","0.0-1.0-99.0","0","0","54033","","null","","","null","10","","","","","","","","","","","","","","","NaN",""
"","S1","","html-keyboard-response","76","521071","0.0-1.0-101.0","0","0","54033","","null","","","null","11","","","","","","","","","","","","","","","",""
"","ISI","","html-keyboard-response","77","522081","0.0-1.0-102.0","0","0","54033","","null","","","null","11","NaN","","","","","","","","","","","","","","",""
"","S2","","html-keyboard-response","78","522335","0.0-1.0-103.0","0","0","54033","","null","","","null","11","","NaN","","","","","","","","","","","","","",""
"","response","","html-keyboard-response","79","522662","0.0-1.0-104.0-0.0","0","0","54033","","325","","","75","11","","","1","11","training","adjacent","DE","4","5","M.jpg","O.jpg","1","1","1","",""
"","feedback","","html-keyboard-response","80","523671","0.0-1.0-105.0-0.0","0","0","54033","","null","","","null","11","","","","","","","","","","","","","","","",""
"","ITI","","html-keyboard-response","81","524679","0.0-1.0-108.0","0","0","54033","","null","","","null","11","","","","","","","","","","","","","","","NaN",""
"","S1","","html-keyboard-response","82","524936","0.0-1.0-110.0","0","0","54033","","null","","","null","12","","","","","","","","","","","","","","","",""
"","ISI","","html-keyboard-response","83","525945","0.0-1.0-111.0","0","0","54033","","null","","","null","12","NaN","","","","","","","","","","","","","","",""
"","S2","","html-keyboard-response","84","526199","0.0-1.0-112.0","0","0","54033","","null","","","null","12","","NaN","","","","","","","","","","","","","",""
"","response","","html-keyboard-response","85","526676","0.0-1.0-113.0-0.0","0","0","54033","","475","","","75","12","","","1","12","training","adjacent","AB","1","2","P.jpg","L.jpg","1","1","1","",""
"","feedback","","html-keyboard-response","86","527688","0.0-1.0-114.0-0.0","0","0","54033","","null","","","null","12","","","","","","","","","","","","","","","",""
"","ITI","","html-keyboard-response","87","528697","0.0-1.0-117.0","0","0","54033","","null","","","null","12","","","","","","","","","","","","","","","NaN",""
"","S1","","html-keyboard-response","88","528952","0.0-1.0-119.0","0","0","54033","","null","","","null","13","","","","","","","","","","","","","","","",""
"","ISI","","html-keyboard-response","89","529960","0.0-1.0-120.0","0","0","54033","","null","","","null","13","NaN","","","","","","","","","","","","","","",""
"","S2","","html-keyboard-response","90","530216","0.0-1.0-121.0","0","0","54033","","null","","","null","13","","NaN","","","","","","","","","","","","","",""
"","response","","html-keyboard-response","91","530238","0.0-1.0-122.0-0.0","0","0","54033","","20","","","75","13","","","1","13","training","adjacent","BA","2","1","L.jpg","P.jpg","1","0","0","",""
"","feedback","","html-keyboard-response","92","531248","0.0-1.0-123.0-0.0","0","0","54033","","null","","","null","13","","","","","","","","","","","","","","","",""
"","time_out","","html-keyboard-response","93","533255","0.0-1.0-125.0-0.0","0","0","54033","","null","","","null","13","","","","","","","","","","","","","","","",""
"","ITI","","html-keyboard-response","94","534264","0.0-1.0-126.0","0","0","54033","","null","","","null","13","","","","","","","","","","","","","","","NaN",""
"","S1","","html-keyboard-response","95","534519","0.0-1.0-128.0","0","0","54033","","null","","","null","14","","","","","","","","","","","","","","","",""
"","ISI","","html-keyboard-response","96","535528","0.0-1.0-129.0","0","0","54033","","null","","","null","14","NaN","","","","","","","","","","","","","","",""
"","S2","","html-keyboard-response","97","535783","0.0-1.0-130.0","0","0","54033","","null","","","null","14","","NaN","","","","","","","","","","","","","",""
"","response","","html-keyboard-response","98","536162","0.0-1.0-131.0-0.0","0","0","54033","","376","","","68","14","","","1","14","training","adjacent","BA","2","1","L.jpg","P.jpg","0","0","1","",""
"","feedback","","html-keyboard-response","99","537168","0.0-1.0-132.0-0.0","0","0","54033","","null","","","null","14","","","","","","","","","","","","","","","",""
"","ITI","","html-keyboard-response","100","538175","0.0-1.0-135.0","0","0","54033","","null","","","null","14","","","","","","","","","","","","","","","NaN",""
"","S1","","html-keyboard-response","101","538433","0.0-1.0-137.0","0","0","54033","","null","","","null","15","","","","","","","","","","","","","","","",""
"","ISI","","html-keyboard-response","102","539440","0.0-1.0-138.0","0","0","54033","","null","","","null","15","NaN","","","","","","","","","","","","","","",""
"","S2","","html-keyboard-response","103","539696","0.0-1.0-139.0","0","0","54033","","null","","","null","15","","NaN","","","","","","","","","","","","","",""
"","response","","html-keyboard-response","104","540030","0.0-1.0-140.0-0.0","0","0","54033","","330","","","75","15","","","1","15","training","adjacent","CB","3","2","N.jpg","L.jpg","1","0","0","",""
"","feedback","","html-keyboard-response","105","541040","0.0-1.0-141.0-0.0","0","0","54033","","null","","","null","15","","","","","","","","","","","","","","","",""
"","time_out","","html-keyboard-response","106","543047","0.0-1.0-143.0-0.0","0","0","54033","","null","","","null","15","","","","","","","","","","","","","","","",""
"","ITI","","html-keyboard-response","107","544055","0.0-1.0-144.0","0","0","54033","","null","","","null","15","","","","","","","","","","","","","","","NaN",""
"","S1","","html-keyboard-response","108","544312","0.0-1.0-146.0","0","0","54033","","null","","","null","16","","","","","","","","","","","","","","","",""
"","ISI","","html-keyboard-response","109","545319","0.0-1.0-147.0","0","0","54033","","645","","","68","16","d","","","","","","","","","","","","","","",""
"","S2","","html-keyboard-response","110","545576","0.0-1.0-148.0","0","0","54033","","null","","","null","16","","NaN","","","","","","","","","","","","","",""
"","response","","html-keyboard-response","111","546428","0.0-1.0-149.0-0.0","0","0","54033","","848","","","75","16","","","1","16","training","adjacent","DE","4","5","M.jpg","O.jpg","1","1","1","",""
"","feedback","","html-keyboard-response","112","547431","0.0-1.0-150.0-0.0","0","0","54033","","null","","","null","16","","","","","","","","","","","","","","","",""
"","ITI","","html-keyboard-response","113","548440","0.0-1.0-153.0","0","0","54033","","null","","","null","16","","","","","","","","","","","","","","","NaN",""
"","S1","","html-keyboard-response","114","548695","0.0-1.0-155.0","0","0","54033","","null","","","null","17","","","","","","","","","","","","","","","",""
"","ISI","","html-keyboard-response","115","549703","0.0-1.0-156.0","0","0","54033","","null","","","null","17","NaN","","","","","","","","","","","","","","",""
"","S2","","html-keyboard-response","116","549959","0.0-1.0-157.0","0","0","54033","","null","","","null","17","","NaN","","","","","","","","","","","","","",""
"","response","","html-keyboard-response","117","551719","0.0-1.0-158.0-0.0","0","0","54033","","null","","","null","17","","","1","17","training","adjacent","GF","7","6","Q.jpg","R.jpg","NaN","0","0","",""
"","too_slow_prompt","","html-keyboard-response","118","552727","0.0-1.0-160.0-0.0","1","0","54033","","null","","","null","","","","","","","","","","","","","","","","",""
"","time_out","","html-keyboard-response","119","554736","0.0-1.0-161.0-0.0","0","0","54033","","null","","","null","17","","","","","","","","","","","","","","","",""
"","ITI","","html-keyboard-response","120","555744","0.0-1.0-162.0","0","0","54033","","null","","","null","17","","","","","","","","","","","","","","","NaN",""
"","S1","","html-keyboard-response","121","555999","0.0-1.0-164.0","0","0","54033","","null","","","null","18","","","","","","","","","","","","","","","",""
"","ISI","","html-keyboard-response","122","557016","0.0-1.0-165.0","0","0","54033","","null","","","null","18","NaN","","","","","","","","","","","","","","",""
"","S2","","html-keyboard-response","123","557271","0.0-1.0-166.0","0","0","54033","","null","","","null","18","","NaN","","","","","","","","","","","","","",""
"","response","","html-keyboard-response","124","557433","0.0-1.0-167.0-0.0","0","0","54033","","159","","","75","18","","","1","18","training","adjacent","CD","3","4","N.jpg","M.jpg","1","1","1","",""
"","feedback","","html-keyboard-response","125","558440","0.0-1.0-168.0-0.0","0","0","54033","","null","","","null","18","","","","","","","","","","","","","","","",""
"","ITI","","html-keyboard-response","126","559449","0.0-1.0-171.0","0","0","54033","","null","","","null","18","","","","","","","","","","","","","","","NaN",""
"","S1","","html-keyboard-response","127","559702","0.0-1.0-173.0","0","0","54033","","null","","","null","19","","","","","","","","","","","","","","","",""
"","ISI","","html-keyboard-response","128","560712","0.0-1.0-174.0","0","0","54033","","null","","","null","19","NaN","","","","","","","","","","","","","","",""
"","S2","","html-keyboard-response","129","560968","0.0-1.0-175.0","0","0","54033","","null","","","null","19","","NaN","","","","","","","","","","","","","",""
"","response","","html-keyboard-response","130","561381","0.0-1.0-176.0-0.0","0","0","54033","","408","","","68","19","","","1","19","training","adjacent","AB","1","2","P.jpg","L.jpg","0","1","0","",""
"","feedback","","html-keyboard-response","131","562392","0.0-1.0-177.0-0.0","0","0","54033","","null","","","null","19","","","","","","","","","","","","","","","",""
"","time_out","","html-keyboard-response","132","564400","0.0-1.0-179.0-0.0","0","0","54033","","null","","","null","19","","","","","","","","","","","","","","","",""
"","ITI","","html-keyboard-response","133","565408","0.0-1.0-180.0","0","0","54033","","null","","","null","19","","","","","","","","","","","","","","","NaN",""
"","S1","","html-keyboard-response","134","565667","0.0-1.0-182.0","0","0","54033","","null","","","null","20","","","","","","","","","","","","","","","",""
"","ISI","","html-keyboard-response","135","566673","0.0-1.0-183.0","0","0","54033","","397","","","75","20","k","","","","","","","","","","","","","","",""
"","S2","","html-keyboard-response","136","566931","0.0-1.0-184.0","0","0","54033","","null","","","null","20","","NaN","","","","","","","","","","","","","",""
"","response","","html-keyboard-response","137","567619","0.0-1.0-185.0-0.0","0","0","54033","","686","","","75","20","","","1","20","training","adjacent","EF","5","6","O.jpg","R.jpg","1","1","1","",""
"","feedback","","html-keyboard-response","138","568624","0.0-1.0-186.0-0.0","0","0","54033","","null","","","null","20","","","","","","","","","","","","","","","",""
"","ITI","","html-keyboard-response","139","569630","0.0-1.0-189.0","0","0","54033","","null","","","null","20","","","","","","","","","","","","","","","NaN",""
"","S1","","html-keyboard-response","140","569888","0.0-1.0-191.0","0","0","54033","","null","","","null","21","","","","","","","","","","","","","","","",""
"","ISI","","html-keyboard-response","141","570895","0.0-1.0-192.0","0","0","54033","","null","","","null","21","NaN","","","","","","","","","","","","","","",""
"","S2","","html-keyboard-response","142","571151","0.0-1.0-193.0","0","0","54033","","null","","","null","21","","NaN","","","","","","","","","","","","","",""
"","response","","html-keyboard-response","143","572146","0.0-1.0-194.0-0.0","0","0","54033","","993","","","75","21","","","1","21","training","adjacent","ED","5","4","O.jpg","M.jpg","1","0","0","",""
"","feedback","","html-keyboard-response","144","573151","0.0-1.0-195.0-0.0","0","0","54033","","null","","","null","21","","","","","","","","","","","","","","","",""
"","time_out","","html-keyboard-response","145","575159","0.0-1.0-197.0-0.0","0","0","54033","","null","","","null","21","","","","","","","","","","","","","","","",""
"","ITI","","html-keyboard-response","146","576168","0.0-1.0-198.0","0","0","54033","","null","","","null","21","","","","","","","","","","","","","","","NaN",""
"","S1","","html-keyboard-response","147","576425","0.0-1.0-200.0","0","0","54033","","null","","","null","22","","","","","","","","","","","","","","","",""
"","ISI","","html-keyboard-response","148","577431","0.0-1.0-201.0","0","0","54033","","null","","","null","22","NaN","","","","","","","","","","","","","","",""
"","S2","","html-keyboard-response","149","577488","0.0-1.0-202.0","0","0","54033","","51","","","75","22","","k","1","22","training","adjacent","FG","6","7","R.jpg","Q.jpg","1","1","1","",""
"","feedback","","html-keyboard-response","150","578495","0.0-1.0-204.0-0.0","0","0","54033","","null","","","null","22","","","","","","","","","","","","","","","",""
"","ITI","","html-keyboard-response","151","579504","0.0-1.0-207.0","0","0","54033","","null","","","null","22","","","","","","","","","","","","","","","NaN",""
"","S1","","html-keyboard-response","152","579760","0.0-1.0-209.0","0","0","54033","","null","","","null","23","","","","","","","","","","","","","","","",""
"","ISI","","html-keyboard-response","153","580766","0.0-1.0-210.0","0","0","54033","","null","","","null","23","NaN","","","","","","","","","","","","","","",""
"","S2","","html-keyboard-response","154","581023","0.0-1.0-211.0","0","0","54033","","null","","","null","23","","NaN","","","","","","","","","","","","","",""
"","response","","html-keyboard-response","155","581567","0.0-1.0-212.0-0.0","0","0","54033","","541","","","75","23","","","1","23","training","adjacent","AB","1","2","P.jpg","L.jpg","1","1","1","",""
"","feedback","","html-keyboard-response","156","582574","0.0-1.0-213.0-0.0","0","0","54033","","null","","","null","23","","","","","","","","","","","","","","","",""
"","ITI","","html-keyboard-response","157","583583","0.0-1.0-216.0","0","0","54033","","null","","","null","23","","","","","","","","","","","","","","","NaN",""
"","S1","","html-keyboard-response","158","583841","0.0-1.0-218.0","0","0","54033","","null","","","null","24","","","","","","","","","","","","","","","",""
"","ISI","","html-keyboard-response","159","584846","0.0-1.0-219.0","0","0","54033","","null","","","null","24","NaN","","","","","","","","","","","","","","",""
"","S2","","html-keyboard-response","160","585105","0.0-1.0-220.0","0","0","54033","","null","","","null","24","","NaN","","","","","","","","","","","","","",""
"","response","","html-keyboard-response","161","586006","0.0-1.0-221.0-0.0","0","0","54033","","899","","","68","24","","","1","24","training","adjacent","CB","3","2","N.jpg","L.jpg","0","0","1","",""
"","feedback","","html-keyboard-response","162","587016","0.0-1.0-222.0-0.0","0","0","54033","","null","","","null","24","","","","","","","","","","","","","","","",""
"","ITI","","html-keyboard-response","163","588024","0.0-1.0-225.0","0","0","54033","","null","","","null","24","","","","","","","","","","","","","","","NaN",""
"","S1","","html-keyboard-response","164","588279","0.0-1.0-227.0","0","0","54033","","null","","","null","25","","","","","","","","","","","","","","","",""
"","ISI","","html-keyboard-response","165","589288","0.0-1.0-228.0","0","0","54033","","null","","","null","25","NaN","","","","","","","","","","","","","","",""
"","S2","","html-keyboard-response","166","589543","0.0-1.0-229.0","0","0","54033","","null","","","null","25","","NaN","","","","","","","","","","","","","",""
"","response","","html-keyboard-response","167","590227","0.0-1.0-230.0-0.0","0","0","54033","","682","","","75","25","","","1","25","training","adjacent","EF","5","6","O.jpg","R.jpg","1","1","1","",""
"","feedback","","html-keyboard-response","168","591231","0.0-1.0-231.0-0.0","0","0","54033","","null","","","null","25","","","","","","","","","","","","","","","",""
"","ITI","","html-keyboard-response","169","592238","0.0-1.0-234.0","0","0","54033","","null","","","null","25","","","","","","","","","","","","","","","NaN",""
"","S1","","html-keyboard-response","170","592495","0.0-1.0-236.0","0","0","54033","","null","","","null","26","","","","","","","","","","","","","","","",""
"","ISI","","html-keyboard-response","171","593502","0.0-1.0-237.0","0","0","54033","","null","","","null","26","NaN","","","","","","","","","","","","","","",""
"","S2","","html-keyboard-response","172","593760","0.0-1.0-238.0","0","0","54033","","null","","","null","26","","NaN","","","","","","","","","","","","","",""
"","response","","html-keyboard-response","173","594820","0.0-1.0-239.0-0.0","0","0","54033","","1057","","","68","26","","","1","26","training","adjacent","ED","5","4","O.jpg","M.jpg","0","0","1","",""
"","feedback","","html-keyboard-response","174","595831","0.0-1.0-240.0-0.0","0","0","54033","","null","","","null","26","","","","","","","","","","","","","","","",""
"","ITI","","html-keyboard-response","175","596840","0.0-1.0-243.0","0","0","54033","","null","","","null","26","","","","","","","","","","","","","","","NaN",""
"","S1","","html-keyboard-response","176","597095","0.0-1.0-245.0","0","0","54033","","null","","","null","27","","","","","","","","","","","","","","","",""
"","ISI","","html-keyboard-response","177","598103","0.0-1.0-246.0","0","0","54033","","915","","","75","27","k","","","","","","","","","","","","","","",""
"","S2","","html-keyboard-response","178","598128","0.0-1.0-247.0","0","0","54033","","22","","","68","27","","d","1","27","training","adjacent","DE","4","5","M.jpg","O.jpg","0","1","0","",""
"","feedback","","html-keyboard-response","179","599135","0.0-1.0-249.0-0.0","0","0","54033","","null","","","null","27","","","","","","","","","","","","","","","",""
"","time_out","","html-keyboard-response","180","601144","0.0-1.0-251.0-0.0","0","0","54033","","null","","","null","27","","","","","","","","","","","","","","","",""
"","ITI","","html-keyboard-response","181","602152","0.0-1.0-252.0","0","0","54033","","null","","","null","27","","","","","","","","","","","","","","","NaN",""
"","S1","","html-keyboard-response","182","602409","0.0-1.0-254.0","0","0","54033","","null","","","null","28","","","","","","","","","","","","","","","",""
"","ISI","","html-keyboard-response","183","603415","0.0-1.0-255.0","0","0","54033","","330","","","68","28","d","","","","","","","","","","","","","","",""
"","S2","","html-keyboard-response","184","603671","0.0-1.0-256.0","0","0","54033","","null","","","null","28","","NaN","","","","","","","","","","","","","",""
"","response","","html-keyboard-response","185","603819","0.0-1.0-257.0-0.0","0","0","54033","","145","","","68","28","","","1","28","training","adjacent","CD","3","4","N.jpg","M.jpg","0","1","0","",""
"","feedback","","html-keyboard-response","186","604826","0.0-1.0-258.0-0.0","0","0","54033","","null","","","null","28","","","","","","","","","","","","","","","",""
"","time_out","","html-keyboard-response","187","606831","0.0-1.0-260.0-0.0","0","0","54033","","null","","","null","28","","","","","","","","","","","","","","","",""
"","ITI","","html-keyboard-response","188","607840","0.0-1.0-261.0","0","0","54033","","null","","","null","28","","","","","","","","","","","","","","","NaN",""
"","S1","","html-keyboard-response","189","608096","0.0-1.0-263.0","0","0","54033","","null","","","null","29","","","","","","","","","","","","","","","",""
"","ISI","","html-keyboard-response","190","609104","0.0-1.0-264.0","0","0","54033","","null","","","null","29","NaN","","","","","","","","","","","","","","",""
"","S2","","html-keyboard-response","191","609149","0.0-1.0-265.0","0","0","54033","","42","","","75","29","","k","1","29","training","adjacent","FG","6","7","R.jpg","Q.jpg","1","1","1","",""
"","feedback","","html-keyboard-response","192","610160","0.0-1.0-267.0-0.0","0","0","54033","","null","","","null","29","","","","","","","","","","","","","","","",""
"","ITI","","html-keyboard-response","193","611168","0.0-1.0-270.0","0","0","54033","","19","","","75","29","","","","","","","","","","","","","","","k",""
"","S1","","html-keyboard-response","194","611423","0.0-1.0-272.0","0","0","54033","","null","","","null","30","","","","","","","","","","","","","","","",""
"","ISI","","html-keyboard-response","195","612430","0.0-1.0-273.0","0","0","54033","","646","","","75","30","k","","","","","","","","","","","","","","",""
"","S2","","html-keyboard-response","196","612602","0.0-1.0-274.0","0","0","54033","","169","","","75","30","","k","1","30","training","adjacent","FG","6","7","R.jpg","Q.jpg","1","1","1","",""
"","feedback","","html-keyboard-response","197","613607","0.0-1.0-276.0-0.0","0","0","54033","","null","","","null","30","","","","","","","","","","","","","","","",""
"","ITI","","html-keyboard-response","198","614615","0.0-1.0-279.0","0","0","54033","","null","","","null","30","","","","","","","","","","","","","","","NaN",""
"","S1","","html-keyboard-response","199","614871","0.0-1.0-281.0","0","0","54033","","null","","","null","31","","","","","","","","","","","","","","","",""
"","ISI","","html-keyboard-response","200","615879","0.0-1.0-282.0","0","0","54033","","null","","","null","31","NaN","","","","","","","","","","","","","","",""
"","S2","","html-keyboard-response","201","616134","0.0-1.0-283.0","0","0","54033","","null","","","null","31","","NaN","","","","","","","","","","","","","",""
"","response","","html-keyboard-response","202","616981","0.0-1.0-284.0-0.0","0","0","54033","","845","","","75","31","","","1","31","training","adjacent","DC","4","3","M.jpg","N.jpg","1","0","0","",""
"","feedback","","html-keyboard-response","203","617990","0.0-1.0-285.0-0.0","0","0","54033","","null","","","null","31","","","","","","","","","","","","","","","",""
"","time_out","","html-keyboard-response","204","619999","0.0-1.0-287.0-0.0","0","0","54033","","null","","","null","31","","","","","","","","","","","","","","","",""
"","ITI","","html-keyboard-response","205","621008","0.0-1.0-288.0","0","0","54033","","517","","","68","31","","","","","","","","","","","","","","","d",""
"","S1","","html-keyboard-response","206","621264","0.0-1.0-290.0","0","0","54033","","null","","","null","32","","","","","","","","","","","","","","","",""
"","ISI","","html-keyboard-response","207","622272","0.0-1.0-291.0","0","0","54033","","292","","","75","32","k","","","","","","","","","","","","","","",""
"","S2","","html-keyboard-response","208","622530","0.0-1.0-292.0","0","0","54033","","null","","","null","32","","NaN","","","","","","","","","","","","","",""
"","response","","html-keyboard-response","209","622632","0.0-1.0-293.0-0.0","0","0","54033","","97","","","75","32","","","1","32","training","adjacent","DE","4","5","M.jpg","O.jpg","1","1","1","",""
"","feedback","","html-keyboard-response","210","623640","0.0-1.0-294.0-0.0","0","0","54033","","null","","","null","32","","","","","","","","","","","","","","","",""
"","ITI","","html-keyboard-response","211","624649","0.0-1.0-297.0","0","0","54033","","null","","","null","32","","","","","","","","","","","","","","","NaN",""
"","S1","","html-keyboard-response","212","624905","0.0-1.0-299.0","0","0","54033","","null","","","null","33","","","","","","","","","","","","","","","",""
"","ISI","","html-keyboard-response","213","625918","0.0-1.0-300.0","0","0","54033","","681","","","75","33","k","","","","","","","","","","","","","","",""
"","S2","","html-keyboard-response","214","626175","0.0-1.0-301.0","0","0","54033","","null","","","null","33","","NaN","","","","","","","","","","","","","",""
"","response","","html-keyboard-response","215","626429","0.0-1.0-302.0-0.0","0","0","54033","","249","","","75","33","","","1","33","training","adjacent","EF","5","6","O.jpg","R.jpg","1","1","1","",""
"","feedback","","html-keyboard-response","216","627439","0.0-1.0-303.0-0.0","0","0","54033","","null","","","null","33","","","","","","","","","","","","","","","",""
"","ITI","","html-keyboard-response","217","628447","0.0-1.0-306.0","0","0","54033","","null","","","null","33","","","","","","","","","","","","","","","NaN",""
"","S1","","html-keyboard-response","218","628704","0.0-1.0-308.0","0","0","54033","","null","","","null","34","","","","","","","","","","","","","","","",""
"","ISI","","html-keyboard-response","219","629711","0.0-1.0-309.0","0","0","54033","","null","","","null","34","NaN","","","","","","","","","","","","","","",""
"","S2","","html-keyboard-response","220","629966","0.0-1.0-310.0","0","0","54033","","null","","","null","34","","NaN","","","","","","","","","","","","","",""
"","response","","html-keyboard-response","221","630627","0.0-1.0-311.0-0.0","0","0","54033","","658","","","68","34","","","1","34","training","adjacent","CB","3","2","N.jpg","L.jpg","0","0","1","",""
"","feedback","","html-keyboard-response","222","631631","0.0-1.0-312.0-0.0","0","0","54033","","null","","","null","34","","","","","","","","","","","","","","","",""
"","ITI","","html-keyboard-response","223","632640","0.0-1.0-315.0","0","0","54033","","null","","","null","34","","","","","","","","","","","","","","","NaN",""
"","S1","","html-keyboard-response","224","632895","0.0-1.0-317.0","0","0","54033","","null","","","null","35","","","","","","","","","","","","","","","",""
"","ISI","","html-keyboard-response","225","633904","0.0-1.0-318.0","0","0","54033","","null","","","null","35","NaN","","","","","","","","","","","","","","",""
"","S2","","html-keyboard-response","226","634161","0.0-1.0-319.0","0","0","54033","","null","","","null","35","","NaN","","","","","","","","","","","","","",""
"","response","","html-keyboard-response","227","634931","0.0-1.0-320.0-0.0","0","0","54033","","768","","","75","35","","","1","35","training","adjacent","FE","6","5","R.jpg","O.jpg","1","0","0","",""
"","feedback","","html-keyboard-response","228","635935","0.0-1.0-321.0-0.0","0","0","54033","","null","","","null","35","","","","","","","","","","","","","","","",""
"","time_out","","html-keyboard-response","229","637942","0.0-1.0-323.0-0.0","0","0","54033","","null","","","null","35","","","","","","","","","","","","","","","",""
"","ITI","","html-keyboard-response","230","638952","0.0-1.0-324.0","0","0","54033","","405","","","68","35","","","","","","","","","","","","","","","d",""
"","S1","","html-keyboard-response","231","639207","0.0-1.0-326.0","0","0","54033","","null","","","null","36","","","","","","","","","","","","","","","",""
"","ISI","","html-keyboard-response","232","640221","0.0-1.0-327.0","0","0","54033","","379","","","68","36","d","","","","","","","","","","","","","","",""
"","S2","","html-keyboard-response","233","640308","0.0-1.0-328.0","0","0","54033","","84","","","75","36","","k","1","36","training","adjacent","FE","6","5","R.jpg","O.jpg","1","0","0","",""
"","feedback","","html-keyboard-response","234","641319","0.0-1.0-330.0-0.0","0","0","54033","","null","","","null","36","","","","","","","","","","","","","","","",""
"","time_out","","html-keyboard-response","235","643328","0.0-1.0-332.0-0.0","0","0","54033","","null","","","null","36","","","","","","","","","","","","","","","",""
"","ITI","","html-keyboard-response","236","644335","0.0-1.0-333.0","0","0","54033","","123","","","75","36","","","","","","","","","","","","","","","k",""
"","S1","","html-keyboard-response","237","644590","0.0-1.0-335.0","0","0","54033","","null","","","null","37","","","","","","","","","","","","","","","",""
"","ISI","","html-keyboard-response","238","645599","0.0-1.0-336.0","0","0","54033","","49","","","75","37","k","","","","","","","","","","","","","","",""
"","S2","","html-keyboard-response","239","645856","0.0-1.0-337.0","0","0","54033","","null","","","null","37","","NaN","","","","","","","","","","","","","",""
"","response","","html-keyboard-response","240","646092","0.0-1.0-338.0-0.0","0","0","54033","","233","","","68","37","","","1","37","training","adjacent","GF","7","6","Q.jpg","R.jpg","0","0","1","",""
"","feedback","","html-keyboard-response","241","647103","0.0-1.0-339.0-0.0","0","0","54033","","null","","","null","37","","","","","","","","","","","","","","","",""
"","ITI","","html-keyboard-response","242","648113","0.0-1.0-342.0","0","0","54033","","null","","","null","37","","","","","","","","","","","","","","","NaN",""
"","S1","","html-keyboard-response","243","648368","0.0-1.0-344.0","0","0","54033","","null","","","null","38","","","","","","","","","","","","","","","",""
"","ISI","","html-keyboard-response","244","649375","0.0-1.0-345.0","0","0","54033","","null","","","null","38","NaN","","","","","","","","","","","","","","",""
"","S2","","html-keyboard-response","245","649606","0.0-1.0-346.0","0","0","54033","","229","","","75","38","","k","1","38","training","adjacent","BC","2","3","L.jpg","N.jpg","1","1","1","",""
"","feedback","","html-keyboard-response","246","650617","0.0-1.0-348.0-0.0","0","0","54033","","null","","","null","38","","","","","","","","","","","","","","","",""
"","ITI","","html-keyboard-response","247","651624","0.0-1.0-351.0","0","0","54033","","null","","","null","38","","","","","","","","","","","","","","","NaN",""
"","S1","","html-keyboard-response","248","651878","0.0-1.0-353.0","0","0","54033","","null","","","null","39","","","","","","","","","","","","","","","",""
"","ISI","","html-keyboard-response","249","652887","0.0-1.0-354.0","0","0","54033","","null","","","null","39","NaN","","","","","","","","","","","","","","",""
"","S2","","html-keyboard-response","250","653144","0.0-1.0-355.0","0","0","54033","","null","","","null","39","","NaN","","","","","","","","","","","","","",""
"","response","","html-keyboard-response","251","654002","0.0-1.0-356.0-0.0","0","0","54033","","855","","","75","39","","","1","39","training","adjacent","GF","7","6","Q.jpg","R.jpg","1","0","0","",""
"","feedback","","html-keyboard-response","252","655008","0.0-1.0-357.0-0.0","0","0","54033","","null","","","null","39","","","","","","","","","","","","","","","",""
"","time_out","","html-keyboard-response","253","657015","0.0-1.0-359.0-0.0","0","0","54033","","null","","","null","39","","","","","","","","","","","","","","","",""
"","ITI","","html-keyboard-response","254","658024","0.0-1.0-360.0","0","0","54033","","436","","","68","39","","","","","","","","","","","","","","","d",""
"","S1","","html-keyboard-response","255","658288","0.0-1.0-362.0","0","0","54033","","null","","","null","40","","","","","","","","","","","","","","","",""
"","ISI","","html-keyboard-response","256","659295","0.0-1.0-363.0","0","0","54033","","601","","","75","40","k","","","","","","","","","","","","","","",""
"","S2","","html-keyboard-response","257","659546","0.0-1.0-364.0","0","0","54033","","248","","","75","40","","k","1","40","training","adjacent","DC","4","3","M.jpg","N.jpg","1","0","0","",""
"","feedback","","html-keyboard-response","258","660551","0.0-1.0-366.0-0.0","0","0","54033","","null","","","null","40","","","","","","","","","","","","","","","",""
"","time_out","","html-keyboard-response","259","662560","0.0-1.0-368.0-0.0","0","0","54033","","null","","","null","40","","","","","","","","","","","","","","","",""
"","ITI","","html-keyboard-response","260","663567","0.0-1.0-369.0","0","0","54033","","null","","","null","40","","","","","","","","","","","","","","","NaN",""
"","S1","","html-keyboard-response","261","663825","0.0-1.0-371.0","0","0","54033","","null","","","null","41","","","","","","","","","","","","","","","",""
"","ISI","","html-keyboard-response","262","664832","0.0-1.0-372.0","0","0","54033","","635","","","68","41","d","","","","","","","","","","","","","","",""
"","S2","","html-keyboard-response","263","665088","0.0-1.0-373.0","0","0","54033","","null","","","null","41","","NaN","","","","","","","","","","","","","",""
"","response","","html-keyboard-response","264","665455","0.0-1.0-374.0-0.0","0","0","54033","","364","","","68","41","","","1","41","training","adjacent","FG","6","7","R.jpg","Q.jpg","0","1","0","",""
"","feedback","","html-keyboard-response","265","666462","0.0-1.0-375.0-0.0","0","0","54033","","null","","","null","41","","","","","","","","","","","","","","","",""
"","time_out","","html-keyboard-response","266","668472","0.0-1.0-377.0-0.0","0","0","54033","","null","","","null","41","","","","","","","","","","","","","","","",""
"","ITI","","html-keyboard-response","267","669480","0.0-1.0-378.0","0","0","54033","","457","","","75","41","","","","","","","","","","","","","","","k",""
"","S1","","html-keyboard-response","268","669736","0.0-1.0-380.0","0","0","54033","","null","","","null","42","","","","","","","","","","","","","","","",""
"","ISI","","html-keyboard-response","269","670743","0.0-1.0-381.0","0","0","54033","","null","","","null","42","NaN","","","","","","","","","","","","","","",""
"","S2","","html-keyboard-response","270","671000","0.0-1.0-382.0","0","0","54033","","null","","","null","42","","NaN","","","","","","","","","","","","","",""
"","response","","html-keyboard-response","271","671401","0.0-1.0-383.0-0.0","0","0","54033","","400","","","75","42","","","1","42","training","adjacent","CB","3","2","N.jpg","L.jpg","1","0","0","",""
"","feedback","","html-keyboard-response","272","672410","0.0-1.0-384.0-0.0","0","0","54033","","null","","","null","42","","","","","","","","","","","","","","","",""
"","time_out","","html-keyboard-response","273","674416","0.0-1.0-386.0-0.0","0","0","54033","","null","","","null","42","","","","","","","","","","","","","","","",""
"","ITI","","html-keyboard-response","274","675423","0.0-1.0-387.0","0","0","54033","","null","","","null","42","","","","","","","","","","","","","","","NaN",""
"","S1","","html-keyboard-response","275","675680","0.0-1.0-389.0","0","0","54033","","null","","","null","43","","","","","","","","","","","","","","","",""
"","ISI","","html-keyboard-response","276","676687","0.0-1.0-390.0","0","0","54033","","null","","","null","43","NaN","","","","","","","","","","","","","","",""
"","S2","","html-keyboard-response","277","676943","0.0-1.0-391.0","0","0","54033","","null","","","null","43","","NaN","","","","","","","","","","","","","",""
"","response","","html-keyboard-response","278","677651","0.0-1.0-392.0-0.0","0","0","54033","","706","","","75","43","","","1","43","training","adjacent","CD","3","4","N.jpg","M.jpg","1","1","1","",""
"","feedback","","html-keyboard-response","279","678667","0.0-1.0-393.0-0.0","0","0","54033","","null","","","null","43","","","","","","","","","","","","","","","",""
"","ITI","","html-keyboard-response","280","679670","0.0-1.0-396.0","0","0","54033","","null","","","null","43","","","","","","","","","","","","","","","NaN",""
"","S1","","html-keyboard-response","281","679927","0.0-1.0-398.0","0","0","54033","","null","","","null","44","","","","","","","","","","","","","","","",""
"","ISI","","html-keyboard-response","282","680935","0.0-1.0-399.0","0","0","54033","","null","","","null","44","NaN","","","","","","","","","","","","","","",""
"","S2","","html-keyboard-response","283","681191","0.0-1.0-400.0","0","0","54033","","null","","","null","44","","NaN","","","","","","","","","","","","","",""
"","response","","html-keyboard-response","284","682069","0.0-1.0-401.0-0.0","0","0","54033","","875","","","75","44","","","1","44","training","adjacent","DC","4","3","M.jpg","N.jpg","1","0","0","",""
"","feedback","","html-keyboard-response","285","683079","0.0-1.0-402.0-0.0","0","0","54033","","null","","","null","44","","","","","","","","","","","","","","","",""
"","time_out","","html-keyboard-response","286","685088","0.0-1.0-404.0-0.0","0","0","54033","","null","","","null","44","","","","","","","","","","","","","","","",""
"","ITI","","html-keyboard-response","287","686095","0.0-1.0-405.0","0","0","54033","","null","","","null","44","","","","","","","","","","","","","","","NaN",""
"","S1","","html-keyboard-response","288","686352","0.0-1.0-407.0","0","0","54033","","null","","","null","45","","","","","","","","","","","","","","","",""
"","ISI","","html-keyboard-response","289","687359","0.0-1.0-408.0","0","0","54033","","null","","","null","45","NaN","","","","","","","","","","","","","","",""
"","S2","","html-keyboard-response","290","687615","0.0-1.0-409.0","0","0","54033","","null","","","null","45","","NaN","","","","","","","","","","","","","",""
"","response","","html-keyboard-response","291","687921","0.0-1.0-410.0-0.0","0","0","54033","","303","","","75","45","","","1","45","training","adjacent","BC","2","3","L.jpg","N.jpg","1","1","1","",""
"","feedback","","html-keyboard-response","292","688928","0.0-1.0-411.0-0.0","0","0","54033","","null","","","null","45","","","","","","","","","","","","","","","",""
"","ITI","","html-keyboard-response","293","689935","0.0-1.0-414.0","0","0","54033","","null","","","null","45","","","","","","","","","","","","","","","NaN",""
"","S1","","html-keyboard-response","294","690191","0.0-1.0-416.0","0","0","54033","","null","","","null","46","","","","","","","","","","","","","","","",""
"","ISI","","html-keyboard-response","295","691200","0.0-1.0-417.0","0","0","54033","","null","","","null","46","NaN","","","","","","","","","","","","","","",""
"","S2","","html-keyboard-response","296","691455","0.0-1.0-418.0","0","0","54033","","null","","","null","46","","NaN","","","","","","","","","","","","","",""
"","response","","html-keyboard-response","297","691713","0.0-1.0-419.0-0.0","0","0","54033","","254","","","68","46","","","1","46","training","adjacent","ED","5","4","O.jpg","M.jpg","0","0","1","",""
"","feedback","","html-keyboard-response","298","692719","0.0-1.0-420.0-0.0","0","0","54033","","null","","","null","46","","","","","","","","","","","","","","","",""
"","ITI","","html-keyboard-response","299","693728","0.0-1.0-423.0","0","0","54033","","null","","","null","46","","","","","","","","","","","","","","","NaN",""
"","S1","","html-keyboard-response","300","693984","0.0-1.0-425.0","0","0","54033","","null","","","null","47","","","","","","","","","","","","","","","",""
"","ISI","","html-keyboard-response","301","694995","0.0-1.0-426.0","0","0","54033","","null","","","null","47","NaN","","","","","","","","","","","","","","",""
"","S2","","html-keyboard-response","302","695230","0.0-1.0-427.0","0","0","54033","","232","","","75","47","","k","1","47","training","adjacent","ED","5","4","O.jpg","M.jpg","1","0","0","",""
"","feedback","","html-keyboard-response","303","696241","0.0-1.0-429.0-0.0","0","0","54033","","null","","","null","47","","","","","","","","","","","","","","","",""
"","time_out","","html-keyboard-response","304","698248","0.0-1.0-431.0-0.0","0","0","54033","","null","","","null","47","","","","","","","","","","","","","","","",""
"","ITI","","html-keyboard-response","305","699255","0.0-1.0-432.0","0","0","54033","","null","","","null","47","","","","","","","","","","","","","","","NaN",""
"","block_over","","html-keyboard-response","306","721186","0.0-1.0-433.0-0.0","0","0","54033","","21927","","","32","47","","","","","","","","","","","","","","","",""
"","S1","","html-keyboard-response","307","721448","0.0-1.0-434.0","0","0","54033","","null","","","null","48","","","","","","","","","","","","","","","",""
"","ISI","","html-keyboard-response","308","722456","0.0-1.0-435.0","0","0","54033","","null","","","null","48","NaN","","","","","","","","","","","","","","",""
"","S2","","html-keyboard-response","309","722712","0.0-1.0-436.0","0","0","54033","","null","","","null","48","","NaN","","","","","","","","","","","","","",""
"","response","","html-keyboard-response","310","723907","0.0-1.0-437.0-0.0","0","0","54033","","1193","","","75","48","","","2","48","training","adjacent","CD","3","4","N.jpg","M.jpg","1","1","1","",""
"","feedback","","html-keyboard-response","311","724911","0.0-1.0-438.0-0.0","0","0","54033","","null","","","null","48","","","","","","","","","","","","","","","",""
"","ITI","","html-keyboard-response","312","725920","0.0-1.0-441.0","0","0","54033","","null","","","null","48","","","","","","","","","","","","","","","NaN",""
"","S1","","html-keyboard-response","313","726176","0.0-1.0-443.0","0","0","54033","","null","","","null","49","","","","","","","","","","","","","","","",""
"","ISI","","html-keyboard-response","314","727185","0.0-1.0-444.0","0","0","54033","","null","","","null","49","NaN","","","","","","","","","","","","","","",""
"","S2","","html-keyboard-response","315","727449","0.0-1.0-445.0","0","0","54033","","null","","","null","49","","NaN","","","","","","","","","","","","","",""
"","response","","html-keyboard-response","316","728269","0.0-1.0-446.0-0.0","0","0","54033","","817","","","75","49","","","2","49","training","adjacent","DC","4","3","M.jpg","N.jpg","1","0","0","",""
"","feedback","","html-keyboard-response","317","729281","0.0-1.0-447.0-0.0","0","0","54033","","null","","","null","49","","","","","","","","","","","","","","","",""
"","time_out","","html-keyboard-response","318","731288","0.0-1.0-449.0-0.0","0","0","54033","","null","","","null","49","","","","","","","","","","","","","","","",""
"","ITI","","html-keyboard-response","319","732294","0.0-1.0-450.0","0","0","54033","","null","","","null","49","","","","","","","","","","","","","","","NaN",""
"","S1","","html-keyboard-response","320","732552","0.0-1.0-452.0","0","0","54033","","null","","","null","50","","","","","","","","","","","","","","","",""
"","ISI","","html-keyboard-response","321","733560","0.0-1.0-453.0","0","0","54033","","735","","","68","50","d","","","","","","","","","","","","","","",""
"","S2","","html-keyboard-response","322","733821","0.0-1.0-454.0","0","0","54033","","null","","","null","50","","NaN","","","","","","","","","","","","","",""
"","response","","html-keyboard-response","323","734519","0.0-1.0-455.0-0.0","0","0","54033","","694","","","75","50","","","2","50","training","adjacent","ED","5","4","O.jpg","M.jpg","1","0","0","",""
"","feedback","","html-keyboard-response","324","735528","0.0-1.0-456.0-0.0","0","0","54033","","null","","","null","50","","","","","","","","","","","","","","","",""
"","time_out","","html-keyboard-response","325","737536","0.0-1.0-458.0-0.0","0","0","54033","","null","","","null","50","","","","","","","","","","","","","","","",""
"","ITI","","html-keyboard-response","326","738543","0.0-1.0-459.0","0","0","54033","","null","","","null","50","","","","","","","","","","","","","","","NaN",""
"","S1","","html-keyboard-response","327","738801","0.0-1.0-461.0","0","0","54033","","null","","","null","51","","","","","","","","","","","","","","","",""
"","ISI","","html-keyboard-response","328","739807","0.0-1.0-462.0","0","0","54033","","null","","","null","51","NaN","","","","","","","","","","","","","","",""
"","S2","","html-keyboard-response","329","740063","0.0-1.0-463.0","0","0","54033","","null","","","null","51","","NaN","","","","","","","","","","","","","",""
"","response","","html-keyboard-response","330","740759","0.0-1.0-464.0-0.0","0","0","54033","","693","","","68","51","","","2","51","training","adjacent","GF","7","6","Q.jpg","R.jpg","0","0","1","",""
"","feedback","","html-keyboard-response","331","741768","0.0-1.0-465.0-0.0","0","0","54033","","null","","","null","51","","","","","","","","","","","","","","","",""
"","ITI","","html-keyboard-response","332","742775","0.0-1.0-468.0","0","0","54033","","null","","","null","51","","","","","","","","","","","","","","","NaN",""
"","S1","","html-keyboard-response","333","743032","0.0-1.0-470.0","0","0","54033","","null","","","null","52","","","","","","","","","","","","","","","",""
"","ISI","","html-keyboard-response","334","744040","0.0-1.0-471.0","0","0","54033","","null","","","null","52","NaN","","","","","","","","","","","","","","",""
"","S2","","html-keyboard-response","335","744294","0.0-1.0-472.0","0","0","54033","","null","","","null","52","","NaN","","","","","","","","","","","","","",""
"","response","","html-keyboard-response","336","744769","0.0-1.0-473.0-0.0","0","0","54033","","472","","","68","52","","","2","52","training","adjacent","AB","1","2","P.jpg","L.jpg","0","1","0","",""
"","feedback","","html-keyboard-response","337","745775","0.0-1.0-474.0-0.0","0","0","54033","","null","","","null","52","","","","","","","","","","","","","","","",""
"","time_out","","html-keyboard-response","338","747784","0.0-1.0-476.0-0.0","0","0","54033","","null","","","null","52","","","","","","","","","","","","","","","",""
"","ITI","","html-keyboard-response","339","748792","0.0-1.0-477.0","0","0","54033","","null","","","null","52","","","","","","","","","","","","","","","NaN",""
"","S1","","html-keyboard-response","340","749047","0.0-1.0-479.0","0","0","54033","","null","","","null","53","","","","","","","","","","","","","","","",""
"","ISI","","html-keyboard-response","341","750056","0.0-1.0-480.0","0","0","54033","","null","","","null","53","NaN","","","","","","","","","","","","","","",""
"","S2","","html-keyboard-response","342","750311","0.0-1.0-481.0","0","0","54033","","null","","","null","53","","NaN","","","","","","","","","","","","","",""
"","response","","html-keyboard-response","343","750689","0.0-1.0-482.0-0.0","0","0","54033","","375","","","75","53","","","2","53","training","adjacent","FG","6","7","R.jpg","Q.jpg","1","1","1","",""
"","feedback","","html-keyboard-response","344","751696","0.0-1.0-483.0-0.0","0","0","54033","","null","","","null","53","","","","","","","","","","","","","","","",""
"","ITI","","html-keyboard-response","345","752707","0.0-1.0-486.0","0","0","54033","","null","","","null","53","","","","","","","","","","","","","","","NaN",""
"","S1","","html-keyboard-response","346","752968","0.0-1.0-488.0","0","0","54033","","null","","","null","54","","","","","","","","","","","","","","","",""
"","ISI","","html-keyboard-response","347","753976","0.0-1.0-489.0","0","0","54033","","null","","","null","54","NaN","","","","","","","","","","","","","","",""
"","S2","","html-keyboard-response","348","754231","0.0-1.0-490.0","0","0","54033","","null","","","null","54","","NaN","","","","","","","","","","","","","",""
"","response","","html-keyboard-response","349","754609","0.0-1.0-491.0-0.0","0","0","54033","","375","","","75","54","","","2","54","training","adjacent","BC","2","3","L.jpg","N.jpg","1","1","1","",""
"","feedback","","html-keyboard-response","350","755616","0.0-1.0-492.0-0.0","0","0","54033","","null","","","null","54","","","","","","","","","","","","","","","",""
"","ITI","","html-keyboard-response","351","756624","0.0-1.0-495.0","0","0","54033","","null","","","null","54","","","","","","","","","","","","","","","NaN",""
"","S1","","html-keyboard-response","352","756880","0.0-1.0-497.0","0","0","54033","","null","","","null","55","","","","","","","","","","","","","","","",""
"","ISI","","html-keyboard-response","353","757888","0.0-1.0-498.0","0","0","54033","","null","","","null","55","NaN","","","","","","","","","","","","","","",""
"","S2","","html-keyboard-response","354","758138","0.0-1.0-499.0","0","0","54033","","249","","","68","55","","d","2","55","training","adjacent","FG","6","7","R.jpg","Q.jpg","0","1","0","",""
"","feedback","","html-keyboard-response","355","759144","0.0-1.0-501.0-0.0","0","0","54033","","null","","","null","55","","","","","","","","","","","","","","","",""
"","time_out","","html-keyboard-response","356","761151","0.0-1.0-503.0-0.0","0","0","54033","","null","","","null","55","","","","","","","","","","","","","","","",""
"","ITI","","html-keyboard-response","357","762160","0.0-1.0-504.0","0","0","54033","","null","","","null","55","","","","","","","","","","","","","","","NaN",""
"","S1","","html-keyboard-response","358","762416","0.0-1.0-506.0","0","0","54033","","null","","","null","56","","","","","","","","","","","","","","","",""
"","ISI","","html-keyboard-response","359","763424","0.0-1.0-507.0","0","0","54033","","null","","","null","56","NaN","","","","","","","","","","","","","","",""
"","S2","","html-keyboard-response","360","763680","0.0-1.0-508.0","0","0","54033","","null","","","null","56","","NaN","","","","","","","","","","","","","",""
"","response","","html-keyboard-response","361","764039","0.0-1.0-509.0-0.0","0","0","54033","","356","","","75","56","","","2","56","training","adjacent","EF","5","6","O.jpg","R.jpg","1","1","1","",""
"","feedback","","html-keyboard-response","362","765048","0.0-1.0-510.0-0.0","0","0","54033","","null","","","null","56","","","","","","","","","","","","","","","",""
"","ITI","","html-keyboard-response","363","766055","0.0-1.0-513.0","0","0","54033","","null","","","null","56","","","","","","","","","","","","","","","NaN",""
"","S1","","html-keyboard-response","364","766311","0.0-1.0-515.0","0","0","54033","","null","","","null","57","","","","","","","","","","","","","","","",""
"","ISI","","html-keyboard-response","365","767320","0.0-1.0-516.0","0","0","54033","","null","","","null","57","NaN","","","","","","","","","","","","","","",""
"","S2","","html-keyboard-response","366","767576","0.0-1.0-517.0","0","0","54033","","null","","","null","57","","NaN","","","","","","","","","","","","","",""
"","response","","html-keyboard-response","367","768529","0.0-1.0-518.0-0.0","0","0","54033","","950","","","75","57","","","2","57","training","adjacent","BC","2","3","L.jpg","N.jpg","1","1","1","",""
"","feedback","","html-keyboard-response","368","769535","0.0-1.0-519.0-0.0","0","0","54033","","null","","","null","57","","","","","","","","","","","","","","","",""
"","ITI","","html-keyboard-response","369","770544","0.0-1.0-522.0","0","0","54033","","null","","","null","57","","","","","","","","","","","","","","","NaN",""
"","S1","","html-keyboard-response","370","770800","0.0-1.0-524.0","0","0","54033","","null","","","null","58","","","","","","","","","","","","","","","",""
"","ISI","","html-keyboard-response","371","771808","0.0-1.0-525.0","0","0","54033","","null","","","null","58","NaN","","","","","","","","","","","","","","",""
"","S2","","html-keyboard-response","372","772063","0.0-1.0-526.0","0","0","54033","","null","","","null","58","","NaN","","","","","","","","","","","","","",""
"","response","","html-keyboard-response","373","773823","0.0-1.0-527.0-0.0","0","0","54033","","null","","","null","58","","","2","58","training","adjacent","ED","5","4","O.jpg","M.jpg","NaN","0","0","",""
"","too_slow_prompt","","html-keyboard-response","374","774831","0.0-1.0-529.0-0.0","1","0","54033","","null","","","null","","","","","","","","","","","","","","","","",""
"","time_out","","html-keyboard-response","375","776840","0.0-1.0-530.0-0.0","0","0","54033","","null","","","null","58","","","","","","","","","","","","","","","",""
"","ITI","","html-keyboard-response","376","777847","0.0-1.0-531.0","0","0","54033","","null","","","null","58","","","","","","","","","","","","","","","NaN",""
"","S1","","html-keyboard-response","377","778104","0.0-1.0-533.0","0","0","54033","","null","","","null","59","","","","","","","","","","","","","","","",""
"","ISI","","html-keyboard-response","378","779112","0.0-1.0-534.0","0","0","54033","","null","","","null","59","NaN","","","","","","","","","","","","","","",""
"","S2","","html-keyboard-response","379","779368","0.0-1.0-535.0","0","0","54033","","null","","","null","59","","NaN","","","","","","","","","","","","","",""
"","response","","html-keyboard-response","380","779459","0.0-1.0-536.0-0.0","0","0","54033","","88","","","75","59","","","2","59","training","adjacent","CD","3","4","N.jpg","M.jpg","1","1","1","",""
"","feedback","","html-keyboard-response","381","780463","0.0-1.0-537.0-0.0","0","0","54033","","null","","","null","59","","","","","","","","","","","","","","","",""
"","ITI","","html-keyboard-response","382","781472","0.0-1.0-540.0","0","0","54033","","null","","","null","59","","","","","","","","","","","","","","","NaN",""
"","S1","","html-keyboard-response","383","781728","0.0-1.0-542.0","0","0","54033","","null","","","null","60","","","","","","","","","","","","","","","",""
"","ISI","","html-keyboard-response","384","782736","0.0-1.0-543.0","0","0","54033","","null","","","null","60","NaN","","","","","","","","","","","","","","",""
"","S2","","html-keyboard-response","385","782992","0.0-1.0-544.0","0","0","54033","","null","","","null","60","","NaN","","","","","","","","","","","","","",""
"","response","","html-keyboard-response","386","783988","0.0-1.0-545.0-0.0","0","0","54033","","994","","","75","60","","","2","60","training","adjacent","AB","1","2","P.jpg","L.jpg","1","1","1","",""
"","feedback","","html-keyboard-response","387","784999","0.0-1.0-546.0-0.0","0","0","54033","","null","","","null","60","","","","","","","","","","","","","","","",""
"","ITI","","html-keyboard-response","388","786010","0.0-1.0-549.0","0","0","54033","","null","","","null","60","","","","","","","","","","","","","","","NaN",""
"","S1","","html-keyboard-response","389","786263","0.0-1.0-551.0","0","0","54033","","null","","","null","61","","","","","","","","","","","","","","","",""
"","ISI","","html-keyboard-response","390","787273","0.0-1.0-552.0","0","0","54033","","null","","","null","61","NaN","","","","","","","","","","","","","","",""
"","S2","","html-keyboard-response","391","787529","0.0-1.0-553.0","0","0","54033","","null","","","null","61","","NaN","","","","","","","","","","","","","",""
"","response","","html-keyboard-response","392","787668","0.0-1.0-554.0-0.0","0","0","54033","","135","","","68","61","","","2","61","training","adjacent","BA","2","1","L.jpg","P.jpg","0","0","1","",""
"","feedback","","html-keyboard-response","393","788680","0.0-1.0-555.0-0.0","0","0","54033","","null","","","null","61","","","","","","","","","","","","","","","",""
"","ITI","","html-keyboard-response","394","789689","0.0-1.0-558.0","0","0","54033","","null","","","null","61","","","","","","","","","","","","","","","NaN",""
"","S1","","html-keyboard-response","395","789943","0.0-1.0-560.0","0","0","54033","","null","","","null","62","","","","","","","","","","","","","","","",""
"","ISI","","html-keyboard-response","396","790951","0.0-1.0-561.0","0","0","54033","","null","","","null","62","NaN","","","","","","","","","","","","","","",""
"","S2","","html-keyboard-response","397","791207","0.0-1.0-562.0","0","0","54033","","null","","","null","62","","NaN","","","","","","","","","","","","","",""
"","response","","html-keyboard-response","398","791349","0.0-1.0-563.0-0.0","0","0","54033","","138","","","75","62","","","2","62","training","adjacent","FG","6","7","R.jpg","Q.jpg","1","1","1","",""
"","feedback","","html-keyboard-response","399","792359","0.0-1.0-564.0-0.0","0","0","54033","","null","","","null","62","","","","","","","","","","","","","","","",""
"","ITI","","html-keyboard-response","400","793368","0.0-1.0-567.0","0","0","54033","","null","","","null","62","","","","","","","","","","","","","","","NaN",""
"","S1","","html-keyboard-response","401","793623","0.0-1.0-569.0","0","0","54033","","null","","","null","63","","","","","","","","","","","","","","","",""
"","ISI","","html-keyboard-response","402","794631","0.0-1.0-570.0","0","0","54033","","null","","","null","63","NaN","","","","","","","","","","","","","","",""
"","S2","","html-keyboard-response","403","794888","0.0-1.0-571.0","0","0","54033","","null","","","null","63","","NaN","","","","","","","","","","","","","",""
"","response","","html-keyboard-response","404","795910","0.0-1.0-572.0-0.0","0","0","54033","","1019","","","75","63","","","2","63","training","adjacent","BA","2","1","L.jpg","P.jpg","1","0","0","",""
"","feedback","","html-keyboard-response","405","796920","0.0-1.0-573.0-0.0","0","0","54033","","null","","","null","63","","","","","","","","","","","","","","","",""
"","time_out","","html-keyboard-response","406","798928","0.0-1.0-575.0-0.0","0","0","54033","","null","","","null","63","","","","","","","","","","","","","","","",""
"","ITI","","html-keyboard-response","407","799937","0.0-1.0-576.0","0","0","54033","","null","","","null","63","","","","","","","","","","","","","","","NaN",""
"","S1","","html-keyboard-response","408","800192","0.0-1.0-578.0","0","0","54033","","null","","","null","64","","","","","","","","","","","","","","","",""
"","ISI","","html-keyboard-response","409","801199","0.0-1.0-579.0","0","0","54033","","747","","","75","64","k","","","","","","","","","","","","","","",""
"","S2","","html-keyboard-response","410","801457","0.0-1.0-580.0","0","0","54033","","null","","","null","64","","NaN","","","","","","","","","","","","","",""
"","response","","html-keyboard-response","411","801880","0.0-1.0-581.0-0.0","0","0","54033","","419","","","75","64","","","2","64","training","adjacent","EF","5","6","O.jpg","R.jpg","1","1","1","",""
"","feedback","","html-keyboard-response","412","802888","0.0-1.0-582.0-0.0","0","0","54033","","null","","","null","64","","","","","","","","","","","","","","","",""
"","ITI","","html-keyboard-response","413","803896","0.0-1.0-585.0","0","0","54033","","null","","","null","64","","","","","","","","","","","","","","","NaN",""
"","S1","","html-keyboard-response","414","804152","0.0-1.0-587.0","0","0","54033","","null","","","null","65","","","","","","","","","","","","","","","",""
"","ISI","","html-keyboard-response","415","805159","0.0-1.0-588.0","0","0","54033","","915","","","68","65","d","","","","","","","","","","","","","","",""
"","S2","","html-keyboard-response","416","805416","0.0-1.0-589.0","0","0","54033","","null","","","null","65","","NaN","","","","","","","","","","","","","",""
"","response","","html-keyboard-response","417","805861","0.0-1.0-590.0-0.0","0","0","54033","","440","","","68","65","","","2","65","training","adjacent","AB","1","2","P.jpg","L.jpg","0","1","0","",""
"","feedback","","html-keyboard-response","418","806872","0.0-1.0-591.0-0.0","0","0","54033","","null","","","null","65","","","","","","","","","","","","","","","",""
"","time_out","","html-keyboard-response","419","808879","0.0-1.0-593.0-0.0","0","0","54033","","null","","","null","65","","","","","","","","","","","","","","","",""
"","ITI","","html-keyboard-response","420","809888","0.0-1.0-594.0","0","0","54033","","null","","","null","65","","","","","","","","","","","","","","","NaN",""
"","S1","","html-keyboard-response","421","810143","0.0-1.0-596.0","0","0","54033","","null","","","null","66","","","","","","","","","","","","","","","",""
"","ISI","","html-keyboard-response","422","811151","0.0-1.0-597.0","0","0","54033","","null","","","null","66","NaN","","","","","","","","","","","","","","",""
"","S2","","html-keyboard-response","423","811406","0.0-1.0-598.0","0","0","54033","","null","","","null","66","","NaN","","","","","","","","","","","","","",""
"","response","","html-keyboard-response","424","811602","0.0-1.0-599.0-0.0","0","0","54033","","192","","","68","66","","","2","66","training","adjacent","GF","7","6","Q.jpg","R.jpg","0","0","1","",""
"","feedback","","html-keyboard-response","425","812608","0.0-1.0-600.0-0.0","0","0","54033","","null","","","null","66","","","","","","","","","","","","","","","",""
"","ITI","","html-keyboard-response","426","813617","0.0-1.0-603.0","0","0","54033","","null","","","null","66","","","","","","","","","","","","","","","NaN",""
"","S1","","html-keyboard-response","427","813872","0.0-1.0-605.0","0","0","54033","","null","","","null","67","","","","","","","","","","","","","","","",""
"","ISI","","html-keyboard-response","428","814879","0.0-1.0-606.0","0","0","54033","","null","","","null","67","NaN","","","","","","","","","","","","","","",""
"","S2","","html-keyboard-response","429","815136","0.0-1.0-607.0","0","0","54033","","null","","","null","67","","NaN","","","","","","","","","","","","","",""
"","response","","html-keyboard-response","430","815529","0.0-1.0-608.0-0.0","0","0","54033","","389","","","68","67","","","2","67","training","adjacent","DE","4","5","M.jpg","O.jpg","0","1","0","",""
"","feedback","","html-keyboard-response","431","816536","0.0-1.0-609.0-0.0","0","0","54033","","null","","","null","67","","","","","","","","","","","","","","","",""
"","time_out","","html-keyboard-response","432","818543","0.0-1.0-611.0-0.0","0","0","54033","","null","","","null","67","","","","","","","","","","","","","","","",""
"","ITI","","html-keyboard-response","433","819551","0.0-1.0-612.0","0","0","54033","","null","","","null","67","","","","","","","","","","","","","","","NaN",""
"","S1","","html-keyboard-response","434","819808","0.0-1.0-614.0","0","0","54033","","null","","","null","68","","","","","","","","","","","","","","","",""
"","ISI","","html-keyboard-response","435","820815","0.0-1.0-615.0","0","0","54033","","null","","","null","68","NaN","","","","","","","","","","","","","","",""
"","S2","","html-keyboard-response","436","820929","0.0-1.0-616.0","0","0","54033","","109","","","75","68","","k","2","68","training","adjacent","FE","6","5","R.jpg","O.jpg","1","0","0","",""
"","feedback","","html-keyboard-response","437","821934","0.0-1.0-618.0-0.0","0","0","54033","","null","","","null","68","","","","","","","","","","","","","","","",""
"","time_out","","html-keyboard-response","438","823943","0.0-1.0-620.0-0.0","0","0","54033","","null","","","null","68","","","","","","","","","","","","","","","",""
"","ITI","","html-keyboard-response","439","824951","0.0-1.0-621.0","0","0","54033","","null","","","null","68","","","","","","","","","","","","","","","NaN",""
"","S1","","html-keyboard-response","440","825207","0.0-1.0-623.0","0","0","54033","","null","","","null","69","","","","","","","","","","","","","","","",""
"","ISI","","html-keyboard-response","441","826216","0.0-1.0-624.0","0","0","54033","","968","","","68","69","d","","","","","","","","","","","","","","",""
"","S2","","html-keyboard-response","442","826471","0.0-1.0-625.0","0","0","54033","","null","","","null","69","","NaN","","","","","","","","","","","","","",""
"","response","","html-keyboard-response","443","827118","0.0-1.0-626.0-0.0","0","0","54033","","644","","","68","69","","","2","69","training","adjacent","FE","6","5","R.jpg","O.jpg","0","0","1","",""
"","feedback","","html-keyboard-response","444","828127","0.0-1.0-627.0-0.0","0","0","54033","","null","","","null","69","","","","","","","","","","","","","","","",""
"","ITI","","html-keyboard-response","445","829136","0.0-1.0-630.0","0","0","54033","","null","","","null","69","","","","","","","","","","","","","","","NaN",""
"","S1","","html-keyboard-response","446","829390","0.0-1.0-632.0","0","0","54033","","null","","","null","70","","","","","","","","","","","","","","","",""
"","ISI","","html-keyboard-response","447","830401","0.0-1.0-633.0","0","0","54033","","null","","","null","70","NaN","","","","","","","","","","","","","","",""
"","S2","","html-keyboard-response","448","830654","0.0-1.0-634.0","0","0","54033","","null","","","null","70","","NaN","","","","","","","","","","","","","",""
"","response","","html-keyboard-response","449","831169","0.0-1.0-635.0-0.0","0","0","54033","","512","","","68","70","","","2","70","training","adjacent","CD","3","4","N.jpg","M.jpg","0","1","0","",""
"","feedback","","html-keyboard-response","450","832177","0.0-1.0-636.0-0.0","0","0","54033","","null","","","null","70","","","","","","","","","","","","","","","",""
"","time_out","","html-keyboard-response","451","834184","0.0-1.0-638.0-0.0","0","0","54033","","null","","","null","70","","","","","","","","","","","","","","","",""
"","ITI","","html-keyboard-response","452","835191","0.0-1.0-639.0","0","0","54033","","null","","","null","70","","","","","","","","","","","","","","","NaN",""
"","S1","","html-keyboard-response","453","835447","0.0-1.0-641.0","0","0","54033","","null","","","null","71","","","","","","","","","","","","","","","",""
"","ISI","","html-keyboard-response","454","836454","0.0-1.0-642.0","0","0","54033","","189","","","75","71","k","","","","","","","","","","","","","","",""
"","S2","","html-keyboard-response","455","836712","0.0-1.0-643.0","0","0","54033","","null","","","null","71","","NaN","","","","","","","","","","","","","",""
"","response","","html-keyboard-response","456","837158","0.0-1.0-644.0-0.0","0","0","54033","","443","","","75","71","","","2","71","training","adjacent","ED","5","4","O.jpg","M.jpg","1","0","0","",""
"","feedback","","html-keyboard-response","457","838168","0.0-1.0-645.0-0.0","0","0","54033","","null","","","null","71","","","","","","","","","","","","","","","",""
"","time_out","","html-keyboard-response","458","840176","0.0-1.0-647.0-0.0","0","0","54033","","null","","","null","71","","","","","","","","","","","","","","","",""
"","ITI","","html-keyboard-response","459","841186","0.0-1.0-648.0","0","0","54033","","null","","","null","71","","","","","","","","","","","","","","","NaN",""
"","S1","","html-keyboard-response","460","841447","0.0-1.0-650.0","0","0","54033","","null","","","null","72","","","","","","","","","","","","","","","",""
"","ISI","","html-keyboard-response","461","842456","0.0-1.0-651.0","0","0","54033","","null","","","null","72","NaN","","","","","","","","","","","","","","",""
"","S2","","html-keyboard-response","462","842711","0.0-1.0-652.0","0","0","54033","","null","","","null","72","","NaN","","","","","","","","","","","","","",""
"","response","","html-keyboard-response","463","843568","0.0-1.0-653.0-0.0","0","0","54033","","853","","","75","72","","","2","72","training","adjacent","DC","4","3","M.jpg","N.jpg","1","0","0","",""
"","feedback","","html-keyboard-response","464","844576","0.0-1.0-654.0-0.0","0","0","54033","","null","","","null","72","","","","","","","","","","","","","","","",""
"","time_out","","html-keyboard-response","465","846586","0.0-1.0-656.0-0.0","0","0","54033","","null","","","null","72","","","","","","","","","","","","","","","",""
"","ITI","","html-keyboard-response","466","847591","0.0-1.0-657.0","0","0","54033","","null","","","null","72","","","","","","","","","","","","","","","NaN",""
"","S1","","html-keyboard-response","467","847847","0.0-1.0-659.0","0","0","54033","","null","","","null","73","","","","","","","","","","","","","","","",""
"","ISI","","html-keyboard-response","468","848855","0.0-1.0-660.0","0","0","54033","","null","","","null","73","NaN","","","","","","","","","","","","","","",""
"","S2","","html-keyboard-response","469","849111","0.0-1.0-661.0","0","0","54033","","null","","","null","73","","NaN","","","","","","","","","","","","","",""
"","response","","html-keyboard-response","470","849458","0.0-1.0-662.0-0.0","0","0","54033","","343","","","68","73","","","2","73","training","adjacent","CB","3","2","N.jpg","L.jpg","0","0","1","",""
"","feedback","","html-keyboard-response","471","850463","0.0-1.0-663.0-0.0","0","0","54033","","null","","","null","73","","","","","","","","","","","","","","","",""
"","ITI","","html-keyboard-response","472","851472","0.0-1.0-666.0","0","0","54033","","null","","","null","73","","","","","","","","","","","","","","","NaN",""
"","S1","","html-keyboard-response","473","851727","0.0-1.0-668.0","0","0","54033","","null","","","null","74","","","","","","","","","","","","","","","",""
"","ISI","","html-keyboard-response","474","852735","0.0-1.0-669.0","0","0","54033","","null","","","null","74","NaN","","","","","","","","","","","","","","",""
"","S2","","html-keyboard-response","475","852992","0.0-1.0-670.0","0","0","54033","","null","","","null","74","","NaN","","","","","","","","","","","","","",""
"","response","","html-keyboard-response","476","853404","0.0-1.0-671.0-0.0","0","0","54033","","409","","","75","74","","","2","74","training","adjacent","EF","5","6","O.jpg","R.jpg","1","1","1","",""
"","feedback","","html-keyboard-response","477","854419","0.0-1.0-672.0-0.0","0","0","54033","","null","","","null","74","","","","","","","","","","","","","","","",""
"","ITI","","html-keyboard-response","478","855424","0.0-1.0-675.0","0","0","54033","","null","","","null","74","","","","","","","","","","","","","","","NaN",""
"","S1","","html-keyboard-response","479","855679","0.0-1.0-677.0","0","0","54033","","null","","","null","75","","","","","","","","","","","","","","","",""
"","ISI","","html-keyboard-response","480","856686","0.0-1.0-678.0","0","0","54033","","null","","","null","75","NaN","","","","","","","","","","","","","","",""
"","S2","","html-keyboard-response","481","856945","0.0-1.0-679.0","0","0","54033","","null","","","null","75","","NaN","","","","","","","","","","","","","",""
"","response","","html-keyboard-response","482","857298","0.0-1.0-680.0-0.0","0","0","54033","","351","","","68","75","","","2","75","training","adjacent","FG","6","7","R.jpg","Q.jpg","0","1","0","",""
"","feedback","","html-keyboard-response","483","858302","0.0-1.0-681.0-0.0","0","0","54033","","null","","","null","75","","","","","","","","","","","","","","","",""
"","time_out","","html-keyboard-response","484","860311","0.0-1.0-683.0-0.0","0","0","54033","","null","","","null","75","","","","","","","","","","","","","","","",""
"","ITI","","html-keyboard-response","485","861319","0.0-1.0-684.0","0","0","54033","","null","","","null","75","","","","","","","","","","","","","","","NaN",""
"","S1","","html-keyboard-response","486","861574","0.0-1.0-686.0","0","0","54033","","null","","","null","76","","","","","","","","","","","","","","","",""
"","ISI","","html-keyboard-response","487","862582","0.0-1.0-687.0","0","0","54033","","null","","","null","76","NaN","","","","","","","","","","","","","","",""
"","S2","","html-keyboard-response","488","862840","0.0-1.0-688.0","0","0","54033","","null","","","null","76","","NaN","","","","","","","","","","","","","",""
"","response","","html-keyboard-response","489","863339","0.0-1.0-689.0-0.0","0","0","54033","","495","","","75","76","","","2","76","training","adjacent","CB","3","2","N.jpg","L.jpg","1","0","0","",""
"","feedback","","html-keyboard-response","490","864352","0.0-1.0-690.0-0.0","0","0","54033","","null","","","null","76","","","","","","","","","","","","","","","",""
"","time_out","","html-keyboard-response","491","866360","0.0-1.0-692.0-0.0","0","0","54033","","null","","","null","76","","","","","","","","","","","","","","","",""
"","ITI","","html-keyboard-response","492","867367","0.0-1.0-693.0","0","0","54033","","null","","","null","76","","","","","","","","","","","","","","","NaN",""
"","S1","","html-keyboard-response","493","867622","0.0-1.0-695.0","0","0","54033","","null","","","null","77","","","","","","","","","","","","","","","",""
"","ISI","","html-keyboard-response","494","868631","0.0-1.0-696.0","0","0","54033","","603","","","68","77","d","","","","","","","","","","","","","","",""
"","S2","","html-keyboard-response","495","868886","0.0-1.0-697.0","0","0","54033","","null","","","null","77","","NaN","","","","","","","","","","","","","",""
"","response","","html-keyboard-response","496","870237","0.0-1.0-698.0-0.0","0","0","54033","","1348","","","75","77","","","2","77","training","adjacent","EF","5","6","O.jpg","R.jpg","1","1","1","",""
"","feedback","","html-keyboard-response","497","871248","0.0-1.0-699.0-0.0","0","0","54033","","null","","","null","77","","","","","","","","","","","","","","","",""
"","ITI","","html-keyboard-response","498","872256","0.0-1.0-702.0","0","0","54033","","null","","","null","77","","","","","","","","","","","","","","","NaN",""
"","S1","","html-keyboard-response","499","872511","0.0-1.0-704.0","0","0","54033","","null","","","null","78","","","","","","","","","","","","","","","",""
"","ISI","","html-keyboard-response","500","873519","0.0-1.0-705.0","0","0","54033","","null","","","null","78","NaN","","","","","","","","","","","","","","",""
"","S2","","html-keyboard-response","501","873774","0.0-1.0-706.0","0","0","54033","","null","","","null","78","","NaN","","","","","","","","","","","","","",""
"","response","","html-keyboard-response","502","874707","0.0-1.0-707.0-0.0","0","0","54033","","930","","","75","78","","","2","78","training","adjacent","DC","4","3","M.jpg","N.jpg","1","0","0","",""
"","feedback","","html-keyboard-response","503","875718","0.0-1.0-708.0-0.0","0","0","54033","","null","","","null","78","","","","","","","","","","","","","","","",""
"","time_out","","html-keyboard-response","504","877726","0.0-1.0-710.0-0.0","0","0","54033","","null","","","null","78","","","","","","","","","","","","","","","",""
"","ITI","","html-keyboard-response","505","878736","0.0-1.0-711.0","0","0","54033","","null","","","null","78","","","","","","","","","","","","","","","NaN",""
"","S1","","html-keyboard-response","506","878991","0.0-1.0-713.0","0","0","54033","","null","","","null","79","","","","","","","","","","","","","","","",""
"","ISI","","html-keyboard-response","507","879999","0.0-1.0-714.0","0","0","54033","","null","","","null","79","NaN","","","","","","","","","","","","","","",""
"","S2","","html-keyboard-response","508","880256","0.0-1.0-715.0","0","0","54033","","null","","","null","79","","NaN","","","","","","","","","","","","","",""
"","response","","html-keyboard-response","509","880747","0.0-1.0-716.0-0.0","0","0","54033","","488","","","75","79","","","2","79","training","adjacent","BC","2","3","L.jpg","N.jpg","1","1","1","",""
"","feedback","","html-keyboard-response","510","881760","0.0-1.0-717.0-0.0","0","0","54033","","null","","","null","79","","","","","","","","","","","","","","","",""
"","ITI","","html-keyboard-response","511","882767","0.0-1.0-720.0","0","0","54033","","null","","","null","79","","","","","","","","","","","","","","","NaN",""
"","S1","","html-keyboard-response","512","883022","0.0-1.0-722.0","0","0","54033","","null","","","null","80","","","","","","","","","","","","","","","",""
"","ISI","","html-keyboard-response","513","884031","0.0-1.0-723.0","0","0","54033","","713","","","75","80","k","","","","","","","","","","","","","","",""
"","S2","","html-keyboard-response","514","884287","0.0-1.0-724.0","0","0","54033","","null","","","null","80","","NaN","","","","","","","","","","","","","",""
"","response","","html-keyboard-response","515","886047","0.0-1.0-725.0-0.0","0","0","54033","","null","","","null","80","","","2","80","training","adjacent","FE","6","5","R.jpg","O.jpg","NaN","0","0","",""
"","too_slow_prompt","","html-keyboard-response","516","887054","0.0-1.0-727.0-0.0","1","0","54033","","null","","","null","","","","","","","","","","","","","","","","",""
"","time_out","","html-keyboard-response","517","889064","0.0-1.0-728.0-0.0","0","0","54033","","null","","","null","80","","","","","","","","","","","","","","","",""
"","ITI","","html-keyboard-response","518","890072","0.0-1.0-729.0","0","0","54033","","152","","","75","80","","","","","","","","","","","","","","","k",""
"","S1","","html-keyboard-response","519","890338","0.0-1.0-731.0","0","0","54033","","null","","","null","81","","","","","","","","","","","","","","","",""
"","ISI","","html-keyboard-response","520","891342","0.0-1.0-732.0","0","0","54033","","null","","","null","81","NaN","","","","","","","","","","","","","","",""
"","S2","","html-keyboard-response","521","891469","0.0-1.0-733.0","0","0","54033","","122","","","68","81","","d","2","81","training","adjacent","CB","3","2","N.jpg","L.jpg","0","0","1","",""
"","feedback","","html-keyboard-response","522","892478","0.0-1.0-735.0-0.0","0","0","54033","","null","","","null","81","","","","","","","","","","","","","","","",""
"","ITI","","html-keyboard-response","523","893486","0.0-1.0-738.0","0","0","54033","","null","","","null","81","","","","","","","","","","","","","","","NaN",""
"","S1","","html-keyboard-response","524","893744","0.0-1.0-740.0","0","0","54033","","null","","","null","82","","","","","","","","","","","","","","","",""
"","ISI","","html-keyboard-response","525","894751","0.0-1.0-741.0","0","0","54033","","900","","","75","82","k","","","","","","","","","","","","","","",""
"","S2","","html-keyboard-response","526","895007","0.0-1.0-742.0","0","0","54033","","null","","","null","82","","NaN","","","","","","","","","","","","","",""
"","response","","html-keyboard-response","527","895517","0.0-1.0-743.0-0.0","0","0","54033","","508","","","75","82","","","2","82","training","adjacent","BC","2","3","L.jpg","N.jpg","1","1","1","",""
"","feedback","","html-keyboard-response","528","896526","0.0-1.0-744.0-0.0","0","0","54033","","null","","","null","82","","","","","","","","","","","","","","","",""
"","ITI","","html-keyboard-response","529","897534","0.0-1.0-747.0","0","0","54033","","null","","","null","82","","","","","","","","","","","","","","","NaN",""
"","S1","","html-keyboard-response","530","897790","0.0-1.0-749.0","0","0","54033","","null","","","null","83","","","","","","","","","","","","","","","",""
"","ISI","","html-keyboard-response","531","898800","0.0-1.0-750.0","0","0","54033","","497","","","68","83","d","","","","","","","","","","","","","","",""
"","S2","","html-keyboard-response","532","899055","0.0-1.0-751.0","0","0","54033","","null","","","null","83","","NaN","","","","","","","","","","","","","",""
"","response","","html-keyboard-response","533","899347","0.0-1.0-752.0-0.0","0","0","54033","","289","","","68","83","","","2","83","training","adjacent","DE","4","5","M.jpg","O.jpg","0","1","0","",""
"","feedback","","html-keyboard-response","534","900358","0.0-1.0-753.0-0.0","0","0","54033","","null","","","null","83","","","","","","","","","","","","","","","",""
"","time_out","","html-keyboard-response","535","902367","0.0-1.0-755.0-0.0","0","0","54033","","null","","","null","83","","","","","","","","","","","","","","","",""
"","ITI","","html-keyboard-response","536","903375","0.0-1.0-756.0","0","0","54033","","271","","","75","83","","","","","","","","","","","","","","","k",""
"","S1","","html-keyboard-response","537","903630","0.0-1.0-758.0","0","0","54033","","null","","","null","84","","","","","","","","","","","","","","","",""
"","ISI","","html-keyboard-response","538","904639","0.0-1.0-759.0","0","0","54033","","414","","","75","84","k","","","","","","","","","","","","","","",""
"","S2","","html-keyboard-response","539","904894","0.0-1.0-760.0","0","0","54033","","null","","","null","84","","NaN","","","","","","","","","","","","","",""
"","response","","html-keyboard-response","540","905527","0.0-1.0-761.0-0.0","0","0","54033","","629","","","68","84","","","2","84","training","adjacent","CD","3","4","N.jpg","M.jpg","0","1","0","",""
"","feedback","","html-keyboard-response","541","906534","0.0-1.0-762.0-0.0","0","0","54033","","null","","","null","84","","","","","","","","","","","","","","","",""
"","time_out","","html-keyboard-response","542","908543","0.0-1.0-764.0-0.0","0","0","54033","","null","","","null","84","","","","","","","","","","","","","","","",""
"","ITI","","html-keyboard-response","543","909551","0.0-1.0-765.0","0","0","54033","","222","","","75","84","","","","","","","","","","","","","","","k",""
"","S1","","html-keyboard-response","544","909807","0.0-1.0-767.0","0","0","54033","","null","","","null","85","","","","","","","","","","","","","","","",""
"","ISI","","html-keyboard-response","545","910814","0.0-1.0-768.0","0","0","54033","","241","","","68","85","d","","","","","","","","","","","","","","",""
"","S2","","html-keyboard-response","546","911071","0.0-1.0-769.0","0","0","54033","","null","","","null","85","","NaN","","","","","","","","","","","","","",""
"","response","","html-keyboard-response","547","911539","0.0-1.0-770.0-0.0","0","0","54033","","464","","","68","85","","","2","85","training","adjacent","DE","4","5","M.jpg","O.jpg","0","1","0","",""
"","feedback","","html-keyboard-response","548","912552","0.0-1.0-771.0-0.0","0","0","54033","","null","","","null","85","","","","","","","","","","","","","","","",""
"","time_out","","html-keyboard-response","549","914559","0.0-1.0-773.0-0.0","0","0","54033","","null","","","null","85","","","","","","","","","","","","","","","",""
"","ITI","","html-keyboard-response","550","915567","0.0-1.0-774.0","0","0","54033","","195","","","75","85","","","","","","","","","","","","","","","k",""
"","S1","","html-keyboard-response","551","915824","0.0-1.0-776.0","0","0","54033","","null","","","null","86","","","","","","","","","","","","","","","",""
"","ISI","","html-keyboard-response","552","916827","0.0-1.0-777.0","0","0","54033","","462","","","75","86","k","","","","","","","","","","","","","","",""
"","S2","","html-keyboard-response","553","917091","0.0-1.0-778.0","0","0","54033","","null","","","null","86","","NaN","","","","","","","","","","","","","",""
"","response","","html-keyboard-response","554","917217","0.0-1.0-779.0-0.0","0","0","54033","","123","","","75","86","","","2","86","training","adjacent","DC","4","3","M.jpg","N.jpg","1","0","0","",""
"","feedback","","html-keyboard-response","555","918224","0.0-1.0-780.0-0.0","0","0","54033","","null","","","null","86","","","","","","","","","","","","","","","",""
"","time_out","","html-keyboard-response","556","920234","0.0-1.0-782.0-0.0","0","0","54033","","null","","","null","86","","","","","","","","","","","","","","","",""
"","ITI","","html-keyboard-response","557","921240","0.0-1.0-783.0","0","0","54033","","171","","","75","86","","","","","","","","","","","","","","","k",""
"","S1","","html-keyboard-response","558","921494","0.0-1.0-785.0","0","0","54033","","null","","","null","87","","","","","","","","","","","","","","","",""
"","ISI","","html-keyboard-response","559","922507","0.0-1.0-786.0","0","0","54033","","11","","","75","87","k","","","","","","","","","","","","","","",""
"","S2","","html-keyboard-response","560","922767","0.0-1.0-787.0","0","0","54033","","null","","","null","87","","NaN","","","","","","","","","","","","","",""
"","response","","html-keyboard-response","561","923107","0.0-1.0-788.0-0.0","0","0","54033","","339","","","75","87","","","2","87","training","adjacent","BA","2","1","L.jpg","P.jpg","1","0","0","",""
"","feedback","","html-keyboard-response","562","924119","0.0-1.0-789.0-0.0","0","0","54033","","null","","","null","87","","","","","","","","","","","","","","","",""
"","time_out","","html-keyboard-response","563","926127","0.0-1.0-791.0-0.0","0","0","54033","","null","","","null","87","","","","","","","","","","","","","","","",""
"","ITI","","html-keyboard-response","564","927134","0.0-1.0-792.0","0","0","54033","","707","","","75","87","","","","","","","","","","","","","","","k",""
"","S1","","html-keyboard-response","565","927392","0.0-1.0-794.0","0","0","54033","","null","","","null","88","","","","","","","","","","","","","","","",""
"","ISI","","html-keyboard-response","566","928398","0.0-1.0-795.0","0","0","54033","","292","","","75","88","k","","","","","","","","","","","","","","",""
"","S2","","html-keyboard-response","567","928597","0.0-1.0-796.0","0","0","54033","","196","","","68","88","","d","2","88","training","adjacent","FE","6","5","R.jpg","O.jpg","0","0","1","",""
"","feedback","","html-keyboard-response","568","929607","0.0-1.0-798.0-0.0","0","0","54033","","null","","","null","88","","","","","","","","","","","","","","","",""
"","ITI","","html-keyboard-response","569","930617","0.0-1.0-801.0","0","0","54033","","null","","","null","88","","","","","","","","","","","","","","","NaN",""
"","S1","","html-keyboard-response","570","930871","0.0-1.0-803.0","0","0","54033","","null","","","null","89","","","","","","","","","","","","","","","",""
"","ISI","","html-keyboard-response","571","931880","0.0-1.0-804.0","0","0","54033","","504","","","75","89","k","","","","","","","","","","","","","","",""
"","S2","","html-keyboard-response","572","932135","0.0-1.0-805.0","0","0","54033","","null","","","null","89","","NaN","","","","","","","","","","","","","",""
"","response","","html-keyboard-response","573","932437","0.0-1.0-806.0-0.0","0","0","54033","","300","","","75","89","","","2","89","training","adjacent","AB","1","2","P.jpg","L.jpg","1","1","1","",""
"","feedback","","html-keyboard-response","574","933447","0.0-1.0-807.0-0.0","0","0","54033","","null","","","null","89","","","","","","","","","","","","","","","",""
"","ITI","","html-keyboard-response","575","934456","0.0-1.0-810.0","0","0","54033","","null","","","null","89","","","","","","","","","","","","","","","NaN",""
"","S1","","html-keyboard-response","576","934711","0.0-1.0-812.0","0","0","54033","","null","","","null","90","","","","","","","","","","","","","","","",""
"","ISI","","html-keyboard-response","577","935720","0.0-1.0-813.0","0","0","54033","","954","","","75","90","k","","","","","","","","","","","","","","",""
"","S2","","html-keyboard-response","578","935978","0.0-1.0-814.0","0","0","54033","","null","","","null","90","","NaN","","","","","","","","","","","","","",""
"","response","","html-keyboard-response","579","936457","0.0-1.0-815.0-0.0","0","0","54033","","477","","","75","90","","","2","90","training","adjacent","ED","5","4","O.jpg","M.jpg","1","0","0","",""
"","feedback","","html-keyboard-response","580","937472","0.0-1.0-816.0-0.0","0","0","54033","","null","","","null","90","","","","","","","","","","","","","","","",""
"","time_out","","html-keyboard-response","581","939479","0.0-1.0-818.0-0.0","0","0","54033","","null","","","null","90","","","","","","","","","","","","","","","",""
"","ITI","","html-keyboard-response","582","940487","0.0-1.0-819.0","0","0","54033","","516","","","75","90","","","","","","","","","","","","","","","k",""
"","S1","","html-keyboard-response","583","940744","0.0-1.0-821.0","0","0","54033","","null","","","null","91","","","","","","","","","","","","","","","",""
