"success","ttype","start_time","trial_type","trial_index","time_elapsed","internal_node_id","warning","missed_checkup","PID","view_history","rt","responses","repeat_instructions","key_press","index","keypress_isi","keypress_S2","block","trial_num","phase","group_type","pair_type","S1_stim","S2_stim","S1_img","S2_img","S1_chosen","S1_higher","accuracy","keypress_iti","total_bonus_tally"
"true","full_screen","d03082023hr1646","fullscreen","0","3139","0.0-0.0","0","0","91171","","","","","","","","","","","","","","","","","","","","","",""
"","instructions","","instructions","1","39894","0.0-1.0-0.0-0.0","0","0","91171","[{""page_index"":0,""viewing_time"":5611},{""page_index"":1,""viewing_time"":19318},{""page_index"":2,""viewing_time"":10070},{""page_index"":3,""viewing_time"":1754}]","36753","","","","","","","","","","","","","","","","","","","",""
"","comprehension_check","","survey-multi-choice","2","57168","0.0-1.0-0.0-1.0","0","0","91171","","17271","{""Q0"":""True"",""Q1"":""K"",""Q2"":""Only when the screen 'MAKE A CHOICE' is shown"",""Q3"":""Green mark"",""Q4"":""either D or K""}","1","","","","","","","","","","","","","","","","","",""
"","missed_instruction_checkup","","html-keyboard-response","3","59602","0.0-1.0-0.0-2.0-0.0","0","1","91171","","2432","","","32","","","","","","","","","","","","","","","","",""
"","instructions","","instructions","4","83132","0.0-1.0-0.1-0.1","0","0","91171","[{""page_index"":0,""viewing_time"":3276},{""page_index"":1,""viewing_time"":11169},{""page_index"":2,""viewing_time"":7367},{""page_index"":3,""viewing_time"":1717}]","23529","","","","","","","","","","","","","","","","","","","",""
"","comprehension_check","","survey-multi-choice","5","144788","0.0-1.0-0.1-1.1","0","0","91171","","61653","{""Q0"":""True"",""Q1"":""K"",""Q2"":""Only when the screen 'MAKE A CHOICE' is shown"",""Q3"":""Green mark"",""Q4"":""either D or K""}","1","","","","","","","","","","","","","","","","","",""
"","missed_instruction_checkup","","html-keyboard-response","6","146480","0.0-1.0-0.1-2.1-0.1","0","1","91171","","1690","","","32","","","","","","","","","","","","","","","","",""
"","instructions","","instructions","7","164551","0.0-1.0-0.2-0.2","0","0","91171","[{""page_index"":0,""viewing_time"":2422},{""page_index"":1,""viewing_time"":13997},{""page_index"":2,""viewing_time"":1007},{""page_index"":3,""viewing_time"":643}]","18070","","","","","","","","","","","","","","","","","","","",""
"","comprehension_check","","survey-multi-choice","8","172326","0.0-1.0-0.2-1.2","0","0","91171","","7773","{""Q0"":""True"",""Q1"":""K"",""Q2"":""Once the second image appears and while the screen 'MAKE A CHOICE' is shown"",""Q3"":""Green mark"",""Q4"":""either D or K""}","0","","","","","","","","","","","","","","","","","",""
"","start_exp","","html-keyboard-response","9","173876","0.0-1.0-1.0","0","0","91171","","1549","","","32","","","","","","","","","","","","","","","","",""
"","S1","","html-keyboard-response","10","174130","0.0-1.0-2.0","0","0","91171","","null","","","null","0","","","","","","","","","","","","","","","",""
"","ISI","","html-keyboard-response","11","174282","0.0-1.0-3.0","0","0","91171","","null","","","null","0","NaN","","","","","","","","","","","","","","",""
"","S2","","html-keyboard-response","12","174535","0.0-1.0-4.0","0","0","91171","","null","","","null","0","","NaN","","","","","","","","","","","","","",""
"","response","","html-keyboard-response","13","175721","0.0-1.0-5.0-0.0","0","0","91171","","1184","","","75","0","","","1","0","training","adjacent","ED","5","4","R.jpg","N.jpg","1","0","0","",""
"","feedback","","html-keyboard-response","14","176724","0.0-1.0-6.0-0.0","0","0","91171","","null","","","null","0","","","","","","","","","","","","","","","",""
"","time_out","","html-keyboard-response","15","178727","0.0-1.0-8.0-0.0","0","0","91171","","null","","","null","0","","","","","","","","","","","","","","","",""
"","ITI","","html-keyboard-response","16","179715","0.0-1.0-9.0","0","0","91171","","null","","","null","0","","","","","","","","","","","","","","","NaN",""
"","S1","","html-keyboard-response","17","179968","0.0-1.0-11.0","0","0","91171","","null","","","null","1","","","","","","","","","","","","","","","",""
"","ISI","","html-keyboard-response","18","180119","0.0-1.0-12.0","0","0","91171","","null","","","null","1","NaN","","","","","","","","","","","","","","",""
"","S2","","html-keyboard-response","19","180372","0.0-1.0-13.0","0","0","91171","","null","","","null","1","","NaN","","","","","","","","","","","","","",""
"","response","","html-keyboard-response","20","181421","0.0-1.0-14.0-0.0","0","0","91171","","1048","","","68","1","","","1","1","training","adjacent","BA","2","1","L.jpg","P.jpg","0","0","1","",""
"","feedback","","html-keyboard-response","21","182425","0.0-1.0-15.0-0.0","0","0","91171","","null","","","null","1","","","","","","","","","","","","","","","",""
"","ITI","","html-keyboard-response","22","183428","0.0-1.0-18.0","0","0","91171","","null","","","null","1","","","","","","","","","","","","","","","NaN",""
"","S1","","html-keyboard-response","23","183681","0.0-1.0-20.0","0","0","91171","","null","","","null","2","","","","","","","","","","","","","","","",""
"","ISI","","html-keyboard-response","24","183833","0.0-1.0-21.0","0","0","91171","","null","","","null","2","NaN","","","","","","","","","","","","","","",""
"","S2","","html-keyboard-response","25","184086","0.0-1.0-22.0","0","0","91171","","null","","","null","2","","NaN","","","","","","","","","","","","","",""
"","response","","html-keyboard-response","26","184559","0.0-1.0-23.0-0.0","0","0","91171","","472","","","68","2","","","1","2","training","adjacent","FE","6","5","M.jpg","R.jpg","0","0","1","",""
"","feedback","","html-keyboard-response","27","185563","0.0-1.0-24.0-0.0","0","0","91171","","null","","","null","2","","","","","","","","","","","","","","","",""
"","ITI","","html-keyboard-response","28","186566","0.0-1.0-27.0","0","0","91171","","null","","","null","2","","","","","","","","","","","","","","","NaN",""
"","S1","","html-keyboard-response","29","186819","0.0-1.0-29.0","0","0","91171","","null","","","null","3","","","","","","","","","","","","","","","",""
"","ISI","","html-keyboard-response","30","186971","0.0-1.0-30.0","0","0","91171","","null","","","null","3","NaN","","","","","","","","","","","","","","",""
"","S2","","html-keyboard-response","31","187224","0.0-1.0-31.0","0","0","91171","","null","","","null","3","","NaN","","","","","","","","","","","","","",""
"","response","","html-keyboard-response","32","187642","0.0-1.0-32.0-0.0","0","0","91171","","417","","","68","3","","","1","3","training","adjacent","EF","5","6","R.jpg","M.jpg","0","1","0","",""
"","feedback","","html-keyboard-response","33","188645","0.0-1.0-33.0-0.0","0","0","91171","","null","","","null","3","","","","","","","","","","","","","","","",""
"","time_out","","html-keyboard-response","34","190648","0.0-1.0-35.0-0.0","0","0","91171","","null","","","null","3","","","","","","","","","","","","","","","",""
"","ITI","","html-keyboard-response","35","191650","0.0-1.0-36.0","0","0","91171","","null","","","null","3","","","","","","","","","","","","","","","NaN",""
"","S1","","html-keyboard-response","36","191903","0.0-1.0-38.0","0","0","91171","","null","","","null","4","","","","","","","","","","","","","","","",""
"","ISI","","html-keyboard-response","37","192055","0.0-1.0-39.0","0","0","91171","","null","","","null","4","NaN","","","","","","","","","","","","","","",""
"","S2","","html-keyboard-response","38","192308","0.0-1.0-40.0","0","0","91171","","null","","","null","4","","NaN","","","","","","","","","","","","","",""
"","response","","html-keyboard-response","39","192547","0.0-1.0-41.0-0.0","0","0","91171","","238","","","75","4","","","1","4","training","adjacent","FG","6","7","M.jpg","Q.jpg","1","1","1","",""
"","feedback","","html-keyboard-response","40","193550","0.0-1.0-42.0-0.0","0","0","91171","","null","","","null","4","","","","","","","","","","","","","","","",""
"","ITI","","html-keyboard-response","41","194553","0.0-1.0-45.0","0","0","91171","","null","","","null","4","","","","","","","","","","","","","","","NaN",""
"","S1","","html-keyboard-response","42","194805","0.0-1.0-47.0","0","0","91171","","null","","","null","5","","","","","","","","","","","","","","","",""
"","ISI","","html-keyboard-response","43","194958","0.0-1.0-48.0","0","0","91171","","null","","","null","5","NaN","","","","","","","","","","","","","","",""
"","S2","","html-keyboard-response","44","195210","0.0-1.0-49.0","0","0","91171","","null","","","null","5","","NaN","","","","","","","","","","","","","",""
"","response","","html-keyboard-response","45","195500","0.0-1.0-50.0-0.0","0","0","91171","","288","","","75","5","","","1","5","training","adjacent","CD","3","4","O.jpg","N.jpg","1","1","1","",""
"","feedback","","html-keyboard-response","46","196503","0.0-1.0-51.0-0.0","0","0","91171","","null","","","null","5","","","","","","","","","","","","","","","",""
"","ITI","","html-keyboard-response","47","197515","0.0-1.0-54.0","0","0","91171","","null","","","null","5","","","","","","","","","","","","","","","NaN",""
"","S1","","html-keyboard-response","48","197768","0.0-1.0-56.0","0","0","91171","","null","","","null","6","","","","","","","","","","","","","","","",""
"","ISI","","html-keyboard-response","49","197921","0.0-1.0-57.0","0","0","91171","","null","","","null","6","NaN","","","","","","","","","","","","","","",""
"","S2","","html-keyboard-response","50","198174","0.0-1.0-58.0","0","0","91171","","null","","","null","6","","NaN","","","","","","","","","","","","","",""
"","response","","html-keyboard-response","51","198265","0.0-1.0-59.0-0.0","0","0","91171","","89","","","68","6","","","1","6","training","adjacent","DC","4","3","N.jpg","O.jpg","0","0","1","",""
"","feedback","","html-keyboard-response","52","199268","0.0-1.0-60.0-0.0","0","0","91171","","null","","","null","6","","","","","","","","","","","","","","","",""
"","ITI","","html-keyboard-response","53","200270","0.0-1.0-63.0","0","0","91171","","null","","","null","6","","","","","","","","","","","","","","","NaN",""
"","S1","","html-keyboard-response","54","200522","0.0-1.0-65.0","0","0","91171","","null","","","null","7","","","","","","","","","","","","","","","",""
"","ISI","","html-keyboard-response","55","200674","0.0-1.0-66.0","0","0","91171","","null","","","null","7","NaN","","","","","","","","","","","","","","",""
"","S2","","html-keyboard-response","56","200928","0.0-1.0-67.0","0","0","91171","","null","","","null","7","","NaN","","","","","","","","","","","","","",""
"","response","","html-keyboard-response","57","201297","0.0-1.0-68.0-0.0","0","0","91171","","368","","","68","7","","","1","7","training","adjacent","EF","5","6","R.jpg","M.jpg","0","1","0","",""
"","feedback","","html-keyboard-response","58","202300","0.0-1.0-69.0-0.0","0","0","91171","","null","","","null","7","","","","","","","","","","","","","","","",""
"","time_out","","html-keyboard-response","59","204302","0.0-1.0-71.0-0.0","0","0","91171","","null","","","null","7","","","","","","","","","","","","","","","",""
"","ITI","","html-keyboard-response","60","205306","0.0-1.0-72.0","0","0","91171","","null","","","null","7","","","","","","","","","","","","","","","NaN",""
"","S1","","html-keyboard-response","61","205558","0.0-1.0-74.0","0","0","91171","","null","","","null","8","","","","","","","","","","","","","","","",""
"","ISI","","html-keyboard-response","62","205709","0.0-1.0-75.0","0","0","91171","","null","","","null","8","NaN","","","","","","","","","","","","","","",""
"","S2","","html-keyboard-response","63","205962","0.0-1.0-76.0","0","0","91171","","null","","","null","8","","NaN","","","","","","","","","","","","","",""
"","response","","html-keyboard-response","64","206313","0.0-1.0-77.0-0.0","0","0","91171","","350","","","75","8","","","1","8","training","adjacent","BA","2","1","L.jpg","P.jpg","1","0","0","",""
"","feedback","","html-keyboard-response","65","207315","0.0-1.0-78.0-0.0","0","0","91171","","null","","","null","8","","","","","","","","","","","","","","","",""
"","time_out","","html-keyboard-response","66","209317","0.0-1.0-80.0-0.0","0","0","91171","","null","","","null","8","","","","","","","","","","","","","","","",""
"","ITI","","html-keyboard-response","67","210320","0.0-1.0-81.0","0","0","91171","","null","","","null","8","","","","","","","","","","","","","","","NaN",""
"","S1","","html-keyboard-response","68","210572","0.0-1.0-83.0","0","0","91171","","null","","","null","9","","","","","","","","","","","","","","","",""
"","ISI","","html-keyboard-response","69","210725","0.0-1.0-84.0","0","0","91171","","null","","","null","9","NaN","","","","","","","","","","","","","","",""
"","S2","","html-keyboard-response","70","210977","0.0-1.0-85.0","0","0","91171","","null","","","null","9","","NaN","","","","","","","","","","","","","",""
"","response","","html-keyboard-response","71","211235","0.0-1.0-86.0-0.0","0","0","91171","","255","","","75","9","","","1","9","training","adjacent","GF","7","6","Q.jpg","M.jpg","1","0","0","",""
"","feedback","","html-keyboard-response","72","212237","0.0-1.0-87.0-0.0","0","0","91171","","null","","","null","9","","","","","","","","","","","","","","","",""
"","time_out","","html-keyboard-response","73","214240","0.0-1.0-89.0-0.0","0","0","91171","","null","","","null","9","","","","","","","","","","","","","","","",""
"","ITI","","html-keyboard-response","74","215242","0.0-1.0-90.0","0","0","91171","","null","","","null","9","","","","","","","","","","","","","","","NaN",""
"","S1","","html-keyboard-response","75","215495","0.0-1.0-92.0","0","0","91171","","null","","","null","10","","","","","","","","","","","","","","","",""
"","ISI","","html-keyboard-response","76","215648","0.0-1.0-93.0","0","0","91171","","null","","","null","10","NaN","","","","","","","","","","","","","","",""
"","S2","","html-keyboard-response","77","215901","0.0-1.0-94.0","0","0","91171","","null","","","null","10","","NaN","","","","","","","","","","","","","",""
"","response","","html-keyboard-response","78","215950","0.0-1.0-95.0-0.0","0","0","91171","","47","","","68","10","","","1","10","training","adjacent","FE","6","5","M.jpg","R.jpg","0","0","1","",""
"","feedback","","html-keyboard-response","79","216953","0.0-1.0-96.0-0.0","0","0","91171","","null","","","null","10","","","","","","","","","","","","","","","",""
"","ITI","","html-keyboard-response","80","217955","0.0-1.0-99.0","0","0","91171","","null","","","null","10","","","","","","","","","","","","","","","NaN",""
"","S1","","html-keyboard-response","81","218208","0.0-1.0-101.0","0","0","91171","","null","","","null","11","","","","","","","","","","","","","","","",""
"","ISI","","html-keyboard-response","82","218361","0.0-1.0-102.0","0","0","91171","","null","","","null","11","NaN","","","","","","","","","","","","","","",""
"","S2","","html-keyboard-response","83","218613","0.0-1.0-103.0","0","0","91171","","null","","","null","11","","NaN","","","","","","","","","","","","","",""
"","response","","html-keyboard-response","84","218686","0.0-1.0-104.0-0.0","0","0","91171","","71","","","68","11","","","1","11","training","adjacent","BC","2","3","L.jpg","O.jpg","0","1","0","",""
"","feedback","","html-keyboard-response","85","219688","0.0-1.0-105.0-0.0","0","0","91171","","null","","","null","11","","","","","","","","","","","","","","","",""
"","time_out","","html-keyboard-response","86","221691","0.0-1.0-107.0-0.0","0","0","91171","","null","","","null","11","","","","","","","","","","","","","","","",""
"","ITI","","html-keyboard-response","87","222695","0.0-1.0-108.0","0","0","91171","","null","","","null","11","","","","","","","","","","","","","","","NaN",""
"","S1","","html-keyboard-response","88","222948","0.0-1.0-110.0","0","0","91171","","null","","","null","12","","","","","","","","","","","","","","","",""
"","ISI","","html-keyboard-response","89","223100","0.0-1.0-111.0","0","0","91171","","null","","","null","12","NaN","","","","","","","","","","","","","","",""
"","S2","","html-keyboard-response","90","223353","0.0-1.0-112.0","0","0","91171","","null","","","null","12","","NaN","","","","","","","","","","","","","",""
"","response","","html-keyboard-response","91","223401","0.0-1.0-113.0-0.0","0","0","91171","","46","","","68","12","","","1","12","training","adjacent","DE","4","5","N.jpg","R.jpg","0","1","0","",""
"","feedback","","html-keyboard-response","92","224405","0.0-1.0-114.0-0.0","0","0","91171","","null","","","null","12","","","","","","","","","","","","","","","",""
"","time_out","","html-keyboard-response","93","226406","0.0-1.0-116.0-0.0","0","0","91171","","null","","","null","12","","","","","","","","","","","","","","","",""
"","ITI","","html-keyboard-response","94","227409","0.0-1.0-117.0","0","0","91171","","null","","","null","12","","","","","","","","","","","","","","","NaN",""
"","S1","","html-keyboard-response","95","227662","0.0-1.0-119.0","0","0","91171","","null","","","null","13","","","","","","","","","","","","","","","",""
"","ISI","","html-keyboard-response","96","227815","0.0-1.0-120.0","0","0","91171","","null","","","null","13","NaN","","","","","","","","","","","","","","",""
"","S2","","html-keyboard-response","97","227844","0.0-1.0-121.0","0","0","91171","","27","","","75","13","","k","1","13","training","adjacent","FE","6","5","M.jpg","R.jpg","1","0","0","",""
"","feedback","","html-keyboard-response","98","228847","0.0-1.0-123.0-0.0","0","0","91171","","null","","","null","13","","","","","","","","","","","","","","","",""
"","time_out","","html-keyboard-response","99","230850","0.0-1.0-125.0-0.0","0","0","91171","","null","","","null","13","","","","","","","","","","","","","","","",""
"","ITI","","html-keyboard-response","100","231852","0.0-1.0-126.0","0","0","91171","","null","","","null","13","","","","","","","","","","","","","","","NaN",""
"","S1","","html-keyboard-response","101","232104","0.0-1.0-128.0","0","0","91171","","null","","","null","14","","","","","","","","","","","","","","","",""
"","ISI","","html-keyboard-response","102","232257","0.0-1.0-129.0","0","0","91171","","49","","","68","14","d","","","","","","","","","","","","","","",""
"","S2","","html-keyboard-response","103","232509","0.0-1.0-130.0","0","0","91171","","null","","","null","14","","NaN","","","","","","","","","","","","","",""
"","response","","html-keyboard-response","104","232994","0.0-1.0-131.0-0.0","0","0","91171","","483","","","68","14","","","1","14","training","adjacent","EF","5","6","R.jpg","M.jpg","0","1","0","",""
"","feedback","","html-keyboard-response","105","233997","0.0-1.0-132.0-0.0","0","0","91171","","null","","","null","14","","","","","","","","","","","","","","","",""
"","time_out","","html-keyboard-response","106","235999","0.0-1.0-134.0-0.0","0","0","91171","","null","","","null","14","","","","","","","","","","","","","","","",""
"","ITI","","html-keyboard-response","107","237001","0.0-1.0-135.0","0","0","91171","","null","","","null","14","","","","","","","","","","","","","","","NaN",""
"","S1","","html-keyboard-response","108","237254","0.0-1.0-137.0","0","0","91171","","null","","","null","15","","","","","","","","","","","","","","","",""
"","ISI","","html-keyboard-response","109","237406","0.0-1.0-138.0","0","0","91171","","null","","","null","15","NaN","","","","","","","","","","","","","","",""
"","S2","","html-keyboard-response","110","237659","0.0-1.0-139.0","0","0","91171","","null","","","null","15","","NaN","","","","","","","","","","","","","",""
"","response","","html-keyboard-response","111","237911","0.0-1.0-140.0-0.0","0","0","91171","","251","","","75","15","","","1","15","training","adjacent","BA","2","1","L.jpg","P.jpg","1","0","0","",""
"","feedback","","html-keyboard-response","112","238913","0.0-1.0-141.0-0.0","0","0","91171","","null","","","null","15","","","","","","","","","","","","","","","",""
"","time_out","","html-keyboard-response","113","240901","0.0-1.0-143.0-0.0","0","0","91171","","null","","","null","15","","","","","","","","","","","","","","","",""
"","ITI","","html-keyboard-response","114","241904","0.0-1.0-144.0","0","0","91171","","null","","","null","15","","","","","","","","","","","","","","","NaN",""
"","S1","","html-keyboard-response","115","242157","0.0-1.0-146.0","0","0","91171","","null","","","null","16","","","","","","","","","","","","","","","",""
"","ISI","","html-keyboard-response","116","242310","0.0-1.0-147.0","0","0","91171","","null","","","null","16","NaN","","","","","","","","","","","","","","",""
"","S2","","html-keyboard-response","117","242563","0.0-1.0-148.0","0","0","91171","","null","","","null","16","","NaN","","","","","","","","","","","","","",""
"","response","","html-keyboard-response","118","242858","0.0-1.0-149.0-0.0","0","0","91171","","293","","","75","16","","","1","16","training","adjacent","CD","3","4","O.jpg","N.jpg","1","1","1","",""
"","feedback","","html-keyboard-response","119","243861","0.0-1.0-150.0-0.0","0","0","91171","","null","","","null","16","","","","","","","","","","","","","","","",""
"","ITI","","html-keyboard-response","120","244864","0.0-1.0-153.0","0","0","91171","","null","","","null","16","","","","","","","","","","","","","","","NaN",""
"","S1","","html-keyboard-response","121","245117","0.0-1.0-155.0","0","0","91171","","null","","","null","17","","","","","","","","","","","","","","","",""
"","ISI","","html-keyboard-response","122","245270","0.0-1.0-156.0","0","0","91171","","null","","","null","17","NaN","","","","","","","","","","","","","","",""
"","S2","","html-keyboard-response","123","245534","0.0-1.0-157.0","0","0","91171","","null","","","null","17","","NaN","","","","","","","","","","","","","",""
"","response","","html-keyboard-response","124","246155","0.0-1.0-158.0-0.0","0","0","91171","","619","","","75","17","","","1","17","training","adjacent","FG","6","7","M.jpg","Q.jpg","1","1","1","",""
"","feedback","","html-keyboard-response","125","247157","0.0-1.0-159.0-0.0","0","0","91171","","null","","","null","17","","","","","","","","","","","","","","","",""
"","ITI","","html-keyboard-response","126","248161","0.0-1.0-162.0","0","0","91171","","null","","","null","17","","","","","","","","","","","","","","","NaN",""
"","S1","","html-keyboard-response","127","248414","0.0-1.0-164.0","0","0","91171","","null","","","null","18","","","","","","","","","","","","","","","",""
"","ISI","","html-keyboard-response","128","248566","0.0-1.0-165.0","0","0","91171","","null","","","null","18","NaN","","","","","","","","","","","","","","",""
"","S2","","html-keyboard-response","129","248819","0.0-1.0-166.0","0","0","91171","","null","","","null","18","","NaN","","","","","","","","","","","","","",""
"","response","","html-keyboard-response","130","249542","0.0-1.0-167.0-0.0","0","0","91171","","721","","","68","18","","","1","18","training","adjacent","AB","1","2","P.jpg","L.jpg","0","1","0","",""
"","feedback","","html-keyboard-response","131","250545","0.0-1.0-168.0-0.0","0","0","91171","","null","","","null","18","","","","","","","","","","","","","","","",""
"","time_out","","html-keyboard-response","132","252547","0.0-1.0-170.0-0.0","0","0","91171","","null","","","null","18","","","","","","","","","","","","","","","",""
"","ITI","","html-keyboard-response","133","253549","0.0-1.0-171.0","0","0","91171","","null","","","null","18","","","","","","","","","","","","","","","NaN",""
"","S1","","html-keyboard-response","134","253810","0.0-1.0-173.0","0","0","91171","","null","","","null","19","","","","","","","","","","","","","","","",""
"","ISI","","html-keyboard-response","135","253962","0.0-1.0-174.0","0","0","91171","","null","","","null","19","NaN","","","","","","","","","","","","","","",""
"","S2","","html-keyboard-response","136","254215","0.0-1.0-175.0","0","0","91171","","null","","","null","19","","NaN","","","","","","","","","","","","","",""
"","response","","html-keyboard-response","137","254576","0.0-1.0-176.0-0.0","0","0","91171","","361","","","75","19","","","1","19","training","adjacent","CB","3","2","O.jpg","L.jpg","1","0","0","",""
"","feedback","","html-keyboard-response","138","255580","0.0-1.0-177.0-0.0","0","0","91171","","null","","","null","19","","","","","","","","","","","","","","","",""
"","time_out","","html-keyboard-response","139","257583","0.0-1.0-179.0-0.0","0","0","91171","","null","","","null","19","","","","","","","","","","","","","","","",""
"","ITI","","html-keyboard-response","140","258586","0.0-1.0-180.0","0","0","91171","","null","","","null","19","","","","","","","","","","","","","","","NaN",""
"","S1","","html-keyboard-response","141","258838","0.0-1.0-182.0","0","0","91171","","null","","","null","20","","","","","","","","","","","","","","","",""
"","ISI","","html-keyboard-response","142","258990","0.0-1.0-183.0","0","0","91171","","null","","","null","20","NaN","","","","","","","","","","","","","","",""
"","S2","","html-keyboard-response","143","259243","0.0-1.0-184.0","0","0","91171","","null","","","null","20","","NaN","","","","","","","","","","","","","",""
"","response","","html-keyboard-response","144","259426","0.0-1.0-185.0-0.0","0","0","91171","","182","","","68","20","","","1","20","training","adjacent","FG","6","7","M.jpg","Q.jpg","0","1","0","",""
"","feedback","","html-keyboard-response","145","260428","0.0-1.0-186.0-0.0","0","0","91171","","null","","","null","20","","","","","","","","","","","","","","","",""
"","time_out","","html-keyboard-response","146","262431","0.0-1.0-188.0-0.0","0","0","91171","","null","","","null","20","","","","","","","","","","","","","","","",""
"","ITI","","html-keyboard-response","147","263434","0.0-1.0-189.0","0","0","91171","","null","","","null","20","","","","","","","","","","","","","","","NaN",""
"","S1","","html-keyboard-response","148","263686","0.0-1.0-191.0","0","0","91171","","null","","","null","21","","","","","","","","","","","","","","","",""
"","ISI","","html-keyboard-response","149","263838","0.0-1.0-192.0","0","0","91171","","null","","","null","21","NaN","","","","","","","","","","","","","","",""
"","S2","","html-keyboard-response","150","264106","0.0-1.0-193.0","0","0","91171","","null","","","null","21","","NaN","","","","","","","","","","","","","",""
"","response","","html-keyboard-response","151","264408","0.0-1.0-194.0-0.0","0","0","91171","","300","","","68","21","","","1","21","training","adjacent","AB","1","2","P.jpg","L.jpg","0","1","0","",""
"","feedback","","html-keyboard-response","152","265411","0.0-1.0-195.0-0.0","0","0","91171","","null","","","null","21","","","","","","","","","","","","","","","",""
"","time_out","","html-keyboard-response","153","267413","0.0-1.0-197.0-0.0","0","0","91171","","null","","","null","21","","","","","","","","","","","","","","","",""
"","ITI","","html-keyboard-response","154","268416","0.0-1.0-198.0","0","0","91171","","504","","","76","21","","","","","","","","","","","","","","","l",""
"","S1","","html-keyboard-response","155","268669","0.0-1.0-200.0","0","0","91171","","null","","","null","22","","","","","","","","","","","","","","","",""
"","ISI","","html-keyboard-response","156","268821","0.0-1.0-201.0","0","0","91171","","null","","","null","22","NaN","","","","","","","","","","","","","","",""
"","S2","","html-keyboard-response","157","269074","0.0-1.0-202.0","0","0","91171","","null","","","null","22","","NaN","","","","","","","","","","","","","",""
"","response","","html-keyboard-response","158","270827","0.0-1.0-203.0-0.0","0","0","91171","","null","","","null","22","","","1","22","training","adjacent","CD","3","4","O.jpg","N.jpg","NaN","1","0","",""
"","too_slow_prompt","","html-keyboard-response","159","271836","0.0-1.0-205.0-0.0","1","0","91171","","null","","","null","","","","","","","","","","","","","","","","",""
"","time_out","","html-keyboard-response","160","273838","0.0-1.0-206.0-0.0","0","0","91171","","null","","","null","22","","","","","","","","","","","","","","","",""
"","ITI","","html-keyboard-response","161","274841","0.0-1.0-207.0","0","0","91171","","null","","","null","22","","","","","","","","","","","","","","","NaN",""
"","S1","","html-keyboard-response","162","275094","0.0-1.0-209.0","0","0","91171","","null","","","null","23","","","","","","","","","","","","","","","",""
"","ISI","","html-keyboard-response","163","275246","0.0-1.0-210.0","0","0","91171","","null","","","null","23","NaN","","","","","","","","","","","","","","",""
"","S2","","html-keyboard-response","164","275499","0.0-1.0-211.0","0","0","91171","","null","","","null","23","","NaN","","","","","","","","","","","","","",""
"","response","","html-keyboard-response","165","275796","0.0-1.0-212.0-0.0","0","0","91171","","296","","","68","23","","","1","23","training","adjacent","FG","6","7","M.jpg","Q.jpg","0","1","0","",""
"","feedback","","html-keyboard-response","166","276799","0.0-1.0-213.0-0.0","0","0","91171","","null","","","null","23","","","","","","","","","","","","","","","",""
"","time_out","","html-keyboard-response","167","278802","0.0-1.0-215.0-0.0","0","0","91171","","null","","","null","23","","","","","","","","","","","","","","","",""
"","ITI","","html-keyboard-response","168","279805","0.0-1.0-216.0","0","0","91171","","null","","","null","23","","","","","","","","","","","","","","","NaN",""
"","S1","","html-keyboard-response","169","280058","0.0-1.0-218.0","0","0","91171","","null","","","null","24","","","","","","","","","","","","","","","",""
"","ISI","","html-keyboard-response","170","280211","0.0-1.0-219.0","0","0","91171","","null","","","null","24","NaN","","","","","","","","","","","","","","",""
"","S2","","html-keyboard-response","171","280463","0.0-1.0-220.0","0","0","91171","","null","","","null","24","","NaN","","","","","","","","","","","","","",""
"","response","","html-keyboard-response","172","280772","0.0-1.0-221.0-0.0","0","0","91171","","307","","","75","24","","","1","24","training","adjacent","CB","3","2","O.jpg","L.jpg","1","0","0","",""
"","feedback","","html-keyboard-response","173","281775","0.0-1.0-222.0-0.0","0","0","91171","","null","","","null","24","","","","","","","","","","","","","","","",""
"","time_out","","html-keyboard-response","174","283776","0.0-1.0-224.0-0.0","0","0","91171","","null","","","null","24","","","","","","","","","","","","","","","",""
"","ITI","","html-keyboard-response","175","284779","0.0-1.0-225.0","0","0","91171","","null","","","null","24","","","","","","","","","","","","","","","NaN",""
"","S1","","html-keyboard-response","176","285032","0.0-1.0-227.0","0","0","91171","","null","","","null","25","","","","","","","","","","","","","","","",""
"","ISI","","html-keyboard-response","177","285184","0.0-1.0-228.0","0","0","91171","","null","","","null","25","NaN","","","","","","","","","","","","","","",""
"","S2","","html-keyboard-response","178","285437","0.0-1.0-229.0","0","0","91171","","null","","","null","25","","NaN","","","","","","","","","","","","","",""
"","response","","html-keyboard-response","179","285936","0.0-1.0-230.0-0.0","0","0","91171","","498","","","68","25","","","1","25","training","adjacent","ED","5","4","R.jpg","N.jpg","0","0","1","",""
"","feedback","","html-keyboard-response","180","286940","0.0-1.0-231.0-0.0","0","0","91171","","null","","","null","25","","","","","","","","","","","","","","","",""
"","ITI","","html-keyboard-response","181","287944","0.0-1.0-234.0","0","0","91171","","null","","","null","25","","","","","","","","","","","","","","","NaN",""
"","S1","","html-keyboard-response","182","288196","0.0-1.0-236.0","0","0","91171","","null","","","null","26","","","","","","","","","","","","","","","",""
"","ISI","","html-keyboard-response","183","288349","0.0-1.0-237.0","0","0","91171","","null","","","null","26","NaN","","","","","","","","","","","","","","",""
"","S2","","html-keyboard-response","184","288603","0.0-1.0-238.0","0","0","91171","","null","","","null","26","","NaN","","","","","","","","","","","","","",""
"","response","","html-keyboard-response","185","289184","0.0-1.0-239.0-0.0","0","0","91171","","580","","","75","26","","","1","26","training","adjacent","DC","4","3","N.jpg","O.jpg","1","0","0","",""
"","feedback","","html-keyboard-response","186","290187","0.0-1.0-240.0-0.0","0","0","91171","","null","","","null","26","","","","","","","","","","","","","","","",""
"","time_out","","html-keyboard-response","187","292190","0.0-1.0-242.0-0.0","0","0","91171","","null","","","null","26","","","","","","","","","","","","","","","",""
"","ITI","","html-keyboard-response","188","293192","0.0-1.0-243.0","0","0","91171","","null","","","null","26","","","","","","","","","","","","","","","NaN",""
"","S1","","html-keyboard-response","189","293444","0.0-1.0-245.0","0","0","91171","","null","","","null","27","","","","","","","","","","","","","","","",""
"","ISI","","html-keyboard-response","190","293597","0.0-1.0-246.0","0","0","91171","","null","","","null","27","NaN","","","","","","","","","","","","","","",""
"","S2","","html-keyboard-response","191","293849","0.0-1.0-247.0","0","0","91171","","null","","","null","27","","NaN","","","","","","","","","","","","","",""
"","response","","html-keyboard-response","192","294207","0.0-1.0-248.0-0.0","0","0","91171","","357","","","68","27","","","1","27","training","adjacent","CD","3","4","O.jpg","N.jpg","0","1","0","",""
"","feedback","","html-keyboard-response","193","295210","0.0-1.0-249.0-0.0","0","0","91171","","null","","","null","27","","","","","","","","","","","","","","","",""
"","time_out","","html-keyboard-response","194","297213","0.0-1.0-251.0-0.0","0","0","91171","","null","","","null","27","","","","","","","","","","","","","","","",""
"","ITI","","html-keyboard-response","195","298216","0.0-1.0-252.0","0","0","91171","","null","","","null","27","","","","","","","","","","","","","","","NaN",""
"","S1","","html-keyboard-response","196","298469","0.0-1.0-254.0","0","0","91171","","null","","","null","28","","","","","","","","","","","","","","","",""
"","ISI","","html-keyboard-response","197","298622","0.0-1.0-255.0","0","0","91171","","null","","","null","28","NaN","","","","","","","","","","","","","","",""
"","S2","","html-keyboard-response","198","298875","0.0-1.0-256.0","0","0","91171","","null","","","null","28","","NaN","","","","","","","","","","","","","",""
"","response","","html-keyboard-response","199","299378","0.0-1.0-257.0-0.0","0","0","91171","","502","","","75","28","","","1","28","training","adjacent","ED","5","4","R.jpg","N.jpg","1","0","0","",""
"","feedback","","html-keyboard-response","200","300381","0.0-1.0-258.0-0.0","0","0","91171","","null","","","null","28","","","","","","","","","","","","","","","",""
"","time_out","","html-keyboard-response","201","302384","0.0-1.0-260.0-0.0","0","0","91171","","null","","","null","28","","","","","","","","","","","","","","","",""
"","ITI","","html-keyboard-response","202","303386","0.0-1.0-261.0","0","0","91171","","null","","","null","28","","","","","","","","","","","","","","","NaN",""
"","S1","","html-keyboard-response","203","303639","0.0-1.0-263.0","0","0","91171","","null","","","null","29","","","","","","","","","","","","","","","",""
"","ISI","","html-keyboard-response","204","303792","0.0-1.0-264.0","0","0","91171","","null","","","null","29","NaN","","","","","","","","","","","","","","",""
"","S2","","html-keyboard-response","205","304044","0.0-1.0-265.0","0","0","91171","","null","","","null","29","","NaN","","","","","","","","","","","","","",""
"","response","","html-keyboard-response","206","304369","0.0-1.0-266.0-0.0","0","0","91171","","323","","","68","29","","","1","29","training","adjacent","ED","5","4","R.jpg","N.jpg","0","0","1","",""
"","feedback","","html-keyboard-response","207","305372","0.0-1.0-267.0-0.0","0","0","91171","","null","","","null","29","","","","","","","","","","","","","","","",""
"","ITI","","html-keyboard-response","208","306376","0.0-1.0-270.0","0","0","91171","","null","","","null","29","","","","","","","","","","","","","","","NaN",""
"","S1","","html-keyboard-response","209","306629","0.0-1.0-272.0","0","0","91171","","null","","","null","30","","","","","","","","","","","","","","","",""
"","ISI","","html-keyboard-response","210","306782","0.0-1.0-273.0","0","0","91171","","null","","","null","30","NaN","","","","","","","","","","","","","","",""
"","S2","","html-keyboard-response","211","307035","0.0-1.0-274.0","0","0","91171","","null","","","null","30","","NaN","","","","","","","","","","","","","",""
"","response","","html-keyboard-response","212","307490","0.0-1.0-275.0-0.0","0","0","91171","","453","","","75","30","","","1","30","training","adjacent","DE","4","5","N.jpg","R.jpg","1","1","1","",""
"","feedback","","html-keyboard-response","213","308493","0.0-1.0-276.0-0.0","0","0","91171","","null","","","null","30","","","","","","","","","","","","","","","",""
"","ITI","","html-keyboard-response","214","309496","0.0-1.0-279.0","0","0","91171","","null","","","null","30","","","","","","","","","","","","","","","NaN",""
"","S1","","html-keyboard-response","215","309748","0.0-1.0-281.0","0","0","91171","","null","","","null","31","","","","","","","","","","","","","","","",""
"","ISI","","html-keyboard-response","216","309902","0.0-1.0-282.0","0","0","91171","","null","","","null","31","NaN","","","","","","","","","","","","","","",""
"","S2","","html-keyboard-response","217","310155","0.0-1.0-283.0","0","0","91171","","null","","","null","31","","NaN","","","","","","","","","","","","","",""
"","response","","html-keyboard-response","218","310822","0.0-1.0-284.0-0.0","0","0","91171","","666","","","68","31","","","1","31","training","adjacent","FE","6","5","M.jpg","R.jpg","0","0","1","",""
"","feedback","","html-keyboard-response","219","311825","0.0-1.0-285.0-0.0","0","0","91171","","null","","","null","31","","","","","","","","","","","","","","","",""
"","ITI","","html-keyboard-response","220","312828","0.0-1.0-288.0","0","0","91171","","null","","","null","31","","","","","","","","","","","","","","","NaN",""
"","S1","","html-keyboard-response","221","313080","0.0-1.0-290.0","0","0","91171","","null","","","null","32","","","","","","","","","","","","","","","",""
"","ISI","","html-keyboard-response","222","313233","0.0-1.0-291.0","0","0","91171","","null","","","null","32","NaN","","","","","","","","","","","","","","",""
"","S2","","html-keyboard-response","223","313486","0.0-1.0-292.0","0","0","91171","","null","","","null","32","","NaN","","","","","","","","","","","","","",""
"","response","","html-keyboard-response","224","314145","0.0-1.0-293.0-0.0","0","0","91171","","656","","","68","32","","","1","32","training","adjacent","BC","2","3","L.jpg","O.jpg","0","1","0","",""
"","feedback","","html-keyboard-response","225","315148","0.0-1.0-294.0-0.0","0","0","91171","","null","","","null","32","","","","","","","","","","","","","","","",""
"","time_out","","html-keyboard-response","226","317150","0.0-1.0-296.0-0.0","0","0","91171","","null","","","null","32","","","","","","","","","","","","","","","",""
"","ITI","","html-keyboard-response","227","318152","0.0-1.0-297.0","0","0","91171","","null","","","null","32","","","","","","","","","","","","","","","NaN",""
"","S1","","html-keyboard-response","228","318406","0.0-1.0-299.0","0","0","91171","","null","","","null","33","","","","","","","","","","","","","","","",""
"","ISI","","html-keyboard-response","229","318558","0.0-1.0-300.0","0","0","91171","","null","","","null","33","NaN","","","","","","","","","","","","","","",""
"","S2","","html-keyboard-response","230","318811","0.0-1.0-301.0","0","0","91171","","null","","","null","33","","NaN","","","","","","","","","","","","","",""
"","response","","html-keyboard-response","231","319254","0.0-1.0-302.0-0.0","0","0","91171","","442","","","75","33","","","1","33","training","adjacent","DE","4","5","N.jpg","R.jpg","1","1","1","",""
"","feedback","","html-keyboard-response","232","320258","0.0-1.0-303.0-0.0","0","0","91171","","null","","","null","33","","","","","","","","","","","","","","","",""
"","ITI","","html-keyboard-response","233","321259","0.0-1.0-306.0","0","0","91171","","null","","","null","33","","","","","","","","","","","","","","","NaN",""
"","S1","","html-keyboard-response","234","321512","0.0-1.0-308.0","0","0","91171","","null","","","null","34","","","","","","","","","","","","","","","",""
"","ISI","","html-keyboard-response","235","321665","0.0-1.0-309.0","0","0","91171","","null","","","null","34","NaN","","","","","","","","","","","","","","",""
"","S2","","html-keyboard-response","236","321918","0.0-1.0-310.0","0","0","91171","","null","","","null","34","","NaN","","","","","","","","","","","","","",""
"","response","","html-keyboard-response","237","322199","0.0-1.0-311.0-0.0","0","0","91171","","280","","","75","34","","","1","34","training","adjacent","EF","5","6","R.jpg","M.jpg","1","1","1","",""
"","feedback","","html-keyboard-response","238","323215","0.0-1.0-312.0-0.0","0","0","91171","","null","","","null","34","","","","","","","","","","","","","","","",""
"","ITI","","html-keyboard-response","239","324218","0.0-1.0-315.0","0","0","91171","","null","","","null","34","","","","","","","","","","","","","","","NaN",""
"","S1","","html-keyboard-response","240","324470","0.0-1.0-317.0","0","0","91171","","null","","","null","35","","","","","","","","","","","","","","","",""
"","ISI","","html-keyboard-response","241","324623","0.0-1.0-318.0","0","0","91171","","null","","","null","35","NaN","","","","","","","","","","","","","","",""
"","S2","","html-keyboard-response","242","324874","0.0-1.0-319.0","0","0","91171","","null","","","null","35","","NaN","","","","","","","","","","","","","",""
"","response","","html-keyboard-response","243","325241","0.0-1.0-320.0-0.0","0","0","91171","","365","","","75","35","","","1","35","training","adjacent","DE","4","5","N.jpg","R.jpg","1","1","1","",""
"","feedback","","html-keyboard-response","244","326244","0.0-1.0-321.0-0.0","0","0","91171","","null","","","null","35","","","","","","","","","","","","","","","",""
"","ITI","","html-keyboard-response","245","327247","0.0-1.0-324.0","0","0","91171","","null","","","null","35","","","","","","","","","","","","","","","NaN",""
"","S1","","html-keyboard-response","246","327499","0.0-1.0-326.0","0","0","91171","","null","","","null","36","","","","","","","","","","","","","","","",""
"","ISI","","html-keyboard-response","247","327652","0.0-1.0-327.0","0","0","91171","","null","","","null","36","NaN","","","","","","","","","","","","","","",""
"","S2","","html-keyboard-response","248","327904","0.0-1.0-328.0","0","0","91171","","null","","","null","36","","NaN","","","","","","","","","","","","","",""
"","response","","html-keyboard-response","249","328318","0.0-1.0-329.0-0.0","0","0","91171","","412","","","68","36","","","1","36","training","adjacent","BA","2","1","L.jpg","P.jpg","0","0","1","",""
"","feedback","","html-keyboard-response","250","329321","0.0-1.0-330.0-0.0","0","0","91171","","null","","","null","36","","","","","","","","","","","","","","","",""
"","ITI","","html-keyboard-response","251","330323","0.0-1.0-333.0","0","0","91171","","null","","","null","36","","","","","","","","","","","","","","","NaN",""
"","S1","","html-keyboard-response","252","330575","0.0-1.0-335.0","0","0","91171","","null","","","null","37","","","","","","","","","","","","","","","",""
"","ISI","","html-keyboard-response","253","330728","0.0-1.0-336.0","0","0","91171","","null","","","null","37","NaN","","","","","","","","","","","","","","",""
"","S2","","html-keyboard-response","254","330980","0.0-1.0-337.0","0","0","91171","","null","","","null","37","","NaN","","","","","","","","","","","","","",""
"","response","","html-keyboard-response","255","331437","0.0-1.0-338.0-0.0","0","0","91171","","455","","","68","37","","","1","37","training","adjacent","GF","7","6","Q.jpg","M.jpg","0","0","1","",""
"","feedback","","html-keyboard-response","256","332439","0.0-1.0-339.0-0.0","0","0","91171","","null","","","null","37","","","","","","","","","","","","","","","",""
"","ITI","","html-keyboard-response","257","333443","0.0-1.0-342.0","0","0","91171","","null","","","null","37","","","","","","","","","","","","","","","NaN",""
"","S1","","html-keyboard-response","258","333696","0.0-1.0-344.0","0","0","91171","","null","","","null","38","","","","","","","","","","","","","","","",""
"","ISI","","html-keyboard-response","259","333851","0.0-1.0-345.0","0","0","91171","","null","","","null","38","NaN","","","","","","","","","","","","","","",""
"","S2","","html-keyboard-response","260","334104","0.0-1.0-346.0","0","0","91171","","null","","","null","38","","NaN","","","","","","","","","","","","","",""
"","response","","html-keyboard-response","261","334540","0.0-1.0-347.0-0.0","0","0","91171","","433","","","75","38","","","1","38","training","adjacent","DC","4","3","N.jpg","O.jpg","1","0","0","",""
"","feedback","","html-keyboard-response","262","335542","0.0-1.0-348.0-0.0","0","0","91171","","null","","","null","38","","","","","","","","","","","","","","","",""
"","time_out","","html-keyboard-response","263","337546","0.0-1.0-350.0-0.0","0","0","91171","","null","","","null","38","","","","","","","","","","","","","","","",""
"","ITI","","html-keyboard-response","264","338548","0.0-1.0-351.0","0","0","91171","","null","","","null","38","","","","","","","","","","","","","","","NaN",""
"","S1","","html-keyboard-response","265","338801","0.0-1.0-353.0","0","0","91171","","null","","","null","39","","","","","","","","","","","","","","","",""
"","ISI","","html-keyboard-response","266","338954","0.0-1.0-354.0","0","0","91171","","null","","","null","39","NaN","","","","","","","","","","","","","","",""
"","S2","","html-keyboard-response","267","339207","0.0-1.0-355.0","0","0","91171","","null","","","null","39","","NaN","","","","","","","","","","","","","",""
"","response","","html-keyboard-response","268","339417","0.0-1.0-356.0-0.0","0","0","91171","","209","","","68","39","","","1","39","training","adjacent","BC","2","3","L.jpg","O.jpg","0","1","0","",""
"","feedback","","html-keyboard-response","269","340420","0.0-1.0-357.0-0.0","0","0","91171","","null","","","null","39","","","","","","","","","","","","","","","",""
"","time_out","","html-keyboard-response","270","342423","0.0-1.0-359.0-0.0","0","0","91171","","null","","","null","39","","","","","","","","","","","","","","","",""
"","ITI","","html-keyboard-response","271","343426","0.0-1.0-360.0","0","0","91171","","null","","","null","39","","","","","","","","","","","","","","","NaN",""
"","S1","","html-keyboard-response","272","343679","0.0-1.0-362.0","0","0","91171","","null","","","null","40","","","","","","","","","","","","","","","",""
"","ISI","","html-keyboard-response","273","343832","0.0-1.0-363.0","0","0","91171","","108","","","75","40","k","","","","","","","","","","","","","","",""
"","S2","","html-keyboard-response","274","344084","0.0-1.0-364.0","0","0","91171","","null","","","null","40","","NaN","","","","","","","","","","","","","",""
"","response","","html-keyboard-response","275","344438","0.0-1.0-365.0-0.0","0","0","91171","","353","","","75","40","","","1","40","training","adjacent","BC","2","3","L.jpg","O.jpg","1","1","1","",""
"","feedback","","html-keyboard-response","276","345441","0.0-1.0-366.0-0.0","0","0","91171","","null","","","null","40","","","","","","","","","","","","","","","",""
"","ITI","","html-keyboard-response","277","346444","0.0-1.0-369.0","0","0","91171","","null","","","null","40","","","","","","","","","","","","","","","NaN",""
"","S1","","html-keyboard-response","278","346697","0.0-1.0-371.0","0","0","91171","","null","","","null","41","","","","","","","","","","","","","","","",""
"","ISI","","html-keyboard-response","279","346849","0.0-1.0-372.0","0","0","91171","","null","","","null","41","NaN","","","","","","","","","","","","","","",""
"","S2","","html-keyboard-response","280","347101","0.0-1.0-373.0","0","0","91171","","null","","","null","41","","NaN","","","","","","","","","","","","","",""
"","response","","html-keyboard-response","281","347548","0.0-1.0-374.0-0.0","0","0","91171","","446","","","75","41","","","1","41","training","adjacent","CB","3","2","O.jpg","L.jpg","1","0","0","",""
"","feedback","","html-keyboard-response","282","348551","0.0-1.0-375.0-0.0","0","0","91171","","null","","","null","41","","","","","","","","","","","","","","","",""
"","time_out","","html-keyboard-response","283","350553","0.0-1.0-377.0-0.0","0","0","91171","","null","","","null","41","","","","","","","","","","","","","","","",""
"","ITI","","html-keyboard-response","284","351554","0.0-1.0-378.0","0","0","91171","","null","","","null","41","","","","","","","","","","","","","","","NaN",""
"","S1","","html-keyboard-response","285","351814","0.0-1.0-380.0","0","0","91171","","null","","","null","42","","","","","","","","","","","","","","","",""
"","ISI","","html-keyboard-response","286","351971","0.0-1.0-381.0","0","0","91171","","null","","","null","42","NaN","","","","","","","","","","","","","","",""
"","S2","","html-keyboard-response","287","352223","0.0-1.0-382.0","0","0","91171","","null","","","null","42","","NaN","","","","","","","","","","","","","",""
"","response","","html-keyboard-response","288","352541","0.0-1.0-383.0-0.0","0","0","91171","","316","","","68","42","","","1","42","training","adjacent","AB","1","2","P.jpg","L.jpg","0","1","0","",""
"","feedback","","html-keyboard-response","289","353543","0.0-1.0-384.0-0.0","0","0","91171","","null","","","null","42","","","","","","","","","","","","","","","",""
"","time_out","","html-keyboard-response","290","355546","0.0-1.0-386.0-0.0","0","0","91171","","null","","","null","42","","","","","","","","","","","","","","","",""
"","ITI","","html-keyboard-response","291","356549","0.0-1.0-387.0","0","0","91171","","null","","","null","42","","","","","","","","","","","","","","","NaN",""
"","S1","","html-keyboard-response","292","356802","0.0-1.0-389.0","0","0","91171","","null","","","null","43","","","","","","","","","","","","","","","",""
"","ISI","","html-keyboard-response","293","356955","0.0-1.0-390.0","0","0","91171","","null","","","null","43","NaN","","","","","","","","","","","","","","",""
"","S2","","html-keyboard-response","294","357208","0.0-1.0-391.0","0","0","91171","","null","","","null","43","","NaN","","","","","","","","","","","","","",""
"","response","","html-keyboard-response","295","357481","0.0-1.0-392.0-0.0","0","0","91171","","272","","","75","43","","","1","43","training","adjacent","DC","4","3","N.jpg","O.jpg","1","0","0","",""
"","feedback","","html-keyboard-response","296","358484","0.0-1.0-393.0-0.0","0","0","91171","","null","","","null","43","","","","","","","","","","","","","","","",""
"","time_out","","html-keyboard-response","297","360472","0.0-1.0-395.0-0.0","0","0","91171","","null","","","null","43","","","","","","","","","","","","","","","",""
"","ITI","","html-keyboard-response","298","361475","0.0-1.0-396.0","0","0","91171","","null","","","null","43","","","","","","","","","","","","","","","NaN",""
"","S1","","html-keyboard-response","299","361728","0.0-1.0-398.0","0","0","91171","","null","","","null","44","","","","","","","","","","","","","","","",""
"","ISI","","html-keyboard-response","300","361881","0.0-1.0-399.0","0","0","91171","","null","","","null","44","NaN","","","","","","","","","","","","","","",""
"","S2","","html-keyboard-response","301","362133","0.0-1.0-400.0","0","0","91171","","null","","","null","44","","NaN","","","","","","","","","","","","","",""
"","response","","html-keyboard-response","302","362560","0.0-1.0-401.0-0.0","0","0","91171","","425","","","75","44","","","1","44","training","adjacent","GF","7","6","Q.jpg","M.jpg","1","0","0","",""
"","feedback","","html-keyboard-response","303","363563","0.0-1.0-402.0-0.0","0","0","91171","","null","","","null","44","","","","","","","","","","","","","","","",""
"","time_out","","html-keyboard-response","304","365564","0.0-1.0-404.0-0.0","0","0","91171","","null","","","null","44","","","","","","","","","","","","","","","",""
"","ITI","","html-keyboard-response","305","366566","0.0-1.0-405.0","0","0","91171","","null","","","null","44","","","","","","","","","","","","","","","NaN",""
"","S1","","html-keyboard-response","306","366818","0.0-1.0-407.0","0","0","91171","","null","","","null","45","","","","","","","","","","","","","","","",""
"","ISI","","html-keyboard-response","307","366971","0.0-1.0-408.0","0","0","91171","","null","","","null","45","NaN","","","","","","","","","","","","","","",""
"","S2","","html-keyboard-response","308","367001","0.0-1.0-409.0","0","0","91171","","27","","","68","45","","d","1","45","training","adjacent","CB","3","2","O.jpg","L.jpg","0","0","1","",""
"","feedback","","html-keyboard-response","309","368004","0.0-1.0-411.0-0.0","0","0","91171","","null","","","null","45","","","","","","","","","","","","","","","",""
"","ITI","","html-keyboard-response","310","369007","0.0-1.0-414.0","0","0","91171","","null","","","null","45","","","","","","","","","","","","","","","NaN",""
"","S1","","html-keyboard-response","311","369259","0.0-1.0-416.0","0","0","91171","","null","","","null","46","","","","","","","","","","","","","","","",""
"","ISI","","html-keyboard-response","312","369412","0.0-1.0-417.0","0","0","91171","","null","","","null","46","NaN","","","","","","","","","","","","","","",""
"","S2","","html-keyboard-response","313","369664","0.0-1.0-418.0","0","0","91171","","null","","","null","46","","NaN","","","","","","","","","","","","","",""
"","response","","html-keyboard-response","314","370008","0.0-1.0-419.0-0.0","0","0","91171","","343","","","68","46","","","1","46","training","adjacent","AB","1","2","P.jpg","L.jpg","0","1","0","",""
"","feedback","","html-keyboard-response","315","371011","0.0-1.0-420.0-0.0","0","0","91171","","null","","","null","46","","","","","","","","","","","","","","","",""
"","time_out","","html-keyboard-response","316","373013","0.0-1.0-422.0-0.0","0","0","91171","","null","","","null","46","","","","","","","","","","","","","","","",""
"","ITI","","html-keyboard-response","317","374016","0.0-1.0-423.0","0","0","91171","","null","","","null","46","","","","","","","","","","","","","","","NaN",""
"","S1","","html-keyboard-response","318","374269","0.0-1.0-425.0","0","0","91171","","null","","","null","47","","","","","","","","","","","","","","","",""
"","ISI","","html-keyboard-response","319","374422","0.0-1.0-426.0","0","0","91171","","null","","","null","47","NaN","","","","","","","","","","","","","","",""
"","S2","","html-keyboard-response","320","374675","0.0-1.0-427.0","0","0","91171","","null","","","null","47","","NaN","","","","","","","","","","","","","",""
"","response","","html-keyboard-response","321","375119","0.0-1.0-428.0-0.0","0","0","91171","","442","","","75","47","","","1","47","training","adjacent","GF","7","6","Q.jpg","M.jpg","1","0","0","",""
"","feedback","","html-keyboard-response","322","376121","0.0-1.0-429.0-0.0","0","0","91171","","null","","","null","47","","","","","","","","","","","","","","","",""
"","time_out","","html-keyboard-response","323","378123","0.0-1.0-431.0-0.0","0","0","91171","","null","","","null","47","","","","","","","","","","","","","","","",""
"","ITI","","html-keyboard-response","324","379125","0.0-1.0-432.0","0","0","91171","","null","","","null","47","","","","","","","","","","","","","","","NaN",""
"","block_over","","html-keyboard-response","325","383348","0.0-1.0-433.0-0.0","0","0","91171","","4221","","","32","47","","","","","","","","","","","","","","","",""
"","S1","","html-keyboard-response","326","383600","0.0-1.0-434.0","0","0","91171","","null","","","null","48","","","","","","","","","","","","","","","",""
"","ISI","","html-keyboard-response","327","383753","0.0-1.0-435.0","0","0","91171","","null","","","null","48","NaN","","","","","","","","","","","","","","",""
"","S2","","html-keyboard-response","328","384005","0.0-1.0-436.0","0","0","91171","","null","","","null","48","","NaN","","","","","","","","","","","","","",""
"","response","","html-keyboard-response","329","384316","0.0-1.0-437.0-0.0","0","0","91171","","309","","","68","48","","","2","48","training","adjacent","EF","5","6","R.jpg","M.jpg","0","1","0","",""
"","feedback","","html-keyboard-response","330","385320","0.0-1.0-438.0-0.0","0","0","91171","","null","","","null","48","","","","","","","","","","","","","","","",""
"","time_out","","html-keyboard-response","331","387323","0.0-1.0-440.0-0.0","0","0","91171","","null","","","null","48","","","","","","","","","","","","","","","",""
"","ITI","","html-keyboard-response","332","388325","0.0-1.0-441.0","0","0","91171","","null","","","null","48","","","","","","","","","","","","","","","NaN",""
"","S1","","html-keyboard-response","333","388577","0.0-1.0-443.0","0","0","91171","","null","","","null","49","","","","","","","","","","","","","","","",""
"","ISI","","html-keyboard-response","334","388730","0.0-1.0-444.0","0","0","91171","","null","","","null","49","NaN","","","","","","","","","","","","","","",""
"","S2","","html-keyboard-response","335","388982","0.0-1.0-445.0","0","0","91171","","null","","","null","49","","NaN","","","","","","","","","","","","","",""
"","response","","html-keyboard-response","336","389151","0.0-1.0-446.0-0.0","0","0","91171","","167","","","75","49","","","2","49","training","adjacent","BC","2","3","L.jpg","O.jpg","1","1","1","",""
"","feedback","","html-keyboard-response","337","390153","0.0-1.0-447.0-0.0","0","0","91171","","null","","","null","49","","","","","","","","","","","","","","","",""
"","ITI","","html-keyboard-response","338","391157","0.0-1.0-450.0","0","0","91171","","null","","","null","49","","","","","","","","","","","","","","","NaN",""
"","S1","","html-keyboard-response","339","391410","0.0-1.0-452.0","0","0","91171","","null","","","null","50","","","","","","","","","","","","","","","",""
"","ISI","","html-keyboard-response","340","391571","0.0-1.0-453.0","0","0","91171","","null","","","null","50","NaN","","","","","","","","","","","","","","",""
"","S2","","html-keyboard-response","341","391823","0.0-1.0-454.0","0","0","91171","","null","","","null","50","","NaN","","","","","","","","","","","","","",""
"","response","","html-keyboard-response","342","392616","0.0-1.0-455.0-0.0","0","0","91171","","792","","","75","50","","","2","50","training","adjacent","GF","7","6","Q.jpg","M.jpg","1","0","0","",""
"","feedback","","html-keyboard-response","343","393618","0.0-1.0-456.0-0.0","0","0","91171","","null","","","null","50","","","","","","","","","","","","","","","",""
"","time_out","","html-keyboard-response","344","395621","0.0-1.0-458.0-0.0","0","0","91171","","null","","","null","50","","","","","","","","","","","","","","","",""
"","ITI","","html-keyboard-response","345","396623","0.0-1.0-459.0","0","0","91171","","null","","","null","50","","","","","","","","","","","","","","","NaN",""
"","S1","","html-keyboard-response","346","396875","0.0-1.0-461.0","0","0","91171","","null","","","null","51","","","","","","","","","","","","","","","",""
"","ISI","","html-keyboard-response","347","397027","0.0-1.0-462.0","0","0","91171","","null","","","null","51","NaN","","","","","","","","","","","","","","",""
"","S2","","html-keyboard-response","348","397280","0.0-1.0-463.0","0","0","91171","","null","","","null","51","","NaN","","","","","","","","","","","","","",""
"","response","","html-keyboard-response","349","397684","0.0-1.0-464.0-0.0","0","0","91171","","402","","","75","51","","","2","51","training","adjacent","GF","7","6","Q.jpg","M.jpg","1","0","0","",""
"","feedback","","html-keyboard-response","350","398687","0.0-1.0-465.0-0.0","0","0","91171","","null","","","null","51","","","","","","","","","","","","","","","",""
"","time_out","","html-keyboard-response","351","400688","0.0-1.0-467.0-0.0","0","0","91171","","null","","","null","51","","","","","","","","","","","","","","","",""
"","ITI","","html-keyboard-response","352","401690","0.0-1.0-468.0","0","0","91171","","null","","","null","51","","","","","","","","","","","","","","","NaN",""
"","S1","","html-keyboard-response","353","401947","0.0-1.0-470.0","0","0","91171","","null","","","null","52","","","","","","","","","","","","","","","",""
"","ISI","","html-keyboard-response","354","402099","0.0-1.0-471.0","0","0","91171","","null","","","null","52","NaN","","","","","","","","","","","","","","",""
"","S2","","html-keyboard-response","355","402352","0.0-1.0-472.0","0","0","91171","","null","","","null","52","","NaN","","","","","","","","","","","","","",""
"","response","","html-keyboard-response","356","402606","0.0-1.0-473.0-0.0","0","0","91171","","252","","","68","52","","","2","52","training","adjacent","BA","2","1","L.jpg","P.jpg","0","0","1","",""
"","feedback","","html-keyboard-response","357","403608","0.0-1.0-474.0-0.0","0","0","91171","","null","","","null","52","","","","","","","","","","","","","","","",""
"","ITI","","html-keyboard-response","358","404611","0.0-1.0-477.0","0","0","91171","","null","","","null","52","","","","","","","","","","","","","","","NaN",""
"","S1","","html-keyboard-response","359","404864","0.0-1.0-479.0","0","0","91171","","null","","","null","53","","","","","","","","","","","","","","","",""
"","ISI","","html-keyboard-response","360","405016","0.0-1.0-480.0","0","0","91171","","null","","","null","53","NaN","","","","","","","","","","","","","","",""
"","S2","","html-keyboard-response","361","405269","0.0-1.0-481.0","0","0","91171","","null","","","null","53","","NaN","","","","","","","","","","","","","",""
"","response","","html-keyboard-response","362","405986","0.0-1.0-482.0-0.0","0","0","91171","","715","","","68","53","","","2","53","training","adjacent","AB","1","2","P.jpg","L.jpg","0","1","0","",""
"","feedback","","html-keyboard-response","363","406989","0.0-1.0-483.0-0.0","0","0","91171","","null","","","null","53","","","","","","","","","","","","","","","",""
"","time_out","","html-keyboard-response","364","408992","0.0-1.0-485.0-0.0","0","0","91171","","null","","","null","53","","","","","","","","","","","","","","","",""
"","ITI","","html-keyboard-response","365","410002","0.0-1.0-486.0","0","0","91171","","null","","","null","53","","","","","","","","","","","","","","","NaN",""
"","S1","","html-keyboard-response","366","410254","0.0-1.0-488.0","0","0","91171","","null","","","null","54","","","","","","","","","","","","","","","",""
"","ISI","","html-keyboard-response","367","410407","0.0-1.0-489.0","0","0","91171","","null","","","null","54","NaN","","","","","","","","","","","","","","",""
"","S2","","html-keyboard-response","368","410660","0.0-1.0-490.0","0","0","91171","","null","","","null","54","","NaN","","","","","","","","","","","","","",""
"","response","","html-keyboard-response","369","411088","0.0-1.0-491.0-0.0","0","0","91171","","427","","","75","54","","","2","54","training","adjacent","FG","6","7","M.jpg","Q.jpg","1","1","1","",""
"","feedback","","html-keyboard-response","370","412091","0.0-1.0-492.0-0.0","0","0","91171","","null","","","null","54","","","","","","","","","","","","","","","",""
"","ITI","","html-keyboard-response","371","413094","0.0-1.0-495.0","0","0","91171","","null","","","null","54","","","","","","","","","","","","","","","NaN",""
"","S1","","html-keyboard-response","372","413346","0.0-1.0-497.0","0","0","91171","","null","","","null","55","","","","","","","","","","","","","","","",""
"","ISI","","html-keyboard-response","373","413499","0.0-1.0-498.0","0","0","91171","","null","","","null","55","NaN","","","","","","","","","","","","","","",""
"","S2","","html-keyboard-response","374","413752","0.0-1.0-499.0","0","0","91171","","null","","","null","55","","NaN","","","","","","","","","","","","","",""
"","response","","html-keyboard-response","375","414352","0.0-1.0-500.0-0.0","0","0","91171","","598","","","75","55","","","2","55","training","adjacent","DC","4","3","N.jpg","O.jpg","1","0","0","",""
"","feedback","","html-keyboard-response","376","415355","0.0-1.0-501.0-0.0","0","0","91171","","null","","","null","55","","","","","","","","","","","","","","","",""
"","time_out","","html-keyboard-response","377","417357","0.0-1.0-503.0-0.0","0","0","91171","","null","","","null","55","","","","","","","","","","","","","","","",""
"","ITI","","html-keyboard-response","378","418359","0.0-1.0-504.0","0","0","91171","","null","","","null","55","","","","","","","","","","","","","","","NaN",""
"","S1","","html-keyboard-response","379","418612","0.0-1.0-506.0","0","0","91171","","null","","","null","56","","","","","","","","","","","","","","","",""
"","ISI","","html-keyboard-response","380","418765","0.0-1.0-507.0","0","0","91171","","null","","","null","56","NaN","","","","","","","","","","","","","","",""
"","S2","","html-keyboard-response","381","419018","0.0-1.0-508.0","0","0","91171","","null","","","null","56","","NaN","","","","","","","","","","","","","",""
"","response","","html-keyboard-response","382","419332","0.0-1.0-509.0-0.0","0","0","91171","","312","","","68","56","","","2","56","training","adjacent","GF","7","6","Q.jpg","M.jpg","0","0","1","",""
"","feedback","","html-keyboard-response","383","420335","0.0-1.0-510.0-0.0","0","0","91171","","null","","","null","56","","","","","","","","","","","","","","","",""
"","ITI","","html-keyboard-response","384","421338","0.0-1.0-513.0","0","0","91171","","null","","","null","56","","","","","","","","","","","","","","","NaN",""
"","S1","","html-keyboard-response","385","421590","0.0-1.0-515.0","0","0","91171","","null","","","null","57","","","","","","","","","","","","","","","",""
"","ISI","","html-keyboard-response","386","421742","0.0-1.0-516.0","0","0","91171","","null","","","null","57","NaN","","","","","","","","","","","","","","",""
"","S2","","html-keyboard-response","387","421995","0.0-1.0-517.0","0","0","91171","","null","","","null","57","","NaN","","","","","","","","","","","","","",""
"","response","","html-keyboard-response","388","422272","0.0-1.0-518.0-0.0","0","0","91171","","276","","","68","57","","","2","57","training","adjacent","GF","7","6","Q.jpg","M.jpg","0","0","1","",""
"","feedback","","html-keyboard-response","389","423275","0.0-1.0-519.0-0.0","0","0","91171","","null","","","null","57","","","","","","","","","","","","","","","",""
"","ITI","","html-keyboard-response","390","424289","0.0-1.0-522.0","0","0","91171","","null","","","null","57","","","","","","","","","","","","","","","NaN",""
"","S1","","html-keyboard-response","391","424542","0.0-1.0-524.0","0","0","91171","","null","","","null","58","","","","","","","","","","","","","","","",""
"","ISI","","html-keyboard-response","392","424696","0.0-1.0-525.0","0","0","91171","","null","","","null","58","NaN","","","","","","","","","","","","","","",""
"","S2","","html-keyboard-response","393","424957","0.0-1.0-526.0","0","0","91171","","null","","","null","58","","NaN","","","","","","","","","","","","","",""
"","response","","html-keyboard-response","394","425345","0.0-1.0-527.0-0.0","0","0","91171","","386","","","75","58","","","2","58","training","adjacent","EF","5","6","R.jpg","M.jpg","1","1","1","",""
"","feedback","","html-keyboard-response","395","426349","0.0-1.0-528.0-0.0","0","0","91171","","null","","","null","58","","","","","","","","","","","","","","","",""
"","ITI","","html-keyboard-response","396","427352","0.0-1.0-531.0","0","0","91171","","null","","","null","58","","","","","","","","","","","","","","","NaN",""
"","S1","","html-keyboard-response","397","427605","0.0-1.0-533.0","0","0","91171","","null","","","null","59","","","","","","","","","","","","","","","",""
"","ISI","","html-keyboard-response","398","427757","0.0-1.0-534.0","0","0","91171","","null","","","null","59","NaN","","","","","","","","","","","","","","",""
"","S2","","html-keyboard-response","399","428010","0.0-1.0-535.0","0","0","91171","","null","","","null","59","","NaN","","","","","","","","","","","","","",""
"","response","","html-keyboard-response","400","428650","0.0-1.0-536.0-0.0","0","0","91171","","639","","","75","59","","","2","59","training","adjacent","CB","3","2","O.jpg","L.jpg","1","0","0","",""
"","feedback","","html-keyboard-response","401","429653","0.0-1.0-537.0-0.0","0","0","91171","","null","","","null","59","","","","","","","","","","","","","","","",""
"","time_out","","html-keyboard-response","402","431656","0.0-1.0-539.0-0.0","0","0","91171","","null","","","null","59","","","","","","","","","","","","","","","",""
"","ITI","","html-keyboard-response","403","432659","0.0-1.0-540.0","0","0","91171","","null","","","null","59","","","","","","","","","","","","","","","NaN",""
"","S1","","html-keyboard-response","404","432912","0.0-1.0-542.0","0","0","91171","","null","","","null","60","","","","","","","","","","","","","","","",""
"","ISI","","html-keyboard-response","405","433065","0.0-1.0-543.0","0","0","91171","","null","","","null","60","NaN","","","","","","","","","","","","","","",""
"","S2","","html-keyboard-response","406","433324","0.0-1.0-544.0","0","0","91171","","null","","","null","60","","NaN","","","","","","","","","","","","","",""
"","response","","html-keyboard-response","407","433662","0.0-1.0-545.0-0.0","0","0","91171","","337","","","68","60","","","2","60","training","adjacent","CD","3","4","O.jpg","N.jpg","0","1","0","",""
"","feedback","","html-keyboard-response","408","434665","0.0-1.0-546.0-0.0","0","0","91171","","null","","","null","60","","","","","","","","","","","","","","","",""
"","time_out","","html-keyboard-response","409","436668","0.0-1.0-548.0-0.0","0","0","91171","","null","","","null","60","","","","","","","","","","","","","","","",""
"","ITI","","html-keyboard-response","410","437671","0.0-1.0-549.0","0","0","91171","","null","","","null","60","","","","","","","","","","","","","","","NaN",""
"","S1","","html-keyboard-response","411","437924","0.0-1.0-551.0","0","0","91171","","null","","","null","61","","","","","","","","","","","","","","","",""
"","ISI","","html-keyboard-response","412","438076","0.0-1.0-552.0","0","0","91171","","null","","","null","61","NaN","","","","","","","","","","","","","","",""
"","S2","","html-keyboard-response","413","438331","0.0-1.0-553.0","0","0","91171","","null","","","null","61","","NaN","","","","","","","","","","","","","",""
"","response","","html-keyboard-response","414","438635","0.0-1.0-554.0-0.0","0","0","91171","","303","","","75","61","","","2","61","training","adjacent","FG","6","7","M.jpg","Q.jpg","1","1","1","",""
"","feedback","","html-keyboard-response","415","439638","0.0-1.0-555.0-0.0","0","0","91171","","null","","","null","61","","","","","","","","","","","","","","","",""
"","ITI","","html-keyboard-response","416","440640","0.0-1.0-558.0","0","0","91171","","null","","","null","61","","","","","","","","","","","","","","","NaN",""
"","S1","","html-keyboard-response","417","440893","0.0-1.0-560.0","0","0","91171","","null","","","null","62","","","","","","","","","","","","","","","",""
"","ISI","","html-keyboard-response","418","441045","0.0-1.0-561.0","0","0","91171","","null","","","null","62","NaN","","","","","","","","","","","","","","",""
"","S2","","html-keyboard-response","419","441298","0.0-1.0-562.0","0","0","91171","","null","","","null","62","","NaN","","","","","","","","","","","","","",""
"","response","","html-keyboard-response","420","441638","0.0-1.0-563.0-0.0","0","0","91171","","339","","","75","62","","","2","62","training","adjacent","CD","3","4","O.jpg","N.jpg","1","1","1","",""
"","feedback","","html-keyboard-response","421","442640","0.0-1.0-564.0-0.0","0","0","91171","","null","","","null","62","","","","","","","","","","","","","","","",""
"","ITI","","html-keyboard-response","422","443643","0.0-1.0-567.0","0","0","91171","","null","","","null","62","","","","","","","","","","","","","","","NaN",""
"","S1","","html-keyboard-response","423","443896","0.0-1.0-569.0","0","0","91171","","null","","","null","63","","","","","","","","","","","","","","","",""
"","ISI","","html-keyboard-response","424","444049","0.0-1.0-570.0","0","0","91171","","null","","","null","63","NaN","","","","","","","","","","","","","","",""
"","S2","","html-keyboard-response","425","444302","0.0-1.0-571.0","0","0","91171","","null","","","null","63","","NaN","","","","","","","","","","","","","",""
"","response","","html-keyboard-response","426","444775","0.0-1.0-572.0-0.0","0","0","91171","","472","","","68","63","","","2","63","training","adjacent","FE","6","5","M.jpg","R.jpg","0","0","1","",""
"","feedback","","html-keyboard-response","427","445778","0.0-1.0-573.0-0.0","0","0","91171","","null","","","null","63","","","","","","","","","","","","","","","",""
"","ITI","","html-keyboard-response","428","446780","0.0-1.0-576.0","0","0","91171","","null","","","null","63","","","","","","","","","","","","","","","NaN",""
"","S1","","html-keyboard-response","429","447033","0.0-1.0-578.0","0","0","91171","","null","","","null","64","","","","","","","","","","","","","","","",""
"","ISI","","html-keyboard-response","430","447185","0.0-1.0-579.0","0","0","91171","","null","","","null","64","NaN","","","","","","","","","","","","","","",""
"","S2","","html-keyboard-response","431","447439","0.0-1.0-580.0","0","0","91171","","null","","","null","64","","NaN","","","","","","","","","","","","","",""
"","response","","html-keyboard-response","432","447841","0.0-1.0-581.0-0.0","0","0","91171","","401","","","68","64","","","2","64","training","adjacent","ED","5","4","R.jpg","N.jpg","0","0","1","",""
"","feedback","","html-keyboard-response","433","448844","0.0-1.0-582.0-0.0","0","0","91171","","null","","","null","64","","","","","","","","","","","","","","","",""
"","ITI","","html-keyboard-response","434","449848","0.0-1.0-585.0","0","0","91171","","null","","","null","64","","","","","","","","","","","","","","","NaN",""
"","S1","","html-keyboard-response","435","450101","0.0-1.0-587.0","0","0","91171","","null","","","null","65","","","","","","","","","","","","","","","",""
"","ISI","","html-keyboard-response","436","450254","0.0-1.0-588.0","0","0","91171","","null","","","null","65","NaN","","","","","","","","","","","","","","",""
"","S2","","html-keyboard-response","437","450507","0.0-1.0-589.0","0","0","91171","","null","","","null","65","","NaN","","","","","","","","","","","","","",""
"","response","","html-keyboard-response","438","451012","0.0-1.0-590.0-0.0","0","0","91171","","504","","","75","65","","","2","65","training","adjacent","DC","4","3","N.jpg","O.jpg","1","0","0","",""
"","feedback","","html-keyboard-response","439","452015","0.0-1.0-591.0-0.0","0","0","91171","","null","","","null","65","","","","","","","","","","","","","","","",""
"","time_out","","html-keyboard-response","440","454018","0.0-1.0-593.0-0.0","0","0","91171","","null","","","null","65","","","","","","","","","","","","","","","",""
"","ITI","","html-keyboard-response","441","455020","0.0-1.0-594.0","0","0","91171","","null","","","null","65","","","","","","","","","","","","","","","NaN",""
"","S1","","html-keyboard-response","442","455273","0.0-1.0-596.0","0","0","91171","","null","","","null","66","","","","","","","","","","","","","","","",""
"","ISI","","html-keyboard-response","443","455425","0.0-1.0-597.0","0","0","91171","","null","","","null","66","NaN","","","","","","","","","","","","","","",""
"","S2","","html-keyboard-response","444","455679","0.0-1.0-598.0","0","0","91171","","null","","","null","66","","NaN","","","","","","","","","","","","","",""
"","response","","html-keyboard-response","445","455755","0.0-1.0-599.0-0.0","0","0","91171","","75","","","68","66","","","2","66","training","adjacent","DE","4","5","N.jpg","R.jpg","0","1","0","",""
"","feedback","","html-keyboard-response","446","456759","0.0-1.0-600.0-0.0","0","0","91171","","null","","","null","66","","","","","","","","","","","","","","","",""
"","time_out","","html-keyboard-response","447","458762","0.0-1.0-602.0-0.0","0","0","91171","","null","","","null","66","","","","","","","","","","","","","","","",""
"","ITI","","html-keyboard-response","448","459764","0.0-1.0-603.0","0","0","91171","","null","","","null","66","","","","","","","","","","","","","","","NaN",""
"","S1","","html-keyboard-response","449","460016","0.0-1.0-605.0","0","0","91171","","null","","","null","67","","","","","","","","","","","","","","","",""
"","ISI","","html-keyboard-response","450","460168","0.0-1.0-606.0","0","0","91171","","null","","","null","67","NaN","","","","","","","","","","","","","","",""
"","S2","","html-keyboard-response","451","460420","0.0-1.0-607.0","0","0","91171","","null","","","null","67","","NaN","","","","","","","","","","","","","",""
"","response","","html-keyboard-response","452","460468","0.0-1.0-608.0-0.0","0","0","91171","","46","","","68","67","","","2","67","training","adjacent","FG","6","7","M.jpg","Q.jpg","0","1","0","",""
"","feedback","","html-keyboard-response","453","461478","0.0-1.0-609.0-0.0","0","0","91171","","null","","","null","67","","","","","","","","","","","","","","","",""
"","time_out","","html-keyboard-response","454","463481","0.0-1.0-611.0-0.0","0","0","91171","","null","","","null","67","","","","","","","","","","","","","","","",""
"","ITI","","html-keyboard-response","455","464483","0.0-1.0-612.0","0","0","91171","","null","","","null","67","","","","","","","","","","","","","","","NaN",""
"","S1","","html-keyboard-response","456","464735","0.0-1.0-614.0","0","0","91171","","null","","","null","68","","","","","","","","","","","","","","","",""
"","ISI","","html-keyboard-response","457","464888","0.0-1.0-615.0","0","0","91171","","null","","","null","68","NaN","","","","","","","","","","","","","","",""
"","S2","","html-keyboard-response","458","465140","0.0-1.0-616.0","0","0","91171","","null","","","null","68","","NaN","","","","","","","","","","","","","",""
"","response","","html-keyboard-response","459","465463","0.0-1.0-617.0-0.0","0","0","91171","","322","","","75","68","","","2","68","training","adjacent","CD","3","4","O.jpg","N.jpg","1","1","1","",""
"","feedback","","html-keyboard-response","460","466467","0.0-1.0-618.0-0.0","0","0","91171","","null","","","null","68","","","","","","","","","","","","","","","",""
"","ITI","","html-keyboard-response","461","467470","0.0-1.0-621.0","0","0","91171","","null","","","null","68","","","","","","","","","","","","","","","NaN",""
"","S1","","html-keyboard-response","462","467723","0.0-1.0-623.0","0","0","91171","","null","","","null","69","","","","","","","","","","","","","","","",""
"","ISI","","html-keyboard-response","463","467875","0.0-1.0-624.0","0","0","91171","","null","","","null","69","NaN","","","","","","","","","","","","","","",""
"","S2","","html-keyboard-response","464","468128","0.0-1.0-625.0","0","0","91171","","null","","","null","69","","NaN","","","","","","","","","","","","","",""
"","response","","html-keyboard-response","465","468404","0.0-1.0-626.0-0.0","0","0","91171","","274","","","75","69","","","2","69","training","adjacent","BA","2","1","L.jpg","P.jpg","1","0","0","",""
"","feedback","","html-keyboard-response","466","469406","0.0-1.0-627.0-0.0","0","0","91171","","null","","","null","69","","","","","","","","","","","","","","","",""
"","time_out","","html-keyboard-response","467","471409","0.0-1.0-629.0-0.0","0","0","91171","","null","","","null","69","","","","","","","","","","","","","","","",""
"","ITI","","html-keyboard-response","468","472411","0.0-1.0-630.0","0","0","91171","","null","","","null","69","","","","","","","","","","","","","","","NaN",""
"","S1","","html-keyboard-response","469","472663","0.0-1.0-632.0","0","0","91171","","null","","","null","70","","","","","","","","","","","","","","","",""
"","ISI","","html-keyboard-response","470","472816","0.0-1.0-633.0","0","0","91171","","null","","","null","70","NaN","","","","","","","","","","","","","","",""
"","S2","","html-keyboard-response","471","473068","0.0-1.0-634.0","0","0","91171","","null","","","null","70","","NaN","","","","","","","","","","","","","",""
"","response","","html-keyboard-response","472","473684","0.0-1.0-635.0-0.0","0","0","91171","","615","","","68","70","","","2","70","training","adjacent","EF","5","6","R.jpg","M.jpg","0","1","0","",""
"","feedback","","html-keyboard-response","473","474688","0.0-1.0-636.0-0.0","0","0","91171","","null","","","null","70","","","","","","","","","","","","","","","",""
"","time_out","","html-keyboard-response","474","476690","0.0-1.0-638.0-0.0","0","0","91171","","null","","","null","70","","","","","","","","","","","","","","","",""
"","ITI","","html-keyboard-response","475","477692","0.0-1.0-639.0","0","0","91171","","null","","","null","70","","","","","","","","","","","","","","","NaN",""
"","S1","","html-keyboard-response","476","477946","0.0-1.0-641.0","0","0","91171","","null","","","null","71","","","","","","","","","","","","","","","",""
"","ISI","","html-keyboard-response","477","478109","0.0-1.0-642.0","0","0","91171","","null","","","null","71","NaN","","","","","","","","","","","","","","",""
"","S2","","html-keyboard-response","478","478362","0.0-1.0-643.0","0","0","91171","","null","","","null","71","","NaN","","","","","","","","","","","","","",""
"","response","","html-keyboard-response","479","478828","0.0-1.0-644.0-0.0","0","0","91171","","465","","","75","71","","","2","71","training","adjacent","DE","4","5","N.jpg","R.jpg","1","1","1","",""
"","feedback","","html-keyboard-response","480","479816","0.0-1.0-645.0-0.0","0","0","91171","","null","","","null","71","","","","","","","","","","","","","","","",""
"","ITI","","html-keyboard-response","481","480823","0.0-1.0-648.0","0","0","91171","","null","","","null","71","","","","","","","","","","","","","","","NaN",""
"","S1","","html-keyboard-response","482","481077","0.0-1.0-650.0","0","0","91171","","null","","","null","72","","","","","","","","","","","","","","","",""
"","ISI","","html-keyboard-response","483","481229","0.0-1.0-651.0","0","0","91171","","null","","","null","72","NaN","","","","","","","","","","","","","","",""
"","S2","","html-keyboard-response","484","481482","0.0-1.0-652.0","0","0","91171","","null","","","null","72","","NaN","","","","","","","","","","","","","",""
"","response","","html-keyboard-response","485","481827","0.0-1.0-653.0-0.0","0","0","91171","","343","","","75","72","","","2","72","training","adjacent","DC","4","3","N.jpg","O.jpg","1","0","0","",""
"","feedback","","html-keyboard-response","486","482831","0.0-1.0-654.0-0.0","0","0","91171","","null","","","null","72","","","","","","","","","","","","","","","",""
"","time_out","","html-keyboard-response","487","484834","0.0-1.0-656.0-0.0","0","0","91171","","null","","","null","72","","","","","","","","","","","","","","","",""
"","ITI","","html-keyboard-response","488","485836","0.0-1.0-657.0","0","0","91171","","null","","","null","72","","","","","","","","","","","","","","","NaN",""
"","S1","","html-keyboard-response","489","486089","0.0-1.0-659.0","0","0","91171","","null","","","null","73","","","","","","","","","","","","","","","",""
"","ISI","","html-keyboard-response","490","486242","0.0-1.0-660.0","0","0","91171","","null","","","null","73","NaN","","","","","","","","","","","","","","",""
"","S2","","html-keyboard-response","491","486495","0.0-1.0-661.0","0","0","91171","","null","","","null","73","","NaN","","","","","","","","","","","","","",""
"","response","","html-keyboard-response","492","486621","0.0-1.0-662.0-0.0","0","0","91171","","125","","","75","73","","","2","73","training","adjacent","FE","6","5","M.jpg","R.jpg","1","0","0","",""
"","feedback","","html-keyboard-response","493","487623","0.0-1.0-663.0-0.0","0","0","91171","","null","","","null","73","","","","","","","","","","","","","","","",""
"","time_out","","html-keyboard-response","494","489625","0.0-1.0-665.0-0.0","0","0","91171","","null","","","null","73","","","","","","","","","","","","","","","",""
"","ITI","","html-keyboard-response","495","490628","0.0-1.0-666.0","0","0","91171","","null","","","null","73","","","","","","","","","","","","","","","NaN",""
"","S1","","html-keyboard-response","496","490880","0.0-1.0-668.0","0","0","91171","","null","","","null","74","","","","","","","","","","","","","","","",""
"","ISI","","html-keyboard-response","497","491032","0.0-1.0-669.0","0","0","91171","","null","","","null","74","NaN","","","","","","","","","","","","","","",""
"","S2","","html-keyboard-response","498","491200","0.0-1.0-670.0","0","0","91171","","165","","","68","74","","d","2","74","training","adjacent","BA","2","1","L.jpg","P.jpg","0","0","1","",""
"","feedback","","html-keyboard-response","499","492202","0.0-1.0-672.0-0.0","0","0","91171","","null","","","null","74","","","","","","","","","","","","","","","",""
"","ITI","","html-keyboard-response","500","493204","0.0-1.0-675.0","0","0","91171","","null","","","null","74","","","","","","","","","","","","","","","NaN",""
"","S1","","html-keyboard-response","501","493457","0.0-1.0-677.0","0","0","91171","","null","","","null","75","","","","","","","","","","","","","","","",""
"","ISI","","html-keyboard-response","502","493608","0.0-1.0-678.0","0","0","91171","","null","","","null","75","NaN","","","","","","","","","","","","","","",""
"","S2","","html-keyboard-response","503","493861","0.0-1.0-679.0","0","0","91171","","null","","","null","75","","NaN","","","","","","","","","","","","","",""
"","response","","html-keyboard-response","504","494142","0.0-1.0-680.0-0.0","0","0","91171","","279","","","68","75","","","2","75","training","adjacent","FE","6","5","M.jpg","R.jpg","0","0","1","",""
"","feedback","","html-keyboard-response","505","495145","0.0-1.0-681.0-0.0","0","0","91171","","null","","","null","75","","","","","","","","","","","","","","","",""
"","ITI","","html-keyboard-response","506","496147","0.0-1.0-684.0","0","0","91171","","null","","","null","75","","","","","","","","","","","","","","","NaN",""
"","S1","","html-keyboard-response","507","496400","0.0-1.0-686.0","0","0","91171","","null","","","null","76","","","","","","","","","","","","","","","",""
"","ISI","","html-keyboard-response","508","496553","0.0-1.0-687.0","0","0","91171","","null","","","null","76","NaN","","","","","","","","","","","","","","",""
"","S2","","html-keyboard-response","509","496813","0.0-1.0-688.0","0","0","91171","","null","","","null","76","","NaN","","","","","","","","","","","","","",""
"","response","","html-keyboard-response","510","497460","0.0-1.0-689.0-0.0","0","0","91171","","646","","","75","76","","","2","76","training","adjacent","BC","2","3","L.jpg","O.jpg","1","1","1","",""
"","feedback","","html-keyboard-response","511","498464","0.0-1.0-690.0-0.0","0","0","91171","","null","","","null","76","","","","","","","","","","","","","","","",""
"","ITI","","html-keyboard-response","512","499466","0.0-1.0-693.0","0","0","91171","","null","","","null","76","","","","","","","","","","","","","","","NaN",""
"","S1","","html-keyboard-response","513","499719","0.0-1.0-695.0","0","0","91171","","null","","","null","77","","","","","","","","","","","","","","","",""
"","ISI","","html-keyboard-response","514","499872","0.0-1.0-696.0","0","0","91171","","null","","","null","77","NaN","","","","","","","","","","","","","","",""
"","S2","","html-keyboard-response","515","500125","0.0-1.0-697.0","0","0","91171","","null","","","null","77","","NaN","","","","","","","","","","","","","",""
"","response","","html-keyboard-response","516","500494","0.0-1.0-698.0-0.0","0","0","91171","","368","","","68","77","","","2","77","training","adjacent","AB","1","2","P.jpg","L.jpg","0","1","0","",""
"","feedback","","html-keyboard-response","517","501497","0.0-1.0-699.0-0.0","0","0","91171","","null","","","null","77","","","","","","","","","","","","","","","",""
"","time_out","","html-keyboard-response","518","503500","0.0-1.0-701.0-0.0","0","0","91171","","null","","","null","77","","","","","","","","","","","","","","","",""
"","ITI","","html-keyboard-response","519","504503","0.0-1.0-702.0","0","0","91171","","null","","","null","77","","","","","","","","","","","","","","","NaN",""
"","S1","","html-keyboard-response","520","504756","0.0-1.0-704.0","0","0","91171","","null","","","null","78","","","","","","","","","","","","","","","",""
"","ISI","","html-keyboard-response","521","504908","0.0-1.0-705.0","0","0","91171","","null","","","null","78","NaN","","","","","","","","","","","","","","",""
"","S2","","html-keyboard-response","522","505160","0.0-1.0-706.0","0","0","91171","","null","","","null","78","","NaN","","","","","","","","","","","","","",""
"","response","","html-keyboard-response","523","505718","0.0-1.0-707.0-0.0","0","0","91171","","557","","","75","78","","","2","78","training","adjacent","FE","6","5","M.jpg","R.jpg","1","0","0","",""
"","feedback","","html-keyboard-response","524","506720","0.0-1.0-708.0-0.0","0","0","91171","","null","","","null","78","","","","","","","","","","","","","","","",""
"","time_out","","html-keyboard-response","525","508724","0.0-1.0-710.0-0.0","0","0","91171","","null","","","null","78","","","","","","","","","","","","","","","",""
"","ITI","","html-keyboard-response","526","509726","0.0-1.0-711.0","0","0","91171","","null","","","null","78","","","","","","","","","","","","","","","NaN",""
"","S1","","html-keyboard-response","527","509978","0.0-1.0-713.0","0","0","91171","","null","","","null","79","","","","","","","","","","","","","","","",""
"","ISI","","html-keyboard-response","528","510130","0.0-1.0-714.0","0","0","91171","","null","","","null","79","NaN","","","","","","","","","","","","","","",""
"","S2","","html-keyboard-response","529","510383","0.0-1.0-715.0","0","0","91171","","null","","","null","79","","NaN","","","","","","","","","","","","","",""
"","response","","html-keyboard-response","530","510823","0.0-1.0-716.0-0.0","0","0","91171","","438","","","68","79","","","2","79","training","adjacent","CB","3","2","O.jpg","L.jpg","0","0","1","",""
"","feedback","","html-keyboard-response","531","511838","0.0-1.0-717.0-0.0","0","0","91171","","null","","","null","79","","","","","","","","","","","","","","","",""
"","ITI","","html-keyboard-response","532","512842","0.0-1.0-720.0","0","0","91171","","null","","","null","79","","","","","","","","","","","","","","","NaN",""
"","S1","","html-keyboard-response","533","513096","0.0-1.0-722.0","0","0","91171","","null","","","null","80","","","","","","","","","","","","","","","",""
"","ISI","","html-keyboard-response","534","513248","0.0-1.0-723.0","0","0","91171","","null","","","null","80","NaN","","","","","","","","","","","","","","",""
"","S2","","html-keyboard-response","535","513501","0.0-1.0-724.0","0","0","91171","","null","","","null","80","","NaN","","","","","","","","","","","","","",""
"","response","","html-keyboard-response","536","514154","0.0-1.0-725.0-0.0","0","0","91171","","652","","","68","80","","","2","80","training","adjacent","AB","1","2","P.jpg","L.jpg","0","1","0","",""
"","feedback","","html-keyboard-response","537","515156","0.0-1.0-726.0-0.0","0","0","91171","","null","","","null","80","","","","","","","","","","","","","","","",""
"","time_out","","html-keyboard-response","538","517158","0.0-1.0-728.0-0.0","0","0","91171","","null","","","null","80","","","","","","","","","","","","","","","",""
"","ITI","","html-keyboard-response","539","518161","0.0-1.0-729.0","0","0","91171","","null","","","null","80","","","","","","","","","","","","","","","NaN",""
"","S1","","html-keyboard-response","540","518414","0.0-1.0-731.0","0","0","91171","","null","","","null","81","","","","","","","","","","","","","","","",""
"","ISI","","html-keyboard-response","541","518566","0.0-1.0-732.0","0","0","91171","","null","","","null","81","NaN","","","","","","","","","","","","","","",""
"","S2","","html-keyboard-response","542","518819","0.0-1.0-733.0","0","0","91171","","null","","","null","81","","NaN","","","","","","","","","","","","","",""
"","response","","html-keyboard-response","543","519206","0.0-1.0-734.0-0.0","0","0","91171","","385","","","75","81","","","2","81","training","adjacent","BC","2","3","L.jpg","O.jpg","1","1","1","",""
"","feedback","","html-keyboard-response","544","520209","0.0-1.0-735.0-0.0","0","0","91171","","null","","","null","81","","","","","","","","","","","","","","","",""
"","ITI","","html-keyboard-response","545","521213","0.0-1.0-738.0","0","0","91171","","null","","","null","81","","","","","","","","","","","","","","","NaN",""
"","S1","","html-keyboard-response","546","521466","0.0-1.0-740.0","0","0","91171","","null","","","null","82","","","","","","","","","","","","","","","",""
"","ISI","","html-keyboard-response","547","521618","0.0-1.0-741.0","0","0","91171","","null","","","null","82","NaN","","","","","","","","","","","","","","",""
"","S2","","html-keyboard-response","548","521871","0.0-1.0-742.0","0","0","91171","","null","","","null","82","","NaN","","","","","","","","","","","","","",""
"","response","","html-keyboard-response","549","523624","0.0-1.0-743.0-0.0","0","0","91171","","null","","","null","82","","","2","82","training","adjacent","BC","2","3","L.jpg","O.jpg","NaN","1","0","",""
"","too_slow_prompt","","html-keyboard-response","550","524627","0.0-1.0-745.0-0.0","1","0","91171","","null","","","null","","","","","","","","","","","","","","","","",""
"","time_out","","html-keyboard-response","551","526629","0.0-1.0-746.0-0.0","0","0","91171","","null","","","null","82","","","","","","","","","","","","","","","",""
"","ITI","","html-keyboard-response","552","527631","0.0-1.0-747.0","0","0","91171","","null","","","null","82","","","","","","","","","","","","","","","NaN",""
"","S1","","html-keyboard-response","553","527893","0.0-1.0-749.0","0","0","91171","","null","","","null","83","","","","","","","","","","","","","","","",""
"","ISI","","html-keyboard-response","554","528045","0.0-1.0-750.0","0","0","91171","","null","","","null","83","NaN","","","","","","","","","","","","","","",""
"","S2","","html-keyboard-response","555","528298","0.0-1.0-751.0","0","0","91171","","null","","","null","83","","NaN","","","","","","","","","","","","","",""
"","response","","html-keyboard-response","556","528451","0.0-1.0-752.0-0.0","0","0","91171","","152","","","75","83","","","2","83","training","adjacent","AB","1","2","P.jpg","L.jpg","1","1","1","",""
"","feedback","","html-keyboard-response","557","529455","0.0-1.0-753.0-0.0","0","0","91171","","null","","","null","83","","","","","","","","","","","","","","","",""
"","ITI","","html-keyboard-response","558","530457","0.0-1.0-756.0","0","0","91171","","null","","","null","83","","","","","","","","","","","","","","","NaN",""
"","S1","","html-keyboard-response","559","530710","0.0-1.0-758.0","0","0","91171","","null","","","null","84","","","","","","","","","","","","","","","",""
"","ISI","","html-keyboard-response","560","530862","0.0-1.0-759.0","0","0","91171","","null","","","null","84","NaN","","","","","","","","","","","","","","",""
"","S2","","html-keyboard-response","561","531115","0.0-1.0-760.0","0","0","91171","","null","","","null","84","","NaN","","","","","","","","","","","","","",""
"","response","","html-keyboard-response","562","531537","0.0-1.0-761.0-0.0","0","0","91171","","420","","","75","84","","","2","84","training","adjacent","CB","3","2","O.jpg","L.jpg","1","0","0","",""
"","feedback","","html-keyboard-response","563","532540","0.0-1.0-762.0-0.0","0","0","91171","","null","","","null","84","","","","","","","","","","","","","","","",""
"","time_out","","html-keyboard-response","564","534542","0.0-1.0-764.0-0.0","0","0","91171","","null","","","null","84","","","","","","","","","","","","","","","",""
"","ITI","","html-keyboard-response","565","535544","0.0-1.0-765.0","0","0","91171","","null","","","null","84","","","","","","","","","","","","","","","NaN",""
"","S1","","html-keyboard-response","566","535797","0.0-1.0-767.0","0","0","91171","","null","","","null","85","","","","","","","","","","","","","","","",""
"","ISI","","html-keyboard-response","567","535949","0.0-1.0-768.0","0","0","91171","","null","","","null","85","NaN","","","","","","","","","","","","","","",""
"","S2","","html-keyboard-response","568","536203","0.0-1.0-769.0","0","0","91171","","null","","","null","85","","NaN","","","","","","","","","","","","","",""
"","response","","html-keyboard-response","569","536590","0.0-1.0-770.0-0.0","0","0","91171","","386","","","75","85","","","2","85","training","adjacent","ED","5","4","R.jpg","N.jpg","1","0","0","",""
"","feedback","","html-keyboard-response","570","537594","0.0-1.0-771.0-0.0","0","0","91171","","null","","","null","85","","","","","","","","","","","","","","","",""
"","time_out","","html-keyboard-response","571","539582","0.0-1.0-773.0-0.0","0","0","91171","","null","","","null","85","","","","","","","","","","","","","","","",""
"","ITI","","html-keyboard-response","572","540585","0.0-1.0-774.0","0","0","91171","","null","","","null","85","","","","","","","","","","","","","","","NaN",""
"","S1","","html-keyboard-response","573","540837","0.0-1.0-776.0","0","0","91171","","null","","","null","86","","","","","","","","","","","","","","","",""
"","ISI","","html-keyboard-response","574","541003","0.0-1.0-777.0","0","0","91171","","null","","","null","86","NaN","","","","","","","","","","","","","","",""
"","S2","","html-keyboard-response","575","541256","0.0-1.0-778.0","0","0","91171","","null","","","null","86","","NaN","","","","","","","","","","","","","",""
"","response","","html-keyboard-response","576","541572","0.0-1.0-779.0-0.0","0","0","91171","","315","","","68","86","","","2","86","training","adjacent","ED","5","4","R.jpg","N.jpg","0","0","1","",""
"","feedback","","html-keyboard-response","577","542576","0.0-1.0-780.0-0.0","0","0","91171","","null","","","null","86","","","","","","","","","","","","","","","",""
"","ITI","","html-keyboard-response","578","543580","0.0-1.0-783.0","0","0","91171","","null","","","null","86","","","","","","","","","","","","","","","NaN",""
"","S1","","html-keyboard-response","579","543833","0.0-1.0-785.0","0","0","91171","","null","","","null","87","","","","","","","","","","","","","","","",""
