"success","ttype","start_time","trial_type","trial_index","time_elapsed","internal_node_id","warning","missed_checkup","PID","view_history","rt","responses","repeat_instructions","key_press","index","keypress_isi","keypress_S2","block","trial_num","phase","group_type","pair_type","S1_stim","S2_stim","S1_img","S2_img","S1_chosen","S1_higher","accuracy","keypress_iti","total_bonus_tally"
"true","full_screen","d03082023hr1644","fullscreen","0","16216","0.0-0.0","0","0","80773","","","","","","","","","","","","","","","","","","","","","",""
"","instructions","","instructions","1","133878","0.0-1.0-0.0-0.0","0","0","80773","[{""page_index"":0,""viewing_time"":9748},{""page_index"":1,""viewing_time"":65487},{""page_index"":2,""viewing_time"":39273},{""page_index"":3,""viewing_time"":3152}]","117661","","","","","","","","","","","","","","","","","","","",""
"","comprehension_check","","survey-multi-choice","2","209750","0.0-1.0-0.0-1.0","0","0","80773","","75867","{""Q0"":""True"",""Q1"":""K"",""Q2"":""Once the second image appears and while the screen 'MAKE A CHOICE' is shown"",""Q3"":""Green mark"",""Q4"":""either D or K""}","0","","","","","","","","","","","","","","","","","",""
"","start_exp","","html-keyboard-response","3","212933","0.0-1.0-1.0","0","0","80773","","3179","","","32","","","","","","","","","","","","","","","","",""
"","S1","","html-keyboard-response","4","213186","0.0-1.0-2.0","0","0","80773","","null","","","null","0","","","","","","","","","","","","","","","",""
"","ISI","","html-keyboard-response","5","213339","0.0-1.0-3.0","0","0","80773","","null","","","null","0","NaN","","","","","","","","","","","","","","",""
"","S2","","html-keyboard-response","6","213593","0.0-1.0-4.0","0","0","80773","","null","","","null","0","","NaN","","","","","","","","","","","","","",""
"","response","","html-keyboard-response","7","215345","0.0-1.0-5.0-0.0","0","0","80773","","null","","","null","0","","","1","0","training","adjacent","AB","1","2","L.jpg","Q.jpg","NaN","1","0","",""
"","too_slow_prompt","","html-keyboard-response","8","216347","0.0-1.0-7.0-0.0","1","0","80773","","null","","","null","","","","","","","","","","","","","","","","",""
"","time_out","","html-keyboard-response","9","218350","0.0-1.0-8.0-0.0","0","0","80773","","null","","","null","0","","","","","","","","","","","","","","","",""
"","ITI","","html-keyboard-response","10","219352","0.0-1.0-9.0","0","0","80773","","null","","","null","0","","","","","","","","","","","","","","","NaN",""
"","S1","","html-keyboard-response","11","219604","0.0-1.0-11.0","0","0","80773","","null","","","null","1","","","","","","","","","","","","","","","",""
"","ISI","","html-keyboard-response","12","219762","0.0-1.0-12.0","0","0","80773","","null","","","null","1","NaN","","","","","","","","","","","","","","",""
"","S2","","html-keyboard-response","13","220015","0.0-1.0-13.0","0","0","80773","","null","","","null","1","","NaN","","","","","","","","","","","","","",""
"","response","","html-keyboard-response","14","220389","0.0-1.0-14.0-0.0","0","0","80773","","373","","","75","1","","","1","1","training","adjacent","GF","7","6","R.jpg","N.jpg","1","0","0","",""
"","feedback","","html-keyboard-response","15","221393","0.0-1.0-15.0-0.0","0","0","80773","","null","","","null","1","","","","","","","","","","","","","","","",""
"","time_out","","html-keyboard-response","16","223395","0.0-1.0-17.0-0.0","0","0","80773","","null","","","null","1","","","","","","","","","","","","","","","",""
"","ITI","","html-keyboard-response","17","224397","0.0-1.0-18.0","0","0","80773","","null","","","null","1","","","","","","","","","","","","","","","NaN",""
"","S1","","html-keyboard-response","18","224650","0.0-1.0-20.0","0","0","80773","","null","","","null","2","","","","","","","","","","","","","","","",""
"","ISI","","html-keyboard-response","19","224802","0.0-1.0-21.0","0","0","80773","","null","","","null","2","NaN","","","","","","","","","","","","","","",""
"","S2","","html-keyboard-response","20","225056","0.0-1.0-22.0","0","0","80773","","null","","","null","2","","NaN","","","","","","","","","","","","","",""
"","response","","html-keyboard-response","21","225349","0.0-1.0-23.0-0.0","0","0","80773","","291","","","75","2","","","1","2","training","adjacent","DC","4","3","O.jpg","M.jpg","1","0","0","",""
"","feedback","","html-keyboard-response","22","226352","0.0-1.0-24.0-0.0","0","0","80773","","null","","","null","2","","","","","","","","","","","","","","","",""
"","time_out","","html-keyboard-response","23","228354","0.0-1.0-26.0-0.0","0","0","80773","","null","","","null","2","","","","","","","","","","","","","","","",""
"","ITI","","html-keyboard-response","24","229357","0.0-1.0-27.0","0","0","80773","","null","","","null","2","","","","","","","","","","","","","","","NaN",""
"","S1","","html-keyboard-response","25","229610","0.0-1.0-29.0","0","0","80773","","null","","","null","3","","","","","","","","","","","","","","","",""
"","ISI","","html-keyboard-response","26","229763","0.0-1.0-30.0","0","0","80773","","null","","","null","3","NaN","","","","","","","","","","","","","","",""
"","S2","","html-keyboard-response","27","230016","0.0-1.0-31.0","0","0","80773","","null","","","null","3","","NaN","","","","","","","","","","","","","",""
"","response","","html-keyboard-response","28","230165","0.0-1.0-32.0-0.0","0","0","80773","","148","","","68","3","","","1","3","training","adjacent","BC","2","3","Q.jpg","M.jpg","0","1","0","",""
"","feedback","","html-keyboard-response","29","231168","0.0-1.0-33.0-0.0","0","0","80773","","null","","","null","3","","","","","","","","","","","","","","","",""
"","time_out","","html-keyboard-response","30","233170","0.0-1.0-35.0-0.0","0","0","80773","","null","","","null","3","","","","","","","","","","","","","","","",""
"","ITI","","html-keyboard-response","31","234173","0.0-1.0-36.0","0","0","80773","","null","","","null","3","","","","","","","","","","","","","","","NaN",""
"","S1","","html-keyboard-response","32","234426","0.0-1.0-38.0","0","0","80773","","null","","","null","4","","","","","","","","","","","","","","","",""
"","ISI","","html-keyboard-response","33","234578","0.0-1.0-39.0","0","0","80773","","null","","","null","4","NaN","","","","","","","","","","","","","","",""
"","S2","","html-keyboard-response","34","234831","0.0-1.0-40.0","0","0","80773","","null","","","null","4","","NaN","","","","","","","","","","","","","",""
"","response","","html-keyboard-response","35","234965","0.0-1.0-41.0-0.0","0","0","80773","","133","","","75","4","","","1","4","training","adjacent","FE","6","5","N.jpg","P.jpg","1","0","0","",""
"","feedback","","html-keyboard-response","36","235968","0.0-1.0-42.0-0.0","0","0","80773","","null","","","null","4","","","","","","","","","","","","","","","",""
"","time_out","","html-keyboard-response","37","237971","0.0-1.0-44.0-0.0","0","0","80773","","null","","","null","4","","","","","","","","","","","","","","","",""
"","ITI","","html-keyboard-response","38","238974","0.0-1.0-45.0","0","0","80773","","null","","","null","4","","","","","","","","","","","","","","","NaN",""
"","S1","","html-keyboard-response","39","239227","0.0-1.0-47.0","0","0","80773","","null","","","null","5","","","","","","","","","","","","","","","",""
"","ISI","","html-keyboard-response","40","239380","0.0-1.0-48.0","0","0","80773","","null","","","null","5","NaN","","","","","","","","","","","","","","",""
"","S2","","html-keyboard-response","41","239633","0.0-1.0-49.0","0","0","80773","","null","","","null","5","","NaN","","","","","","","","","","","","","",""
"","response","","html-keyboard-response","42","239669","0.0-1.0-50.0-0.0","0","0","80773","","35","","","75","5","","","1","5","training","adjacent","FG","6","7","N.jpg","R.jpg","1","1","1","",""
"","feedback","","html-keyboard-response","43","240672","0.0-1.0-51.0-0.0","0","0","80773","","null","","","null","5","","","","","","","","","","","","","","","",""
"","ITI","","html-keyboard-response","44","241674","0.0-1.0-54.0","0","0","80773","","null","","","null","5","","","","","","","","","","","","","","","NaN",""
"","S1","","html-keyboard-response","45","241927","0.0-1.0-56.0","0","0","80773","","null","","","null","6","","","","","","","","","","","","","","","",""
"","ISI","","html-keyboard-response","46","242080","0.0-1.0-57.0","0","0","80773","","null","","","null","6","NaN","","","","","","","","","","","","","","",""
"","S2","","html-keyboard-response","47","242335","0.0-1.0-58.0","0","0","80773","","null","","","null","6","","NaN","","","","","","","","","","","","","",""
"","response","","html-keyboard-response","48","242357","0.0-1.0-59.0-0.0","0","0","80773","","20","","","68","6","","","1","6","training","adjacent","CD","3","4","M.jpg","O.jpg","0","1","0","",""
"","feedback","","html-keyboard-response","49","243360","0.0-1.0-60.0-0.0","0","0","80773","","null","","","null","6","","","","","","","","","","","","","","","",""
"","time_out","","html-keyboard-response","50","245364","0.0-1.0-62.0-0.0","0","0","80773","","null","","","null","6","","","","","","","","","","","","","","","",""
"","ITI","","html-keyboard-response","51","246366","0.0-1.0-63.0","0","0","80773","","null","","","null","6","","","","","","","","","","","","","","","NaN",""
"","S1","","html-keyboard-response","52","246619","0.0-1.0-65.0","0","0","80773","","null","","","null","7","","","","","","","","","","","","","","","",""
"","ISI","","html-keyboard-response","53","246772","0.0-1.0-66.0","0","0","80773","","null","","","null","7","NaN","","","","","","","","","","","","","","",""
"","S2","","html-keyboard-response","54","247025","0.0-1.0-67.0","0","0","80773","","null","","","null","7","","NaN","","","","","","","","","","","","","",""
"","response","","html-keyboard-response","55","247047","0.0-1.0-68.0-0.0","0","0","80773","","20","","","68","7","","","1","7","training","adjacent","BC","2","3","Q.jpg","M.jpg","0","1","0","",""
"","feedback","","html-keyboard-response","56","248050","0.0-1.0-69.0-0.0","0","0","80773","","null","","","null","7","","","","","","","","","","","","","","","",""
"","time_out","","html-keyboard-response","57","250052","0.0-1.0-71.0-0.0","0","0","80773","","null","","","null","7","","","","","","","","","","","","","","","",""
"","ITI","","html-keyboard-response","58","251054","0.0-1.0-72.0","0","0","80773","","null","","","null","7","","","","","","","","","","","","","","","NaN",""
"","S1","","html-keyboard-response","59","251307","0.0-1.0-74.0","0","0","80773","","null","","","null","8","","","","","","","","","","","","","","","",""
"","ISI","","html-keyboard-response","60","251460","0.0-1.0-75.0","0","0","80773","","null","","","null","8","NaN","","","","","","","","","","","","","","",""
"","S2","","html-keyboard-response","61","251713","0.0-1.0-76.0","0","0","80773","","null","","","null","8","","NaN","","","","","","","","","","","","","",""
"","response","","html-keyboard-response","62","251943","0.0-1.0-77.0-0.0","0","0","80773","","228","","","75","8","","","1","8","training","adjacent","FG","6","7","N.jpg","R.jpg","1","1","1","",""
"","feedback","","html-keyboard-response","63","252946","0.0-1.0-78.0-0.0","0","0","80773","","null","","","null","8","","","","","","","","","","","","","","","",""
"","ITI","","html-keyboard-response","64","253947","0.0-1.0-81.0","0","0","80773","","null","","","null","8","","","","","","","","","","","","","","","NaN",""
"","S1","","html-keyboard-response","65","254200","0.0-1.0-83.0","0","0","80773","","null","","","null","9","","","","","","","","","","","","","","","",""
"","ISI","","html-keyboard-response","66","254353","0.0-1.0-84.0","0","0","80773","","null","","","null","9","NaN","","","","","","","","","","","","","","",""
"","S2","","html-keyboard-response","67","254606","0.0-1.0-85.0","0","0","80773","","null","","","null","9","","NaN","","","","","","","","","","","","","",""
"","response","","html-keyboard-response","68","254983","0.0-1.0-86.0-0.0","0","0","80773","","376","","","68","9","","","1","9","training","adjacent","GF","7","6","R.jpg","N.jpg","0","0","1","",""
"","feedback","","html-keyboard-response","69","255987","0.0-1.0-87.0-0.0","0","0","80773","","null","","","null","9","","","","","","","","","","","","","","","",""
"","ITI","","html-keyboard-response","70","256995","0.0-1.0-90.0","0","0","80773","","null","","","null","9","","","","","","","","","","","","","","","NaN",""
"","S1","","html-keyboard-response","71","257248","0.0-1.0-92.0","0","0","80773","","null","","","null","10","","","","","","","","","","","","","","","",""
"","ISI","","html-keyboard-response","72","257414","0.0-1.0-93.0","0","0","80773","","null","","","null","10","NaN","","","","","","","","","","","","","","",""
"","S2","","html-keyboard-response","73","257666","0.0-1.0-94.0","0","0","80773","","null","","","null","10","","NaN","","","","","","","","","","","","","",""
"","response","","html-keyboard-response","74","257799","0.0-1.0-95.0-0.0","0","0","80773","","132","","","75","10","","","1","10","training","adjacent","AB","1","2","L.jpg","Q.jpg","1","1","1","",""
"","feedback","","html-keyboard-response","75","258802","0.0-1.0-96.0-0.0","0","0","80773","","null","","","null","10","","","","","","","","","","","","","","","",""
"","ITI","","html-keyboard-response","76","259805","0.0-1.0-99.0","0","0","80773","","null","","","null","10","","","","","","","","","","","","","","","NaN",""
"","S1","","html-keyboard-response","77","260057","0.0-1.0-101.0","0","0","80773","","null","","","null","11","","","","","","","","","","","","","","","",""
"","ISI","","html-keyboard-response","78","260210","0.0-1.0-102.0","0","0","80773","","null","","","null","11","NaN","","","","","","","","","","","","","","",""
"","S2","","html-keyboard-response","79","260463","0.0-1.0-103.0","0","0","80773","","null","","","null","11","","NaN","","","","","","","","","","","","","",""
"","response","","html-keyboard-response","80","260808","0.0-1.0-104.0-0.0","0","0","80773","","343","","","68","11","","","1","11","training","adjacent","FG","6","7","N.jpg","R.jpg","0","1","0","",""
"","feedback","","html-keyboard-response","81","261810","0.0-1.0-105.0-0.0","0","0","80773","","null","","","null","11","","","","","","","","","","","","","","","",""
"","time_out","","html-keyboard-response","82","263813","0.0-1.0-107.0-0.0","0","0","80773","","null","","","null","11","","","","","","","","","","","","","","","",""
"","ITI","","html-keyboard-response","83","264815","0.0-1.0-108.0","0","0","80773","","null","","","null","11","","","","","","","","","","","","","","","NaN",""
"","S1","","html-keyboard-response","84","265067","0.0-1.0-110.0","0","0","80773","","null","","","null","12","","","","","","","","","","","","","","","",""
"","ISI","","html-keyboard-response","85","265228","0.0-1.0-111.0","0","0","80773","","null","","","null","12","NaN","","","","","","","","","","","","","","",""
"","S2","","html-keyboard-response","86","265480","0.0-1.0-112.0","0","0","80773","","null","","","null","12","","NaN","","","","","","","","","","","","","",""
"","response","","html-keyboard-response","87","265751","0.0-1.0-113.0-0.0","0","0","80773","","269","","","68","12","","","1","12","training","adjacent","DC","4","3","O.jpg","M.jpg","0","0","1","",""
"","feedback","","html-keyboard-response","88","266753","0.0-1.0-114.0-0.0","0","0","80773","","null","","","null","12","","","","","","","","","","","","","","","",""
"","ITI","","html-keyboard-response","89","267756","0.0-1.0-117.0","0","0","80773","","null","","","null","12","","","","","","","","","","","","","","","NaN",""
"","S1","","html-keyboard-response","90","268008","0.0-1.0-119.0","0","0","80773","","null","","","null","13","","","","","","","","","","","","","","","",""
"","ISI","","html-keyboard-response","91","268160","0.0-1.0-120.0","0","0","80773","","null","","","null","13","NaN","","","","","","","","","","","","","","",""
"","S2","","html-keyboard-response","92","268412","0.0-1.0-121.0","0","0","80773","","null","","","null","13","","NaN","","","","","","","","","","","","","",""
"","response","","html-keyboard-response","93","268920","0.0-1.0-122.0-0.0","0","0","80773","","505","","","75","13","","","1","13","training","adjacent","BC","2","3","Q.jpg","M.jpg","1","1","1","",""
"","feedback","","html-keyboard-response","94","269922","0.0-1.0-123.0-0.0","0","0","80773","","null","","","null","13","","","","","","","","","","","","","","","",""
"","ITI","","html-keyboard-response","95","270925","0.0-1.0-126.0","0","0","80773","","null","","","null","13","","","","","","","","","","","","","","","NaN",""
"","S1","","html-keyboard-response","96","271177","0.0-1.0-128.0","0","0","80773","","null","","","null","14","","","","","","","","","","","","","","","",""
"","ISI","","html-keyboard-response","97","271337","0.0-1.0-129.0","0","0","80773","","null","","","null","14","NaN","","","","","","","","","","","","","","",""
"","S2","","html-keyboard-response","98","271589","0.0-1.0-130.0","0","0","80773","","null","","","null","14","","NaN","","","","","","","","","","","","","",""
"","response","","html-keyboard-response","99","271911","0.0-1.0-131.0-0.0","0","0","80773","","321","","","75","14","","","1","14","training","adjacent","EF","5","6","P.jpg","N.jpg","1","1","1","",""
"","feedback","","html-keyboard-response","100","272913","0.0-1.0-132.0-0.0","0","0","80773","","null","","","null","14","","","","","","","","","","","","","","","",""
"","ITI","","html-keyboard-response","101","273916","0.0-1.0-135.0","0","0","80773","","null","","","null","14","","","","","","","","","","","","","","","NaN",""
"","S1","","html-keyboard-response","102","274170","0.0-1.0-137.0","0","0","80773","","null","","","null","15","","","","","","","","","","","","","","","",""
"","ISI","","html-keyboard-response","103","274322","0.0-1.0-138.0","0","0","80773","","null","","","null","15","NaN","","","","","","","","","","","","","","",""
"","S2","","html-keyboard-response","104","274575","0.0-1.0-139.0","0","0","80773","","null","","","null","15","","NaN","","","","","","","","","","","","","",""
"","response","","html-keyboard-response","105","274886","0.0-1.0-140.0-0.0","0","0","80773","","310","","","68","15","","","1","15","training","adjacent","FG","6","7","N.jpg","R.jpg","0","1","0","",""
"","feedback","","html-keyboard-response","106","275889","0.0-1.0-141.0-0.0","0","0","80773","","null","","","null","15","","","","","","","","","","","","","","","",""
"","time_out","","html-keyboard-response","107","277892","0.0-1.0-143.0-0.0","0","0","80773","","null","","","null","15","","","","","","","","","","","","","","","",""
"","ITI","","html-keyboard-response","108","278894","0.0-1.0-144.0","0","0","80773","","null","","","null","15","","","","","","","","","","","","","","","NaN",""
"","S1","","html-keyboard-response","109","279146","0.0-1.0-146.0","0","0","80773","","null","","","null","16","","","","","","","","","","","","","","","",""
"","ISI","","html-keyboard-response","110","279304","0.0-1.0-147.0","0","0","80773","","null","","","null","16","NaN","","","","","","","","","","","","","","",""
"","S2","","html-keyboard-response","111","279556","0.0-1.0-148.0","0","0","80773","","null","","","null","16","","NaN","","","","","","","","","","","","","",""
"","response","","html-keyboard-response","112","279959","0.0-1.0-149.0-0.0","0","0","80773","","402","","","75","16","","","1","16","training","adjacent","GF","7","6","R.jpg","N.jpg","1","0","0","",""
"","feedback","","html-keyboard-response","113","280962","0.0-1.0-150.0-0.0","0","0","80773","","null","","","null","16","","","","","","","","","","","","","","","",""
"","time_out","","html-keyboard-response","114","282964","0.0-1.0-152.0-0.0","0","0","80773","","null","","","null","16","","","","","","","","","","","","","","","",""
"","ITI","","html-keyboard-response","115","283967","0.0-1.0-153.0","0","0","80773","","null","","","null","16","","","","","","","","","","","","","","","NaN",""
"","S1","","html-keyboard-response","116","284234","0.0-1.0-155.0","0","0","80773","","null","","","null","17","","","","","","","","","","","","","","","",""
"","ISI","","html-keyboard-response","117","284387","0.0-1.0-156.0","0","0","80773","","null","","","null","17","NaN","","","","","","","","","","","","","","",""
"","S2","","html-keyboard-response","118","284640","0.0-1.0-157.0","0","0","80773","","null","","","null","17","","NaN","","","","","","","","","","","","","",""
"","response","","html-keyboard-response","119","285063","0.0-1.0-158.0-0.0","0","0","80773","","422","","","75","17","","","1","17","training","adjacent","BC","2","3","Q.jpg","M.jpg","1","1","1","",""
"","feedback","","html-keyboard-response","120","286066","0.0-1.0-159.0-0.0","0","0","80773","","null","","","null","17","","","","","","","","","","","","","","","",""
"","ITI","","html-keyboard-response","121","287068","0.0-1.0-162.0","0","0","80773","","null","","","null","17","","","","","","","","","","","","","","","NaN",""
"","S1","","html-keyboard-response","122","287321","0.0-1.0-164.0","0","0","80773","","null","","","null","18","","","","","","","","","","","","","","","",""
"","ISI","","html-keyboard-response","123","287473","0.0-1.0-165.0","0","0","80773","","null","","","null","18","NaN","","","","","","","","","","","","","","",""
"","S2","","html-keyboard-response","124","287727","0.0-1.0-166.0","0","0","80773","","null","","","null","18","","NaN","","","","","","","","","","","","","",""
"","response","","html-keyboard-response","125","288199","0.0-1.0-167.0-0.0","0","0","80773","","471","","","68","18","","","1","18","training","adjacent","DE","4","5","O.jpg","P.jpg","0","1","0","",""
"","feedback","","html-keyboard-response","126","289207","0.0-1.0-168.0-0.0","0","0","80773","","null","","","null","18","","","","","","","","","","","","","","","",""
"","time_out","","html-keyboard-response","127","291211","0.0-1.0-170.0-0.0","0","0","80773","","null","","","null","18","","","","","","","","","","","","","","","",""
"","ITI","","html-keyboard-response","128","292213","0.0-1.0-171.0","0","0","80773","","null","","","null","18","","","","","","","","","","","","","","","NaN",""
"","S1","","html-keyboard-response","129","292465","0.0-1.0-173.0","0","0","80773","","null","","","null","19","","","","","","","","","","","","","","","",""
"","ISI","","html-keyboard-response","130","292617","0.0-1.0-174.0","0","0","80773","","null","","","null","19","NaN","","","","","","","","","","","","","","",""
"","S2","","html-keyboard-response","131","292871","0.0-1.0-175.0","0","0","80773","","null","","","null","19","","NaN","","","","","","","","","","","","","",""
"","response","","html-keyboard-response","132","293159","0.0-1.0-176.0-0.0","0","0","80773","","287","","","75","19","","","1","19","training","adjacent","DE","4","5","O.jpg","P.jpg","1","1","1","",""
"","feedback","","html-keyboard-response","133","294162","0.0-1.0-177.0-0.0","0","0","80773","","null","","","null","19","","","","","","","","","","","","","","","",""
"","ITI","","html-keyboard-response","134","295164","0.0-1.0-180.0","0","0","80773","","null","","","null","19","","","","","","","","","","","","","","","NaN",""
"","S1","","html-keyboard-response","135","295417","0.0-1.0-182.0","0","0","80773","","null","","","null","20","","","","","","","","","","","","","","","",""
"","ISI","","html-keyboard-response","136","295574","0.0-1.0-183.0","0","0","80773","","null","","","null","20","NaN","","","","","","","","","","","","","","",""
"","S2","","html-keyboard-response","137","295826","0.0-1.0-184.0","0","0","80773","","null","","","null","20","","NaN","","","","","","","","","","","","","",""
"","response","","html-keyboard-response","138","296087","0.0-1.0-185.0-0.0","0","0","80773","","260","","","68","20","","","1","20","training","adjacent","CB","3","2","M.jpg","Q.jpg","0","0","1","",""
"","feedback","","html-keyboard-response","139","297090","0.0-1.0-186.0-0.0","0","0","80773","","null","","","null","20","","","","","","","","","","","","","","","",""
"","ITI","","html-keyboard-response","140","298093","0.0-1.0-189.0","0","0","80773","","null","","","null","20","","","","","","","","","","","","","","","NaN",""
"","S1","","html-keyboard-response","141","298346","0.0-1.0-191.0","0","0","80773","","null","","","null","21","","","","","","","","","","","","","","","",""
"","ISI","","html-keyboard-response","142","298498","0.0-1.0-192.0","0","0","80773","","null","","","null","21","NaN","","","","","","","","","","","","","","",""
"","S2","","html-keyboard-response","143","298751","0.0-1.0-193.0","0","0","80773","","null","","","null","21","","NaN","","","","","","","","","","","","","",""
"","response","","html-keyboard-response","144","299079","0.0-1.0-194.0-0.0","0","0","80773","","326","","","75","21","","","1","21","training","adjacent","AB","1","2","L.jpg","Q.jpg","1","1","1","",""
"","feedback","","html-keyboard-response","145","300082","0.0-1.0-195.0-0.0","0","0","80773","","null","","","null","21","","","","","","","","","","","","","","","",""
"","ITI","","html-keyboard-response","146","301084","0.0-1.0-198.0","0","0","80773","","null","","","null","21","","","","","","","","","","","","","","","NaN",""
"","S1","","html-keyboard-response","147","301337","0.0-1.0-200.0","0","0","80773","","null","","","null","22","","","","","","","","","","","","","","","",""
"","ISI","","html-keyboard-response","148","301490","0.0-1.0-201.0","0","0","80773","","null","","","null","22","NaN","","","","","","","","","","","","","","",""
"","S2","","html-keyboard-response","149","301742","0.0-1.0-202.0","0","0","80773","","null","","","null","22","","NaN","","","","","","","","","","","","","",""
"","response","","html-keyboard-response","150","302039","0.0-1.0-203.0-0.0","0","0","80773","","296","","","68","22","","","1","22","training","adjacent","ED","5","4","P.jpg","O.jpg","0","0","1","",""
"","feedback","","html-keyboard-response","151","303053","0.0-1.0-204.0-0.0","0","0","80773","","null","","","null","22","","","","","","","","","","","","","","","",""
"","ITI","","html-keyboard-response","152","304056","0.0-1.0-207.0","0","0","80773","","null","","","null","22","","","","","","","","","","","","","","","NaN",""
"","S1","","html-keyboard-response","153","304309","0.0-1.0-209.0","0","0","80773","","null","","","null","23","","","","","","","","","","","","","","","",""
"","ISI","","html-keyboard-response","154","304461","0.0-1.0-210.0","0","0","80773","","null","","","null","23","NaN","","","","","","","","","","","","","","",""
"","S2","","html-keyboard-response","155","304714","0.0-1.0-211.0","0","0","80773","","null","","","null","23","","NaN","","","","","","","","","","","","","",""
"","response","","html-keyboard-response","156","305127","0.0-1.0-212.0-0.0","0","0","80773","","412","","","75","23","","","1","23","training","adjacent","EF","5","6","P.jpg","N.jpg","1","1","1","",""
"","feedback","","html-keyboard-response","157","306132","0.0-1.0-213.0-0.0","0","0","80773","","null","","","null","23","","","","","","","","","","","","","","","",""
"","ITI","","html-keyboard-response","158","307134","0.0-1.0-216.0","0","0","80773","","null","","","null","23","","","","","","","","","","","","","","","NaN",""
"","S1","","html-keyboard-response","159","307386","0.0-1.0-218.0","0","0","80773","","null","","","null","24","","","","","","","","","","","","","","","",""
"","ISI","","html-keyboard-response","160","307538","0.0-1.0-219.0","0","0","80773","","null","","","null","24","NaN","","","","","","","","","","","","","","",""
"","S2","","html-keyboard-response","161","307792","0.0-1.0-220.0","0","0","80773","","null","","","null","24","","NaN","","","","","","","","","","","","","",""
"","response","","html-keyboard-response","162","308361","0.0-1.0-221.0-0.0","0","0","80773","","568","","","75","24","","","1","24","training","adjacent","BA","2","1","Q.jpg","L.jpg","1","0","0","",""
"","feedback","","html-keyboard-response","163","309363","0.0-1.0-222.0-0.0","0","0","80773","","null","","","null","24","","","","","","","","","","","","","","","",""
"","time_out","","html-keyboard-response","164","311365","0.0-1.0-224.0-0.0","0","0","80773","","null","","","null","24","","","","","","","","","","","","","","","",""
"","ITI","","html-keyboard-response","165","312367","0.0-1.0-225.0","0","0","80773","","null","","","null","24","","","","","","","","","","","","","","","NaN",""
"","S1","","html-keyboard-response","166","312635","0.0-1.0-227.0","0","0","80773","","null","","","null","25","","","","","","","","","","","","","","","",""
"","ISI","","html-keyboard-response","167","312787","0.0-1.0-228.0","0","0","80773","","null","","","null","25","NaN","","","","","","","","","","","","","","",""
"","S2","","html-keyboard-response","168","313040","0.0-1.0-229.0","0","0","80773","","null","","","null","25","","NaN","","","","","","","","","","","","","",""
"","response","","html-keyboard-response","169","313513","0.0-1.0-230.0-0.0","0","0","80773","","471","","","75","25","","","1","25","training","adjacent","ED","5","4","P.jpg","O.jpg","1","0","0","",""
"","feedback","","html-keyboard-response","170","314515","0.0-1.0-231.0-0.0","0","0","80773","","null","","","null","25","","","","","","","","","","","","","","","",""
"","time_out","","html-keyboard-response","171","316519","0.0-1.0-233.0-0.0","0","0","80773","","null","","","null","25","","","","","","","","","","","","","","","",""
"","ITI","","html-keyboard-response","172","317521","0.0-1.0-234.0","0","0","80773","","null","","","null","25","","","","","","","","","","","","","","","NaN",""
"","S1","","html-keyboard-response","173","317774","0.0-1.0-236.0","0","0","80773","","null","","","null","26","","","","","","","","","","","","","","","",""
"","ISI","","html-keyboard-response","174","317926","0.0-1.0-237.0","0","0","80773","","null","","","null","26","NaN","","","","","","","","","","","","","","",""
"","S2","","html-keyboard-response","175","318178","0.0-1.0-238.0","0","0","80773","","null","","","null","26","","NaN","","","","","","","","","","","","","",""
"","response","","html-keyboard-response","176","318665","0.0-1.0-239.0-0.0","0","0","80773","","484","","","75","26","","","1","26","training","adjacent","BA","2","1","Q.jpg","L.jpg","1","0","0","",""
"","feedback","","html-keyboard-response","177","319668","0.0-1.0-240.0-0.0","0","0","80773","","null","","","null","26","","","","","","","","","","","","","","","",""
"","time_out","","html-keyboard-response","178","321669","0.0-1.0-242.0-0.0","0","0","80773","","null","","","null","26","","","","","","","","","","","","","","","",""
"","ITI","","html-keyboard-response","179","322671","0.0-1.0-243.0","0","0","80773","","null","","","null","26","","","","","","","","","","","","","","","NaN",""
"","S1","","html-keyboard-response","180","322924","0.0-1.0-245.0","0","0","80773","","null","","","null","27","","","","","","","","","","","","","","","",""
"","ISI","","html-keyboard-response","181","323076","0.0-1.0-246.0","0","0","80773","","null","","","null","27","NaN","","","","","","","","","","","","","","",""
"","S2","","html-keyboard-response","182","323329","0.0-1.0-247.0","0","0","80773","","null","","","null","27","","NaN","","","","","","","","","","","","","",""
"","response","","html-keyboard-response","183","323689","0.0-1.0-248.0-0.0","0","0","80773","","359","","","68","27","","","1","27","training","adjacent","DC","4","3","O.jpg","M.jpg","0","0","1","",""
"","feedback","","html-keyboard-response","184","324692","0.0-1.0-249.0-0.0","0","0","80773","","null","","","null","27","","","","","","","","","","","","","","","",""
"","ITI","","html-keyboard-response","185","325695","0.0-1.0-252.0","0","0","80773","","null","","","null","27","","","","","","","","","","","","","","","NaN",""
"","S1","","html-keyboard-response","186","325947","0.0-1.0-254.0","0","0","80773","","null","","","null","28","","","","","","","","","","","","","","","",""
"","ISI","","html-keyboard-response","187","326100","0.0-1.0-255.0","0","0","80773","","null","","","null","28","NaN","","","","","","","","","","","","","","",""
"","S2","","html-keyboard-response","188","326353","0.0-1.0-256.0","0","0","80773","","null","","","null","28","","NaN","","","","","","","","","","","","","",""
"","response","","html-keyboard-response","189","326729","0.0-1.0-257.0-0.0","0","0","80773","","375","","","68","28","","","1","28","training","adjacent","FE","6","5","N.jpg","P.jpg","0","0","1","",""
"","feedback","","html-keyboard-response","190","327732","0.0-1.0-258.0-0.0","0","0","80773","","null","","","null","28","","","","","","","","","","","","","","","",""
"","ITI","","html-keyboard-response","191","328734","0.0-1.0-261.0","0","0","80773","","null","","","null","28","","","","","","","","","","","","","","","NaN",""
"","S1","","html-keyboard-response","192","328986","0.0-1.0-263.0","0","0","80773","","null","","","null","29","","","","","","","","","","","","","","","",""
"","ISI","","html-keyboard-response","193","329138","0.0-1.0-264.0","0","0","80773","","null","","","null","29","NaN","","","","","","","","","","","","","","",""
"","S2","","html-keyboard-response","194","329391","0.0-1.0-265.0","0","0","80773","","null","","","null","29","","NaN","","","","","","","","","","","","","",""
"","response","","html-keyboard-response","195","329721","0.0-1.0-266.0-0.0","0","0","80773","","329","","","75","29","","","1","29","training","adjacent","CB","3","2","M.jpg","Q.jpg","1","0","0","",""
"","feedback","","html-keyboard-response","196","330724","0.0-1.0-267.0-0.0","0","0","80773","","null","","","null","29","","","","","","","","","","","","","","","",""
"","time_out","","html-keyboard-response","197","332726","0.0-1.0-269.0-0.0","0","0","80773","","null","","","null","29","","","","","","","","","","","","","","","",""
"","ITI","","html-keyboard-response","198","333729","0.0-1.0-270.0","0","0","80773","","null","","","null","29","","","","","","","","","","","","","","","NaN",""
"","S1","","html-keyboard-response","199","333981","0.0-1.0-272.0","0","0","80773","","null","","","null","30","","","","","","","","","","","","","","","",""
"","ISI","","html-keyboard-response","200","334134","0.0-1.0-273.0","0","0","80773","","null","","","null","30","NaN","","","","","","","","","","","","","","",""
"","S2","","html-keyboard-response","201","334386","0.0-1.0-274.0","0","0","80773","","null","","","null","30","","NaN","","","","","","","","","","","","","",""
"","response","","html-keyboard-response","202","334920","0.0-1.0-275.0-0.0","0","0","80773","","533","","","68","30","","","1","30","training","adjacent","CD","3","4","M.jpg","O.jpg","0","1","0","",""
"","feedback","","html-keyboard-response","203","335924","0.0-1.0-276.0-0.0","0","0","80773","","null","","","null","30","","","","","","","","","","","","","","","",""
"","time_out","","html-keyboard-response","204","337927","0.0-1.0-278.0-0.0","0","0","80773","","null","","","null","30","","","","","","","","","","","","","","","",""
"","ITI","","html-keyboard-response","205","338930","0.0-1.0-279.0","0","0","80773","","null","","","null","30","","","","","","","","","","","","","","","NaN",""
"","S1","","html-keyboard-response","206","339183","0.0-1.0-281.0","0","0","80773","","null","","","null","31","","","","","","","","","","","","","","","",""
"","ISI","","html-keyboard-response","207","339335","0.0-1.0-282.0","0","0","80773","","null","","","null","31","NaN","","","","","","","","","","","","","","",""
"","S2","","html-keyboard-response","208","339588","0.0-1.0-283.0","0","0","80773","","null","","","null","31","","NaN","","","","","","","","","","","","","",""
"","response","","html-keyboard-response","209","340009","0.0-1.0-284.0-0.0","0","0","80773","","419","","","75","31","","","1","31","training","adjacent","CB","3","2","M.jpg","Q.jpg","1","0","0","",""
"","feedback","","html-keyboard-response","210","341012","0.0-1.0-285.0-0.0","0","0","80773","","null","","","null","31","","","","","","","","","","","","","","","",""
"","time_out","","html-keyboard-response","211","343014","0.0-1.0-287.0-0.0","0","0","80773","","null","","","null","31","","","","","","","","","","","","","","","",""
"","ITI","","html-keyboard-response","212","344017","0.0-1.0-288.0","0","0","80773","","null","","","null","31","","","","","","","","","","","","","","","NaN",""
"","S1","","html-keyboard-response","213","344270","0.0-1.0-290.0","0","0","80773","","null","","","null","32","","","","","","","","","","","","","","","",""
"","ISI","","html-keyboard-response","214","344423","0.0-1.0-291.0","0","0","80773","","null","","","null","32","NaN","","","","","","","","","","","","","","",""
"","S2","","html-keyboard-response","215","344676","0.0-1.0-292.0","0","0","80773","","null","","","null","32","","NaN","","","","","","","","","","","","","",""
"","response","","html-keyboard-response","216","344905","0.0-1.0-293.0-0.0","0","0","80773","","228","","","75","32","","","1","32","training","adjacent","CB","3","2","M.jpg","Q.jpg","1","0","0","",""
"","feedback","","html-keyboard-response","217","345907","0.0-1.0-294.0-0.0","0","0","80773","","null","","","null","32","","","","","","","","","","","","","","","",""
"","time_out","","html-keyboard-response","218","347910","0.0-1.0-296.0-0.0","0","0","80773","","null","","","null","32","","","","","","","","","","","","","","","",""
"","ITI","","html-keyboard-response","219","348913","0.0-1.0-297.0","0","0","80773","","null","","","null","32","","","","","","","","","","","","","","","NaN",""
"","S1","","html-keyboard-response","220","349165","0.0-1.0-299.0","0","0","80773","","null","","","null","33","","","","","","","","","","","","","","","",""
"","ISI","","html-keyboard-response","221","349316","0.0-1.0-300.0","0","0","80773","","null","","","null","33","NaN","","","","","","","","","","","","","","",""
"","S2","","html-keyboard-response","222","349569","0.0-1.0-301.0","0","0","80773","","null","","","null","33","","NaN","","","","","","","","","","","","","",""
"","response","","html-keyboard-response","223","349961","0.0-1.0-302.0-0.0","0","0","80773","","390","","","68","33","","","1","33","training","adjacent","GF","7","6","R.jpg","N.jpg","0","0","1","",""
"","feedback","","html-keyboard-response","224","350963","0.0-1.0-303.0-0.0","0","0","80773","","null","","","null","33","","","","","","","","","","","","","","","",""
"","ITI","","html-keyboard-response","225","351965","0.0-1.0-306.0","0","0","80773","","null","","","null","33","","","","","","","","","","","","","","","NaN",""
"","S1","","html-keyboard-response","226","352218","0.0-1.0-308.0","0","0","80773","","null","","","null","34","","","","","","","","","","","","","","","",""
"","ISI","","html-keyboard-response","227","352371","0.0-1.0-309.0","0","0","80773","","null","","","null","34","NaN","","","","","","","","","","","","","","",""
"","S2","","html-keyboard-response","228","352623","0.0-1.0-310.0","0","0","80773","","null","","","null","34","","NaN","","","","","","","","","","","","","",""
"","response","","html-keyboard-response","229","353049","0.0-1.0-311.0-0.0","0","0","80773","","424","","","68","34","","","1","34","training","adjacent","FE","6","5","N.jpg","P.jpg","0","0","1","",""
"","feedback","","html-keyboard-response","230","354052","0.0-1.0-312.0-0.0","0","0","80773","","null","","","null","34","","","","","","","","","","","","","","","",""
"","ITI","","html-keyboard-response","231","355054","0.0-1.0-315.0","0","0","80773","","null","","","null","34","","","","","","","","","","","","","","","NaN",""
"","S1","","html-keyboard-response","232","355306","0.0-1.0-317.0","0","0","80773","","null","","","null","35","","","","","","","","","","","","","","","",""
"","ISI","","html-keyboard-response","233","355459","0.0-1.0-318.0","0","0","80773","","null","","","null","35","NaN","","","","","","","","","","","","","","",""
"","S2","","html-keyboard-response","234","355712","0.0-1.0-319.0","0","0","80773","","null","","","null","35","","NaN","","","","","","","","","","","","","",""
"","response","","html-keyboard-response","235","356137","0.0-1.0-320.0-0.0","0","0","80773","","424","","","68","35","","","1","35","training","adjacent","DE","4","5","O.jpg","P.jpg","0","1","0","",""
"","feedback","","html-keyboard-response","236","357140","0.0-1.0-321.0-0.0","0","0","80773","","null","","","null","35","","","","","","","","","","","","","","","",""
"","time_out","","html-keyboard-response","237","359143","0.0-1.0-323.0-0.0","0","0","80773","","null","","","null","35","","","","","","","","","","","","","","","",""
"","ITI","","html-keyboard-response","238","360145","0.0-1.0-324.0","0","0","80773","","null","","","null","35","","","","","","","","","","","","","","","NaN",""
"","S1","","html-keyboard-response","239","360398","0.0-1.0-326.0","0","0","80773","","null","","","null","36","","","","","","","","","","","","","","","",""
"","ISI","","html-keyboard-response","240","360553","0.0-1.0-327.0","0","0","80773","","null","","","null","36","NaN","","","","","","","","","","","","","","",""
"","S2","","html-keyboard-response","241","360806","0.0-1.0-328.0","0","0","80773","","null","","","null","36","","NaN","","","","","","","","","","","","","",""
"","response","","html-keyboard-response","242","361240","0.0-1.0-329.0-0.0","0","0","80773","","432","","","75","36","","","1","36","training","adjacent","ED","5","4","P.jpg","O.jpg","1","0","0","",""
"","feedback","","html-keyboard-response","243","362246","0.0-1.0-330.0-0.0","0","0","80773","","null","","","null","36","","","","","","","","","","","","","","","",""
"","time_out","","html-keyboard-response","244","364250","0.0-1.0-332.0-0.0","0","0","80773","","null","","","null","36","","","","","","","","","","","","","","","",""
"","ITI","","html-keyboard-response","245","365253","0.0-1.0-333.0","0","0","80773","","null","","","null","36","","","","","","","","","","","","","","","NaN",""
"","S1","","html-keyboard-response","246","365505","0.0-1.0-335.0","0","0","80773","","null","","","null","37","","","","","","","","","","","","","","","",""
"","ISI","","html-keyboard-response","247","365657","0.0-1.0-336.0","0","0","80773","","null","","","null","37","NaN","","","","","","","","","","","","","","",""
"","S2","","html-keyboard-response","248","365911","0.0-1.0-337.0","0","0","80773","","null","","","null","37","","NaN","","","","","","","","","","","","","",""
"","response","","html-keyboard-response","249","366426","0.0-1.0-338.0-0.0","0","0","80773","","514","","","68","37","","","1","37","training","adjacent","BA","2","1","Q.jpg","L.jpg","0","0","1","",""
"","feedback","","html-keyboard-response","250","367429","0.0-1.0-339.0-0.0","0","0","80773","","null","","","null","37","","","","","","","","","","","","","","","",""
"","ITI","","html-keyboard-response","251","368432","0.0-1.0-342.0","0","0","80773","","null","","","null","37","","","","","","","","","","","","","","","NaN",""
"","S1","","html-keyboard-response","252","368685","0.0-1.0-344.0","0","0","80773","","null","","","null","38","","","","","","","","","","","","","","","",""
"","ISI","","html-keyboard-response","253","368837","0.0-1.0-345.0","0","0","80773","","null","","","null","38","NaN","","","","","","","","","","","","","","",""
"","S2","","html-keyboard-response","254","369091","0.0-1.0-346.0","0","0","80773","","null","","","null","38","","NaN","","","","","","","","","","","","","",""
"","response","","html-keyboard-response","255","369562","0.0-1.0-347.0-0.0","0","0","80773","","469","","","75","38","","","1","38","training","adjacent","FE","6","5","N.jpg","P.jpg","1","0","0","",""
"","feedback","","html-keyboard-response","256","370564","0.0-1.0-348.0-0.0","0","0","80773","","null","","","null","38","","","","","","","","","","","","","","","",""
"","time_out","","html-keyboard-response","257","372567","0.0-1.0-350.0-0.0","0","0","80773","","null","","","null","38","","","","","","","","","","","","","","","",""
"","ITI","","html-keyboard-response","258","373570","0.0-1.0-351.0","0","0","80773","","null","","","null","38","","","","","","","","","","","","","","","NaN",""
"","S1","","html-keyboard-response","259","373823","0.0-1.0-353.0","0","0","80773","","null","","","null","39","","","","","","","","","","","","","","","",""
"","ISI","","html-keyboard-response","260","373976","0.0-1.0-354.0","0","0","80773","","null","","","null","39","NaN","","","","","","","","","","","","","","",""
"","S2","","html-keyboard-response","261","374228","0.0-1.0-355.0","0","0","80773","","null","","","null","39","","NaN","","","","","","","","","","","","","",""
"","response","","html-keyboard-response","262","374634","0.0-1.0-356.0-0.0","0","0","80773","","404","","","68","39","","","1","39","training","adjacent","ED","5","4","P.jpg","O.jpg","0","0","1","",""
"","feedback","","html-keyboard-response","263","375637","0.0-1.0-357.0-0.0","0","0","80773","","null","","","null","39","","","","","","","","","","","","","","","",""
"","ITI","","html-keyboard-response","264","376640","0.0-1.0-360.0","0","0","80773","","null","","","null","39","","","","","","","","","","","","","","","NaN",""
"","S1","","html-keyboard-response","265","376892","0.0-1.0-362.0","0","0","80773","","null","","","null","40","","","","","","","","","","","","","","","",""
"","ISI","","html-keyboard-response","266","377045","0.0-1.0-363.0","0","0","80773","","null","","","null","40","NaN","","","","","","","","","","","","","","",""
"","S2","","html-keyboard-response","267","377297","0.0-1.0-364.0","0","0","80773","","null","","","null","40","","NaN","","","","","","","","","","","","","",""
"","response","","html-keyboard-response","268","377834","0.0-1.0-365.0-0.0","0","0","80773","","535","","","68","40","","","1","40","training","adjacent","DC","4","3","O.jpg","M.jpg","0","0","1","",""
"","feedback","","html-keyboard-response","269","378836","0.0-1.0-366.0-0.0","0","0","80773","","null","","","null","40","","","","","","","","","","","","","","","",""
"","ITI","","html-keyboard-response","270","379840","0.0-1.0-369.0","0","0","80773","","null","","","null","40","","","","","","","","","","","","","","","NaN",""
"","S1","","html-keyboard-response","271","380107","0.0-1.0-371.0","0","0","80773","","null","","","null","41","","","","","","","","","","","","","","","",""
"","ISI","","html-keyboard-response","272","380259","0.0-1.0-372.0","0","0","80773","","null","","","null","41","NaN","","","","","","","","","","","","","","",""
"","S2","","html-keyboard-response","273","380527","0.0-1.0-373.0","0","0","80773","","null","","","null","41","","NaN","","","","","","","","","","","","","",""
"","response","","html-keyboard-response","274","381002","0.0-1.0-374.0-0.0","0","0","80773","","474","","","68","41","","","1","41","training","adjacent","CD","3","4","M.jpg","O.jpg","0","1","0","",""
"","feedback","","html-keyboard-response","275","382005","0.0-1.0-375.0-0.0","0","0","80773","","null","","","null","41","","","","","","","","","","","","","","","",""
"","time_out","","html-keyboard-response","276","384008","0.0-1.0-377.0-0.0","0","0","80773","","null","","","null","41","","","","","","","","","","","","","","","",""
"","ITI","","html-keyboard-response","277","385011","0.0-1.0-378.0","0","0","80773","","null","","","null","41","","","","","","","","","","","","","","","NaN",""
"","S1","","html-keyboard-response","278","385263","0.0-1.0-380.0","0","0","80773","","null","","","null","42","","","","","","","","","","","","","","","",""
"","ISI","","html-keyboard-response","279","385416","0.0-1.0-381.0","0","0","80773","","null","","","null","42","NaN","","","","","","","","","","","","","","",""
"","S2","","html-keyboard-response","280","385668","0.0-1.0-382.0","0","0","80773","","null","","","null","42","","NaN","","","","","","","","","","","","","",""
"","response","","html-keyboard-response","281","386107","0.0-1.0-383.0-0.0","0","0","80773","","436","","","75","42","","","1","42","training","adjacent","CD","3","4","M.jpg","O.jpg","1","1","1","",""
"","feedback","","html-keyboard-response","282","387109","0.0-1.0-384.0-0.0","0","0","80773","","null","","","null","42","","","","","","","","","","","","","","","",""
"","ITI","","html-keyboard-response","283","388112","0.0-1.0-387.0","0","0","80773","","null","","","null","42","","","","","","","","","","","","","","","NaN",""
"","S1","","html-keyboard-response","284","388364","0.0-1.0-389.0","0","0","80773","","null","","","null","43","","","","","","","","","","","","","","","",""
"","ISI","","html-keyboard-response","285","388516","0.0-1.0-390.0","0","0","80773","","null","","","null","43","NaN","","","","","","","","","","","","","","",""
"","S2","","html-keyboard-response","286","388769","0.0-1.0-391.0","0","0","80773","","null","","","null","43","","NaN","","","","","","","","","","","","","",""
"","response","","html-keyboard-response","287","389339","0.0-1.0-392.0-0.0","0","0","80773","","567","","","68","43","","","1","43","training","adjacent","DE","4","5","O.jpg","P.jpg","0","1","0","",""
"","feedback","","html-keyboard-response","288","390343","0.0-1.0-393.0-0.0","0","0","80773","","null","","","null","43","","","","","","","","","","","","","","","",""
"","time_out","","html-keyboard-response","289","392345","0.0-1.0-395.0-0.0","0","0","80773","","null","","","null","43","","","","","","","","","","","","","","","",""
"","ITI","","html-keyboard-response","290","393348","0.0-1.0-396.0","0","0","80773","","null","","","null","43","","","","","","","","","","","","","","","NaN",""
"","S1","","html-keyboard-response","291","393601","0.0-1.0-398.0","0","0","80773","","null","","","null","44","","","","","","","","","","","","","","","",""
"","ISI","","html-keyboard-response","292","393754","0.0-1.0-399.0","0","0","80773","","null","","","null","44","NaN","","","","","","","","","","","","","","",""
"","S2","","html-keyboard-response","293","394007","0.0-1.0-400.0","0","0","80773","","null","","","null","44","","NaN","","","","","","","","","","","","","",""
"","response","","html-keyboard-response","294","394619","0.0-1.0-401.0-0.0","0","0","80773","","611","","","75","44","","","1","44","training","adjacent","EF","5","6","P.jpg","N.jpg","1","1","1","",""
"","feedback","","html-keyboard-response","295","395625","0.0-1.0-402.0-0.0","0","0","80773","","null","","","null","44","","","","","","","","","","","","","","","",""
"","ITI","","html-keyboard-response","296","396628","0.0-1.0-405.0","0","0","80773","","null","","","null","44","","","","","","","","","","","","","","","NaN",""
"","S1","","html-keyboard-response","297","396881","0.0-1.0-407.0","0","0","80773","","null","","","null","45","","","","","","","","","","","","","","","",""
"","ISI","","html-keyboard-response","298","397033","0.0-1.0-408.0","0","0","80773","","null","","","null","45","NaN","","","","","","","","","","","","","","",""
"","S2","","html-keyboard-response","299","397285","0.0-1.0-409.0","0","0","80773","","null","","","null","45","","NaN","","","","","","","","","","","","","",""
"","response","","html-keyboard-response","300","397978","0.0-1.0-410.0-0.0","0","0","80773","","691","","","68","45","","","1","45","training","adjacent","EF","5","6","P.jpg","N.jpg","0","1","0","",""
"","feedback","","html-keyboard-response","301","398980","0.0-1.0-411.0-0.0","0","0","80773","","null","","","null","45","","","","","","","","","","","","","","","",""
"","time_out","","html-keyboard-response","302","400983","0.0-1.0-413.0-0.0","0","0","80773","","null","","","null","45","","","","","","","","","","","","","","","",""
"","ITI","","html-keyboard-response","303","401985","0.0-1.0-414.0","0","0","80773","","null","","","null","45","","","","","","","","","","","","","","","NaN",""
"","S1","","html-keyboard-response","304","402238","0.0-1.0-416.0","0","0","80773","","null","","","null","46","","","","","","","","","","","","","","","",""
"","ISI","","html-keyboard-response","305","402390","0.0-1.0-417.0","0","0","80773","","null","","","null","46","NaN","","","","","","","","","","","","","","",""
"","S2","","html-keyboard-response","306","402643","0.0-1.0-418.0","0","0","80773","","null","","","null","46","","NaN","","","","","","","","","","","","","",""
"","response","","html-keyboard-response","307","403130","0.0-1.0-419.0-0.0","0","0","80773","","486","","","68","46","","","1","46","training","adjacent","AB","1","2","L.jpg","Q.jpg","0","1","0","",""
"","feedback","","html-keyboard-response","308","404133","0.0-1.0-420.0-0.0","0","0","80773","","null","","","null","46","","","","","","","","","","","","","","","",""
"","time_out","","html-keyboard-response","309","406136","0.0-1.0-422.0-0.0","0","0","80773","","null","","","null","46","","","","","","","","","","","","","","","",""
"","ITI","","html-keyboard-response","310","407139","0.0-1.0-423.0","0","0","80773","","null","","","null","46","","","","","","","","","","","","","","","NaN",""
"","S1","","html-keyboard-response","311","407404","0.0-1.0-425.0","0","0","80773","","null","","","null","47","","","","","","","","","","","","","","","",""
"","ISI","","html-keyboard-response","312","407557","0.0-1.0-426.0","0","0","80773","","null","","","null","47","NaN","","","","","","","","","","","","","","",""
"","S2","","html-keyboard-response","313","407810","0.0-1.0-427.0","0","0","80773","","null","","","null","47","","NaN","","","","","","","","","","","","","",""
"","response","","html-keyboard-response","314","408362","0.0-1.0-428.0-0.0","0","0","80773","","551","","","75","47","","","1","47","training","adjacent","BA","2","1","Q.jpg","L.jpg","1","0","0","",""
"","feedback","","html-keyboard-response","315","409365","0.0-1.0-429.0-0.0","0","0","80773","","null","","","null","47","","","","","","","","","","","","","","","",""
"","time_out","","html-keyboard-response","316","411367","0.0-1.0-431.0-0.0","0","0","80773","","null","","","null","47","","","","","","","","","","","","","","","",""
"","ITI","","html-keyboard-response","317","412369","0.0-1.0-432.0","0","0","80773","","null","","","null","47","","","","","","","","","","","","","","","NaN",""
"","block_over","","html-keyboard-response","318","422314","0.0-1.0-433.0-0.0","0","0","80773","","9943","","","32","47","","","","","","","","","","","","","","","",""
"","S1","","html-keyboard-response","319","422567","0.0-1.0-434.0","0","0","80773","","null","","","null","48","","","","","","","","","","","","","","","",""
"","ISI","","html-keyboard-response","320","422719","0.0-1.0-435.0","0","0","80773","","null","","","null","48","NaN","","","","","","","","","","","","","","",""
"","S2","","html-keyboard-response","321","422972","0.0-1.0-436.0","0","0","80773","","null","","","null","48","","NaN","","","","","","","","","","","","","",""
"","response","","html-keyboard-response","322","423706","0.0-1.0-437.0-0.0","0","0","80773","","733","","","75","48","","","2","48","training","adjacent","ED","5","4","P.jpg","O.jpg","1","0","0","",""
"","feedback","","html-keyboard-response","323","424709","0.0-1.0-438.0-0.0","0","0","80773","","null","","","null","48","","","","","","","","","","","","","","","",""
"","time_out","","html-keyboard-response","324","426714","0.0-1.0-440.0-0.0","0","0","80773","","null","","","null","48","","","","","","","","","","","","","","","",""
"","ITI","","html-keyboard-response","325","427716","0.0-1.0-441.0","0","0","80773","","null","","","null","48","","","","","","","","","","","","","","","NaN",""
"","S1","","html-keyboard-response","326","427969","0.0-1.0-443.0","0","0","80773","","null","","","null","49","","","","","","","","","","","","","","","",""
"","ISI","","html-keyboard-response","327","428120","0.0-1.0-444.0","0","0","80773","","null","","","null","49","NaN","","","","","","","","","","","","","","",""
"","S2","","html-keyboard-response","328","428374","0.0-1.0-445.0","0","0","80773","","null","","","null","49","","NaN","","","","","","","","","","","","","",""
"","response","","html-keyboard-response","329","428860","0.0-1.0-446.0-0.0","0","0","80773","","485","","","68","49","","","2","49","training","adjacent","ED","5","4","P.jpg","O.jpg","0","0","1","",""
"","feedback","","html-keyboard-response","330","429862","0.0-1.0-447.0-0.0","0","0","80773","","null","","","null","49","","","","","","","","","","","","","","","",""
"","ITI","","html-keyboard-response","331","430868","0.0-1.0-450.0","0","0","80773","","null","","","null","49","","","","","","","","","","","","","","","NaN",""
"","S1","","html-keyboard-response","332","431121","0.0-1.0-452.0","0","0","80773","","null","","","null","50","","","","","","","","","","","","","","","",""
"","ISI","","html-keyboard-response","333","431273","0.0-1.0-453.0","0","0","80773","","null","","","null","50","NaN","","","","","","","","","","","","","","",""
"","S2","","html-keyboard-response","334","431525","0.0-1.0-454.0","0","0","80773","","null","","","null","50","","NaN","","","","","","","","","","","","","",""
"","response","","html-keyboard-response","335","432044","0.0-1.0-455.0-0.0","0","0","80773","","517","","","68","50","","","2","50","training","adjacent","BC","2","3","Q.jpg","M.jpg","0","1","0","",""
"","feedback","","html-keyboard-response","336","433047","0.0-1.0-456.0-0.0","0","0","80773","","null","","","null","50","","","","","","","","","","","","","","","",""
"","time_out","","html-keyboard-response","337","435049","0.0-1.0-458.0-0.0","0","0","80773","","null","","","null","50","","","","","","","","","","","","","","","",""
"","ITI","","html-keyboard-response","338","436051","0.0-1.0-459.0","0","0","80773","","null","","","null","50","","","","","","","","","","","","","","","NaN",""
"","S1","","html-keyboard-response","339","436310","0.0-1.0-461.0","0","0","80773","","null","","","null","51","","","","","","","","","","","","","","","",""
"","ISI","","html-keyboard-response","340","436463","0.0-1.0-462.0","0","0","80773","","null","","","null","51","NaN","","","","","","","","","","","","","","",""
"","S2","","html-keyboard-response","341","436715","0.0-1.0-463.0","0","0","80773","","null","","","null","51","","NaN","","","","","","","","","","","","","",""
"","response","","html-keyboard-response","342","437212","0.0-1.0-464.0-0.0","0","0","80773","","496","","","75","51","","","2","51","training","adjacent","CD","3","4","M.jpg","O.jpg","1","1","1","",""
"","feedback","","html-keyboard-response","343","438215","0.0-1.0-465.0-0.0","0","0","80773","","null","","","null","51","","","","","","","","","","","","","","","",""
"","ITI","","html-keyboard-response","344","439217","0.0-1.0-468.0","0","0","80773","","null","","","null","51","","","","","","","","","","","","","","","NaN",""
"","S1","","html-keyboard-response","345","439470","0.0-1.0-470.0","0","0","80773","","null","","","null","52","","","","","","","","","","","","","","","",""
"","ISI","","html-keyboard-response","346","439622","0.0-1.0-471.0","0","0","80773","","null","","","null","52","NaN","","","","","","","","","","","","","","",""
"","S2","","html-keyboard-response","347","439876","0.0-1.0-472.0","0","0","80773","","null","","","null","52","","NaN","","","","","","","","","","","","","",""
"","response","","html-keyboard-response","348","440444","0.0-1.0-473.0-0.0","0","0","80773","","567","","","75","52","","","2","52","training","adjacent","BA","2","1","Q.jpg","L.jpg","1","0","0","",""
"","feedback","","html-keyboard-response","349","441447","0.0-1.0-474.0-0.0","0","0","80773","","null","","","null","52","","","","","","","","","","","","","","","",""
"","time_out","","html-keyboard-response","350","443449","0.0-1.0-476.0-0.0","0","0","80773","","null","","","null","52","","","","","","","","","","","","","","","",""
"","ITI","","html-keyboard-response","351","444451","0.0-1.0-477.0","0","0","80773","","null","","","null","52","","","","","","","","","","","","","","","NaN",""
"","S1","","html-keyboard-response","352","444717","0.0-1.0-479.0","0","0","80773","","null","","","null","53","","","","","","","","","","","","","","","",""
"","ISI","","html-keyboard-response","353","444869","0.0-1.0-480.0","0","0","80773","","null","","","null","53","NaN","","","","","","","","","","","","","","",""
"","S2","","html-keyboard-response","354","445122","0.0-1.0-481.0","0","0","80773","","null","","","null","53","","NaN","","","","","","","","","","","","","",""
"","response","","html-keyboard-response","355","445644","0.0-1.0-482.0-0.0","0","0","80773","","520","","","68","53","","","2","53","training","adjacent","DE","4","5","O.jpg","P.jpg","0","1","0","",""
"","feedback","","html-keyboard-response","356","446659","0.0-1.0-483.0-0.0","0","0","80773","","null","","","null","53","","","","","","","","","","","","","","","",""
"","time_out","","html-keyboard-response","357","448661","0.0-1.0-485.0-0.0","0","0","80773","","null","","","null","53","","","","","","","","","","","","","","","",""
"","ITI","","html-keyboard-response","358","449665","0.0-1.0-486.0","0","0","80773","","null","","","null","53","","","","","","","","","","","","","","","NaN",""
"","S1","","html-keyboard-response","359","449917","0.0-1.0-488.0","0","0","80773","","null","","","null","54","","","","","","","","","","","","","","","",""
"","ISI","","html-keyboard-response","360","450070","0.0-1.0-489.0","0","0","80773","","null","","","null","54","NaN","","","","","","","","","","","","","","",""
"","S2","","html-keyboard-response","361","450323","0.0-1.0-490.0","0","0","80773","","null","","","null","54","","NaN","","","","","","","","","","","","","",""
"","response","","html-keyboard-response","362","450988","0.0-1.0-491.0-0.0","0","0","80773","","664","","","75","54","","","2","54","training","adjacent","ED","5","4","P.jpg","O.jpg","1","0","0","",""
"","feedback","","html-keyboard-response","363","451991","0.0-1.0-492.0-0.0","0","0","80773","","null","","","null","54","","","","","","","","","","","","","","","",""
"","time_out","","html-keyboard-response","364","453994","0.0-1.0-494.0-0.0","0","0","80773","","null","","","null","54","","","","","","","","","","","","","","","",""
"","ITI","","html-keyboard-response","365","454996","0.0-1.0-495.0","0","0","80773","","null","","","null","54","","","","","","","","","","","","","","","NaN",""
"","S1","","html-keyboard-response","366","455249","0.0-1.0-497.0","0","0","80773","","null","","","null","55","","","","","","","","","","","","","","","",""
"","ISI","","html-keyboard-response","367","455401","0.0-1.0-498.0","0","0","80773","","null","","","null","55","NaN","","","","","","","","","","","","","","",""
"","S2","","html-keyboard-response","368","455659","0.0-1.0-499.0","0","0","80773","","null","","","null","55","","NaN","","","","","","","","","","","","","",""
"","response","","html-keyboard-response","369","456189","0.0-1.0-500.0-0.0","0","0","80773","","528","","","68","55","","","2","55","training","adjacent","AB","1","2","L.jpg","Q.jpg","0","1","0","",""
"","feedback","","html-keyboard-response","370","457193","0.0-1.0-501.0-0.0","0","0","80773","","null","","","null","55","","","","","","","","","","","","","","","",""
"","time_out","","html-keyboard-response","371","459196","0.0-1.0-503.0-0.0","0","0","80773","","null","","","null","55","","","","","","","","","","","","","","","",""
"","ITI","","html-keyboard-response","372","460199","0.0-1.0-504.0","0","0","80773","","null","","","null","55","","","","","","","","","","","","","","","NaN",""
"","S1","","html-keyboard-response","373","460460","0.0-1.0-506.0","0","0","80773","","null","","","null","56","","","","","","","","","","","","","","","",""
"","ISI","","html-keyboard-response","374","460614","0.0-1.0-507.0","0","0","80773","","null","","","null","56","NaN","","","","","","","","","","","","","","",""
"","S2","","html-keyboard-response","375","460866","0.0-1.0-508.0","0","0","80773","","null","","","null","56","","NaN","","","","","","","","","","","","","",""
"","response","","html-keyboard-response","376","461356","0.0-1.0-509.0-0.0","0","0","80773","","489","","","68","56","","","2","56","training","adjacent","CD","3","4","M.jpg","O.jpg","0","1","0","",""
"","feedback","","html-keyboard-response","377","462360","0.0-1.0-510.0-0.0","0","0","80773","","null","","","null","56","","","","","","","","","","","","","","","",""
"","time_out","","html-keyboard-response","378","464363","0.0-1.0-512.0-0.0","0","0","80773","","null","","","null","56","","","","","","","","","","","","","","","",""
"","ITI","","html-keyboard-response","379","465365","0.0-1.0-513.0","0","0","80773","","null","","","null","56","","","","","","","","","","","","","","","NaN",""
"","S1","","html-keyboard-response","380","465617","0.0-1.0-515.0","0","0","80773","","null","","","null","57","","","","","","","","","","","","","","","",""
"","ISI","","html-keyboard-response","381","465770","0.0-1.0-516.0","0","0","80773","","null","","","null","57","NaN","","","","","","","","","","","","","","",""
"","S2","","html-keyboard-response","382","466022","0.0-1.0-517.0","0","0","80773","","null","","","null","57","","NaN","","","","","","","","","","","","","",""
"","response","","html-keyboard-response","383","466460","0.0-1.0-518.0-0.0","0","0","80773","","436","","","75","57","","","2","57","training","adjacent","CB","3","2","M.jpg","Q.jpg","1","0","0","",""
"","feedback","","html-keyboard-response","384","467462","0.0-1.0-519.0-0.0","0","0","80773","","null","","","null","57","","","","","","","","","","","","","","","",""
"","time_out","","html-keyboard-response","385","469465","0.0-1.0-521.0-0.0","0","0","80773","","null","","","null","57","","","","","","","","","","","","","","","",""
"","ITI","","html-keyboard-response","386","470468","0.0-1.0-522.0","0","0","80773","","null","","","null","57","","","","","","","","","","","","","","","NaN",""
"","S1","","html-keyboard-response","387","470720","0.0-1.0-524.0","0","0","80773","","null","","","null","58","","","","","","","","","","","","","","","",""
"","ISI","","html-keyboard-response","388","470872","0.0-1.0-525.0","0","0","80773","","null","","","null","58","NaN","","","","","","","","","","","","","","",""
"","S2","","html-keyboard-response","389","471124","0.0-1.0-526.0","0","0","80773","","null","","","null","58","","NaN","","","","","","","","","","","","","",""
"","response","","html-keyboard-response","390","471533","0.0-1.0-527.0-0.0","0","0","80773","","408","","","75","58","","","2","58","training","adjacent","DE","4","5","O.jpg","P.jpg","1","1","1","",""
"","feedback","","html-keyboard-response","391","472537","0.0-1.0-528.0-0.0","0","0","80773","","null","","","null","58","","","","","","","","","","","","","","","",""
"","ITI","","html-keyboard-response","392","473539","0.0-1.0-531.0","0","0","80773","","null","","","null","58","","","","","","","","","","","","","","","NaN",""
"","S1","","html-keyboard-response","393","473792","0.0-1.0-533.0","0","0","80773","","null","","","null","59","","","","","","","","","","","","","","","",""
"","ISI","","html-keyboard-response","394","473955","0.0-1.0-534.0","0","0","80773","","null","","","null","59","NaN","","","","","","","","","","","","","","",""
"","S2","","html-keyboard-response","395","474207","0.0-1.0-535.0","0","0","80773","","null","","","null","59","","NaN","","","","","","","","","","","","","",""
"","response","","html-keyboard-response","396","474764","0.0-1.0-536.0-0.0","0","0","80773","","556","","","75","59","","","2","59","training","adjacent","FG","6","7","N.jpg","R.jpg","1","1","1","",""
"","feedback","","html-keyboard-response","397","475767","0.0-1.0-537.0-0.0","0","0","80773","","null","","","null","59","","","","","","","","","","","","","","","",""
"","ITI","","html-keyboard-response","398","476769","0.0-1.0-540.0","0","0","80773","","null","","","null","59","","","","","","","","","","","","","","","NaN",""
"","S1","","html-keyboard-response","399","477022","0.0-1.0-542.0","0","0","80773","","null","","","null","60","","","","","","","","","","","","","","","",""
"","ISI","","html-keyboard-response","400","477182","0.0-1.0-543.0","0","0","80773","","null","","","null","60","NaN","","","","","","","","","","","","","","",""
"","S2","","html-keyboard-response","401","477436","0.0-1.0-544.0","0","0","80773","","null","","","null","60","","NaN","","","","","","","","","","","","","",""
"","response","","html-keyboard-response","402","477916","0.0-1.0-545.0-0.0","0","0","80773","","479","","","75","60","","","2","60","training","adjacent","DE","4","5","O.jpg","P.jpg","1","1","1","",""
"","feedback","","html-keyboard-response","403","478919","0.0-1.0-546.0-0.0","0","0","80773","","null","","","null","60","","","","","","","","","","","","","","","",""
"","ITI","","html-keyboard-response","404","479922","0.0-1.0-549.0","0","0","80773","","null","","","null","60","","","","","","","","","","","","","","","NaN",""
"","S1","","html-keyboard-response","405","480176","0.0-1.0-551.0","0","0","80773","","null","","","null","61","","","","","","","","","","","","","","","",""
"","ISI","","html-keyboard-response","406","480329","0.0-1.0-552.0","0","0","80773","","null","","","null","61","NaN","","","","","","","","","","","","","","",""
"","S2","","html-keyboard-response","407","480582","0.0-1.0-553.0","0","0","80773","","null","","","null","61","","NaN","","","","","","","","","","","","","",""
"","response","","html-keyboard-response","408","480972","0.0-1.0-554.0-0.0","0","0","80773","","388","","","75","61","","","2","61","training","adjacent","EF","5","6","P.jpg","N.jpg","1","1","1","",""
"","feedback","","html-keyboard-response","409","481975","0.0-1.0-555.0-0.0","0","0","80773","","null","","","null","61","","","","","","","","","","","","","","","",""
"","ITI","","html-keyboard-response","410","482977","0.0-1.0-558.0","0","0","80773","","null","","","null","61","","","","","","","","","","","","","","","NaN",""
"","S1","","html-keyboard-response","411","483231","0.0-1.0-560.0","0","0","80773","","null","","","null","62","","","","","","","","","","","","","","","",""
"","ISI","","html-keyboard-response","412","483388","0.0-1.0-561.0","0","0","80773","","null","","","null","62","NaN","","","","","","","","","","","","","","",""
"","S2","","html-keyboard-response","413","483640","0.0-1.0-562.0","0","0","80773","","null","","","null","62","","NaN","","","","","","","","","","","","","",""
"","response","","html-keyboard-response","414","484156","0.0-1.0-563.0-0.0","0","0","80773","","515","","","75","62","","","2","62","training","adjacent","FE","6","5","N.jpg","P.jpg","1","0","0","",""
"","feedback","","html-keyboard-response","415","485159","0.0-1.0-564.0-0.0","0","0","80773","","null","","","null","62","","","","","","","","","","","","","","","",""
"","time_out","","html-keyboard-response","416","487164","0.0-1.0-566.0-0.0","0","0","80773","","null","","","null","62","","","","","","","","","","","","","","","",""
"","ITI","","html-keyboard-response","417","488166","0.0-1.0-567.0","0","0","80773","","null","","","null","62","","","","","","","","","","","","","","","NaN",""
"","S1","","html-keyboard-response","418","488419","0.0-1.0-569.0","0","0","80773","","null","","","null","63","","","","","","","","","","","","","","","",""
"","ISI","","html-keyboard-response","419","488572","0.0-1.0-570.0","0","0","80773","","null","","","null","63","NaN","","","","","","","","","","","","","","",""
"","S2","","html-keyboard-response","420","488825","0.0-1.0-571.0","0","0","80773","","null","","","null","63","","NaN","","","","","","","","","","","","","",""
"","response","","html-keyboard-response","421","489198","0.0-1.0-572.0-0.0","0","0","80773","","372","","","68","63","","","2","63","training","adjacent","BA","2","1","Q.jpg","L.jpg","0","0","1","",""
"","feedback","","html-keyboard-response","422","490201","0.0-1.0-573.0-0.0","0","0","80773","","null","","","null","63","","","","","","","","","","","","","","","",""
"","ITI","","html-keyboard-response","423","491206","0.0-1.0-576.0","0","0","80773","","null","","","null","63","","","","","","","","","","","","","","","NaN",""
"","S1","","html-keyboard-response","424","491459","0.0-1.0-578.0","0","0","80773","","null","","","null","64","","","","","","","","","","","","","","","",""
"","ISI","","html-keyboard-response","425","491612","0.0-1.0-579.0","0","0","80773","","null","","","null","64","NaN","","","","","","","","","","","","","","",""
"","S2","","html-keyboard-response","426","491864","0.0-1.0-580.0","0","0","80773","","null","","","null","64","","NaN","","","","","","","","","","","","","",""
"","response","","html-keyboard-response","427","492270","0.0-1.0-581.0-0.0","0","0","80773","","404","","","68","64","","","2","64","training","adjacent","EF","5","6","P.jpg","N.jpg","0","1","0","",""
"","feedback","","html-keyboard-response","428","493274","0.0-1.0-582.0-0.0","0","0","80773","","null","","","null","64","","","","","","","","","","","","","","","",""
"","time_out","","html-keyboard-response","429","495277","0.0-1.0-584.0-0.0","0","0","80773","","null","","","null","64","","","","","","","","","","","","","","","",""
"","ITI","","html-keyboard-response","430","496279","0.0-1.0-585.0","0","0","80773","","null","","","null","64","","","","","","","","","","","","","","","NaN",""
"","S1","","html-keyboard-response","431","496531","0.0-1.0-587.0","0","0","80773","","null","","","null","65","","","","","","","","","","","","","","","",""
"","ISI","","html-keyboard-response","432","496683","0.0-1.0-588.0","0","0","80773","","null","","","null","65","NaN","","","","","","","","","","","","","","",""
"","S2","","html-keyboard-response","433","496937","0.0-1.0-589.0","0","0","80773","","null","","","null","65","","NaN","","","","","","","","","","","","","",""
"","response","","html-keyboard-response","434","497454","0.0-1.0-590.0-0.0","0","0","80773","","515","","","75","65","","","2","65","training","adjacent","GF","7","6","R.jpg","N.jpg","1","0","0","",""
"","feedback","","html-keyboard-response","435","498457","0.0-1.0-591.0-0.0","0","0","80773","","null","","","null","65","","","","","","","","","","","","","","","",""
"","time_out","","html-keyboard-response","436","500459","0.0-1.0-593.0-0.0","0","0","80773","","null","","","null","65","","","","","","","","","","","","","","","",""
"","ITI","","html-keyboard-response","437","501462","0.0-1.0-594.0","0","0","80773","","null","","","null","65","","","","","","","","","","","","","","","NaN",""
"","S1","","html-keyboard-response","438","501714","0.0-1.0-596.0","0","0","80773","","null","","","null","66","","","","","","","","","","","","","","","",""
"","ISI","","html-keyboard-response","439","501867","0.0-1.0-597.0","0","0","80773","","null","","","null","66","NaN","","","","","","","","","","","","","","",""
"","S2","","html-keyboard-response","440","502119","0.0-1.0-598.0","0","0","80773","","null","","","null","66","","NaN","","","","","","","","","","","","","",""
"","response","","html-keyboard-response","441","502445","0.0-1.0-599.0-0.0","0","0","80773","","324","","","68","66","","","2","66","training","adjacent","GF","7","6","R.jpg","N.jpg","0","0","1","",""
"","feedback","","html-keyboard-response","442","503449","0.0-1.0-600.0-0.0","0","0","80773","","null","","","null","66","","","","","","","","","","","","","","","",""
"","ITI","","html-keyboard-response","443","504451","0.0-1.0-603.0","0","0","80773","","null","","","null","66","","","","","","","","","","","","","","","NaN",""
"","S1","","html-keyboard-response","444","504703","0.0-1.0-605.0","0","0","80773","","null","","","null","67","","","","","","","","","","","","","","","",""
"","ISI","","html-keyboard-response","445","504856","0.0-1.0-606.0","0","0","80773","","null","","","null","67","NaN","","","","","","","","","","","","","","",""
"","S2","","html-keyboard-response","446","505109","0.0-1.0-607.0","0","0","80773","","null","","","null","67","","NaN","","","","","","","","","","","","","",""
"","response","","html-keyboard-response","447","505423","0.0-1.0-608.0-0.0","0","0","80773","","312","","","68","67","","","2","67","training","adjacent","DC","4","3","O.jpg","M.jpg","0","0","1","",""
"","feedback","","html-keyboard-response","448","506426","0.0-1.0-609.0-0.0","0","0","80773","","null","","","null","67","","","","","","","","","","","","","","","",""
"","ITI","","html-keyboard-response","449","507429","0.0-1.0-612.0","0","0","80773","","null","","","null","67","","","","","","","","","","","","","","","NaN",""
"","S1","","html-keyboard-response","450","507681","0.0-1.0-614.0","0","0","80773","","null","","","null","68","","","","","","","","","","","","","","","",""
"","ISI","","html-keyboard-response","451","507834","0.0-1.0-615.0","0","0","80773","","null","","","null","68","NaN","","","","","","","","","","","","","","",""
"","S2","","html-keyboard-response","452","508090","0.0-1.0-616.0","0","0","80773","","null","","","null","68","","NaN","","","","","","","","","","","","","",""
"","response","","html-keyboard-response","453","508286","0.0-1.0-617.0-0.0","0","0","80773","","195","","","68","68","","","2","68","training","adjacent","DC","4","3","O.jpg","M.jpg","0","0","1","",""
"","feedback","","html-keyboard-response","454","509289","0.0-1.0-618.0-0.0","0","0","80773","","null","","","null","68","","","","","","","","","","","","","","","",""
"","ITI","","html-keyboard-response","455","510292","0.0-1.0-621.0","0","0","80773","","null","","","null","68","","","","","","","","","","","","","","","NaN",""
"","S1","","html-keyboard-response","456","510545","0.0-1.0-623.0","0","0","80773","","null","","","null","69","","","","","","","","","","","","","","","",""
"","ISI","","html-keyboard-response","457","510697","0.0-1.0-624.0","0","0","80773","","null","","","null","69","NaN","","","","","","","","","","","","","","",""
"","S2","","html-keyboard-response","458","510949","0.0-1.0-625.0","0","0","80773","","null","","","null","69","","NaN","","","","","","","","","","","","","",""
"","response","","html-keyboard-response","459","511183","0.0-1.0-626.0-0.0","0","0","80773","","232","","","68","69","","","2","69","training","adjacent","FE","6","5","N.jpg","P.jpg","0","0","1","",""
"","feedback","","html-keyboard-response","460","512187","0.0-1.0-627.0-0.0","0","0","80773","","null","","","null","69","","","","","","","","","","","","","","","",""
"","ITI","","html-keyboard-response","461","513189","0.0-1.0-630.0","0","0","80773","","null","","","null","69","","","","","","","","","","","","","","","NaN",""
"","S1","","html-keyboard-response","462","513441","0.0-1.0-632.0","0","0","80773","","null","","","null","70","","","","","","","","","","","","","","","",""
"","ISI","","html-keyboard-response","463","513593","0.0-1.0-633.0","0","0","80773","","null","","","null","70","NaN","","","","","","","","","","","","","","",""
"","S2","","html-keyboard-response","464","513847","0.0-1.0-634.0","0","0","80773","","null","","","null","70","","NaN","","","","","","","","","","","","","",""
"","response","","html-keyboard-response","465","514078","0.0-1.0-635.0-0.0","0","0","80773","","230","","","68","70","","","2","70","training","adjacent","BC","2","3","Q.jpg","M.jpg","0","1","0","",""
"","feedback","","html-keyboard-response","466","515080","0.0-1.0-636.0-0.0","0","0","80773","","null","","","null","70","","","","","","","","","","","","","","","",""
"","time_out","","html-keyboard-response","467","517083","0.0-1.0-638.0-0.0","0","0","80773","","null","","","null","70","","","","","","","","","","","","","","","",""
"","ITI","","html-keyboard-response","468","518085","0.0-1.0-639.0","0","0","80773","","null","","","null","70","","","","","","","","","","","","","","","NaN",""
"","S1","","html-keyboard-response","469","518338","0.0-1.0-641.0","0","0","80773","","null","","","null","71","","","","","","","","","","","","","","","",""
"","ISI","","html-keyboard-response","470","518491","0.0-1.0-642.0","0","0","80773","","null","","","null","71","NaN","","","","","","","","","","","","","","",""
"","S2","","html-keyboard-response","471","518744","0.0-1.0-643.0","0","0","80773","","null","","","null","71","","NaN","","","","","","","","","","","","","",""
"","response","","html-keyboard-response","472","518974","0.0-1.0-644.0-0.0","0","0","80773","","229","","","75","71","","","2","71","training","adjacent","CB","3","2","M.jpg","Q.jpg","1","0","0","",""
"","feedback","","html-keyboard-response","473","519978","0.0-1.0-645.0-0.0","0","0","80773","","null","","","null","71","","","","","","","","","","","","","","","",""
"","time_out","","html-keyboard-response","474","521980","0.0-1.0-647.0-0.0","0","0","80773","","null","","","null","71","","","","","","","","","","","","","","","",""
"","ITI","","html-keyboard-response","475","522982","0.0-1.0-648.0","0","0","80773","","null","","","null","71","","","","","","","","","","","","","","","NaN",""
"","S1","","html-keyboard-response","476","523234","0.0-1.0-650.0","0","0","80773","","null","","","null","72","","","","","","","","","","","","","","","",""
"","ISI","","html-keyboard-response","477","523400","0.0-1.0-651.0","0","0","80773","","null","","","null","72","NaN","","","","","","","","","","","","","","",""
"","S2","","html-keyboard-response","478","523653","0.0-1.0-652.0","0","0","80773","","null","","","null","72","","NaN","","","","","","","","","","","","","",""
"","response","","html-keyboard-response","479","524063","0.0-1.0-653.0-0.0","0","0","80773","","409","","","75","72","","","2","72","training","adjacent","CB","3","2","M.jpg","Q.jpg","1","0","0","",""
"","feedback","","html-keyboard-response","480","525066","0.0-1.0-654.0-0.0","0","0","80773","","null","","","null","72","","","","","","","","","","","","","","","",""
"","time_out","","html-keyboard-response","481","527068","0.0-1.0-656.0-0.0","0","0","80773","","null","","","null","72","","","","","","","","","","","","","","","",""
"","ITI","","html-keyboard-response","482","528070","0.0-1.0-657.0","0","0","80773","","null","","","null","72","","","","","","","","","","","","","","","NaN",""
"","S1","","html-keyboard-response","483","528323","0.0-1.0-659.0","0","0","80773","","null","","","null","73","","","","","","","","","","","","","","","",""
"","ISI","","html-keyboard-response","484","528477","0.0-1.0-660.0","0","0","80773","","null","","","null","73","NaN","","","","","","","","","","","","","","",""
"","S2","","html-keyboard-response","485","528729","0.0-1.0-661.0","0","0","80773","","null","","","null","73","","NaN","","","","","","","","","","","","","",""
"","response","","html-keyboard-response","486","529134","0.0-1.0-662.0-0.0","0","0","80773","","402","","","68","73","","","2","73","training","adjacent","ED","5","4","P.jpg","O.jpg","0","0","1","",""
"","feedback","","html-keyboard-response","487","530138","0.0-1.0-663.0-0.0","0","0","80773","","null","","","null","73","","","","","","","","","","","","","","","",""
"","ITI","","html-keyboard-response","488","531140","0.0-1.0-666.0","0","0","80773","","null","","","null","73","","","","","","","","","","","","","","","NaN",""
"","S1","","html-keyboard-response","489","531393","0.0-1.0-668.0","0","0","80773","","null","","","null","74","","","","","","","","","","","","","","","",""
"","ISI","","html-keyboard-response","490","531547","0.0-1.0-669.0","0","0","80773","","null","","","null","74","NaN","","","","","","","","","","","","","","",""
"","S2","","html-keyboard-response","491","531799","0.0-1.0-670.0","0","0","80773","","null","","","null","74","","NaN","","","","","","","","","","","","","",""
"","response","","html-keyboard-response","492","532270","0.0-1.0-671.0-0.0","0","0","80773","","469","","","68","74","","","2","74","training","adjacent","FE","6","5","N.jpg","P.jpg","0","0","1","",""
"","feedback","","html-keyboard-response","493","533274","0.0-1.0-672.0-0.0","0","0","80773","","null","","","null","74","","","","","","","","","","","","","","","",""
"","ITI","","html-keyboard-response","494","534278","0.0-1.0-675.0","0","0","80773","","null","","","null","74","","","","","","","","","","","","","","","NaN",""
"","S1","","html-keyboard-response","495","534530","0.0-1.0-677.0","0","0","80773","","null","","","null","75","","","","","","","","","","","","","","","",""
"","ISI","","html-keyboard-response","496","534683","0.0-1.0-678.0","0","0","80773","","null","","","null","75","NaN","","","","","","","","","","","","","","",""
"","S2","","html-keyboard-response","497","534940","0.0-1.0-679.0","0","0","80773","","null","","","null","75","","NaN","","","","","","","","","","","","","",""
"","response","","html-keyboard-response","498","535502","0.0-1.0-680.0-0.0","0","0","80773","","561","","","68","75","","","2","75","training","adjacent","FE","6","5","N.jpg","P.jpg","0","0","1","",""
"","feedback","","html-keyboard-response","499","536505","0.0-1.0-681.0-0.0","0","0","80773","","null","","","null","75","","","","","","","","","","","","","","","",""
"","ITI","","html-keyboard-response","500","537507","0.0-1.0-684.0","0","0","80773","","null","","","null","75","","","","","","","","","","","","","","","NaN",""
"","S1","","html-keyboard-response","501","537759","0.0-1.0-686.0","0","0","80773","","null","","","null","76","","","","","","","","","","","","","","","",""
"","ISI","","html-keyboard-response","502","537912","0.0-1.0-687.0","0","0","80773","","null","","","null","76","NaN","","","","","","","","","","","","","","",""
"","S2","","html-keyboard-response","503","538165","0.0-1.0-688.0","0","0","80773","","null","","","null","76","","NaN","","","","","","","","","","","","","",""
"","response","","html-keyboard-response","504","538702","0.0-1.0-689.0-0.0","0","0","80773","","536","","","68","76","","","2","76","training","adjacent","CB","3","2","M.jpg","Q.jpg","0","0","1","",""
"","feedback","","html-keyboard-response","505","539705","0.0-1.0-690.0-0.0","0","0","80773","","null","","","null","76","","","","","","","","","","","","","","","",""
"","ITI","","html-keyboard-response","506","540708","0.0-1.0-693.0","0","0","80773","","null","","","null","76","","","","","","","","","","","","","","","NaN",""
"","S1","","html-keyboard-response","507","540960","0.0-1.0-695.0","0","0","80773","","null","","","null","77","","","","","","","","","","","","","","","",""
"","ISI","","html-keyboard-response","508","541124","0.0-1.0-696.0","0","0","80773","","null","","","null","77","NaN","","","","","","","","","","","","","","",""
"","S2","","html-keyboard-response","509","541388","0.0-1.0-697.0","0","0","80773","","null","","","null","77","","NaN","","","","","","","","","","","","","",""
"","response","","html-keyboard-response","510","541838","0.0-1.0-698.0-0.0","0","0","80773","","449","","","68","77","","","2","77","training","adjacent","FG","6","7","N.jpg","R.jpg","0","1","0","",""
"","feedback","","html-keyboard-response","511","542841","0.0-1.0-699.0-0.0","0","0","80773","","null","","","null","77","","","","","","","","","","","","","","","",""
"","time_out","","html-keyboard-response","512","544844","0.0-1.0-701.0-0.0","0","0","80773","","null","","","null","77","","","","","","","","","","","","","","","",""
"","ITI","","html-keyboard-response","513","545846","0.0-1.0-702.0","0","0","80773","","null","","","null","77","","","","","","","","","","","","","","","NaN",""
"","S1","","html-keyboard-response","514","546099","0.0-1.0-704.0","0","0","80773","","null","","","null","78","","","","","","","","","","","","","","","",""
"","ISI","","html-keyboard-response","515","546251","0.0-1.0-705.0","0","0","80773","","null","","","null","78","NaN","","","","","","","","","","","","","","",""
"","S2","","html-keyboard-response","516","546505","0.0-1.0-706.0","0","0","80773","","null","","","null","78","","NaN","","","","","","","","","","","","","",""
"","response","","html-keyboard-response","517","547006","0.0-1.0-707.0-0.0","0","0","80773","","500","","","75","78","","","2","78","training","adjacent","FG","6","7","N.jpg","R.jpg","1","1","1","",""
"","feedback","","html-keyboard-response","518","548010","0.0-1.0-708.0-0.0","0","0","80773","","null","","","null","78","","","","","","","","","","","","","","","",""
"","ITI","","html-keyboard-response","519","549012","0.0-1.0-711.0","0","0","80773","","null","","","null","78","","","","","","","","","","","","","","","NaN",""
"","S1","","html-keyboard-response","520","549265","0.0-1.0-713.0","0","0","80773","","null","","","null","79","","","","","","","","","","","","","","","",""
"","ISI","","html-keyboard-response","521","549418","0.0-1.0-714.0","0","0","80773","","null","","","null","79","NaN","","","","","","","","","","","","","","",""
"","S2","","html-keyboard-response","522","549673","0.0-1.0-715.0","0","0","80773","","null","","","null","79","","NaN","","","","","","","","","","","","","",""
"","response","","html-keyboard-response","523","550223","0.0-1.0-716.0-0.0","0","0","80773","","547","","","75","79","","","2","79","training","adjacent","BA","2","1","Q.jpg","L.jpg","1","0","0","",""
"","feedback","","html-keyboard-response","524","551226","0.0-1.0-717.0-0.0","0","0","80773","","null","","","null","79","","","","","","","","","","","","","","","",""
"","time_out","","html-keyboard-response","525","553228","0.0-1.0-719.0-0.0","0","0","80773","","null","","","null","79","","","","","","","","","","","","","","","",""
"","ITI","","html-keyboard-response","526","554230","0.0-1.0-720.0","0","0","80773","","null","","","null","79","","","","","","","","","","","","","","","NaN",""
"","S1","","html-keyboard-response","527","554483","0.0-1.0-722.0","0","0","80773","","null","","","null","80","","","","","","","","","","","","","","","",""
"","ISI","","html-keyboard-response","528","554635","0.0-1.0-723.0","0","0","80773","","null","","","null","80","NaN","","","","","","","","","","","","","","",""
"","S2","","html-keyboard-response","529","554887","0.0-1.0-724.0","0","0","80773","","null","","","null","80","","NaN","","","","","","","","","","","","","",""
"","response","","html-keyboard-response","530","555215","0.0-1.0-725.0-0.0","0","0","80773","","326","","","75","80","","","2","80","training","adjacent","DE","4","5","O.jpg","P.jpg","1","1","1","",""
"","feedback","","html-keyboard-response","531","556218","0.0-1.0-726.0-0.0","0","0","80773","","null","","","null","80","","","","","","","","","","","","","","","",""
"","ITI","","html-keyboard-response","532","557227","0.0-1.0-729.0","0","0","80773","","null","","","null","80","","","","","","","","","","","","","","","NaN",""
"","S1","","html-keyboard-response","533","557480","0.0-1.0-731.0","0","0","80773","","null","","","null","81","","","","","","","","","","","","","","","",""
"","ISI","","html-keyboard-response","534","557632","0.0-1.0-732.0","0","0","80773","","null","","","null","81","NaN","","","","","","","","","","","","","","",""
"","S2","","html-keyboard-response","535","557885","0.0-1.0-733.0","0","0","80773","","null","","","null","81","","NaN","","","","","","","","","","","","","",""
"","response","","html-keyboard-response","536","558319","0.0-1.0-734.0-0.0","0","0","80773","","432","","","75","81","","","2","81","training","adjacent","BC","2","3","Q.jpg","M.jpg","1","1","1","",""
"","feedback","","html-keyboard-response","537","559335","0.0-1.0-735.0-0.0","0","0","80773","","null","","","null","81","","","","","","","","","","","","","","","",""
"","ITI","","html-keyboard-response","538","560337","0.0-1.0-738.0","0","0","80773","","null","","","null","81","","","","","","","","","","","","","","","NaN",""
"","S1","","html-keyboard-response","539","560589","0.0-1.0-740.0","0","0","80773","","null","","","null","82","","","","","","","","","","","","","","","",""
"","ISI","","html-keyboard-response","540","560742","0.0-1.0-741.0","0","0","80773","","null","","","null","82","NaN","","","","","","","","","","","","","","",""
"","S2","","html-keyboard-response","541","560995","0.0-1.0-742.0","0","0","80773","","null","","","null","82","","NaN","","","","","","","","","","","","","",""
"","response","","html-keyboard-response","542","561407","0.0-1.0-743.0-0.0","0","0","80773","","411","","","75","82","","","2","82","training","adjacent","DC","4","3","O.jpg","M.jpg","1","0","0","",""
"","feedback","","html-keyboard-response","543","562410","0.0-1.0-744.0-0.0","0","0","80773","","null","","","null","82","","","","","","","","","","","","","","","",""
"","time_out","","html-keyboard-response","544","564412","0.0-1.0-746.0-0.0","0","0","80773","","null","","","null","82","","","","","","","","","","","","","","","",""
"","ITI","","html-keyboard-response","545","565415","0.0-1.0-747.0","0","0","80773","","null","","","null","82","","","","","","","","","","","","","","","NaN",""
"","S1","","html-keyboard-response","546","565668","0.0-1.0-749.0","0","0","80773","","null","","","null","83","","","","","","","","","","","","","","","",""
"","ISI","","html-keyboard-response","547","565821","0.0-1.0-750.0","0","0","80773","","null","","","null","83","NaN","","","","","","","","","","","","","","",""
"","S2","","html-keyboard-response","548","566073","0.0-1.0-751.0","0","0","80773","","null","","","null","83","","NaN","","","","","","","","","","","","","",""
"","response","","html-keyboard-response","549","566432","0.0-1.0-752.0-0.0","0","0","80773","","357","","","68","83","","","2","83","training","adjacent","GF","7","6","R.jpg","N.jpg","0","0","1","",""
"","feedback","","html-keyboard-response","550","567436","0.0-1.0-753.0-0.0","0","0","80773","","null","","","null","83","","","","","","","","","","","","","","","",""
"","ITI","","html-keyboard-response","551","568438","0.0-1.0-756.0","0","0","80773","","null","","","null","83","","","","","","","","","","","","","","","NaN",""
"","S1","","html-keyboard-response","552","568690","0.0-1.0-758.0","0","0","80773","","null","","","null","84","","","","","","","","","","","","","","","",""
"","ISI","","html-keyboard-response","553","568842","0.0-1.0-759.0","0","0","80773","","null","","","null","84","NaN","","","","","","","","","","","","","","",""
"","S2","","html-keyboard-response","554","569096","0.0-1.0-760.0","0","0","80773","","null","","","null","84","","NaN","","","","","","","","","","","","","",""
"","response","","html-keyboard-response","555","569583","0.0-1.0-761.0-0.0","0","0","80773","","486","","","68","84","","","2","84","training","adjacent","AB","1","2","L.jpg","Q.jpg","0","1","0","",""
"","feedback","","html-keyboard-response","556","570588","0.0-1.0-762.0-0.0","0","0","80773","","null","","","null","84","","","","","","","","","","","","","","","",""
"","time_out","","html-keyboard-response","557","572590","0.0-1.0-764.0-0.0","0","0","80773","","null","","","null","84","","","","","","","","","","","","","","","",""
"","ITI","","html-keyboard-response","558","573593","0.0-1.0-765.0","0","0","80773","","null","","","null","84","","","","","","","","","","","","","","","NaN",""
"","S1","","html-keyboard-response","559","573846","0.0-1.0-767.0","0","0","80773","","null","","","null","85","","","","","","","","","","","","","","","",""
"","ISI","","html-keyboard-response","560","573998","0.0-1.0-768.0","0","0","80773","","null","","","null","85","NaN","","","","","","","","","","","","","","",""
"","S2","","html-keyboard-response","561","574250","0.0-1.0-769.0","0","0","80773","","null","","","null","85","","NaN","","","","","","","","","","","","","",""
"","response","","html-keyboard-response","562","574607","0.0-1.0-770.0-0.0","0","0","80773","","356","","","75","85","","","2","85","training","adjacent","BC","2","3","Q.jpg","M.jpg","1","1","1","",""
"","feedback","","html-keyboard-response","563","575610","0.0-1.0-771.0-0.0","0","0","80773","","null","","","null","85","","","","","","","","","","","","","","","",""
"","ITI","","html-keyboard-response","564","576613","0.0-1.0-774.0","0","0","80773","","null","","","null","85","","","","","","","","","","","","","","","NaN",""
"","S1","","html-keyboard-response","565","576865","0.0-1.0-776.0","0","0","80773","","null","","","null","86","","","","","","","","","","","","","","","",""
"","ISI","","html-keyboard-response","566","577017","0.0-1.0-777.0","0","0","80773","","null","","","null","86","NaN","","","","","","","","","","","","","","",""
"","S2","","html-keyboard-response","567","577271","0.0-1.0-778.0","0","0","80773","","null","","","null","86","","NaN","","","","","","","","","","","","","",""
"","response","","html-keyboard-response","568","577791","0.0-1.0-779.0-0.0","0","0","80773","","518","","","68","86","","","2","86","training","adjacent","EF","5","6","P.jpg","N.jpg","0","1","0","",""
"","feedback","","html-keyboard-response","569","578794","0.0-1.0-780.0-0.0","0","0","80773","","null","","","null","86","","","","","","","","","","","","","","","",""
"","time_out","","html-keyboard-response","570","580797","0.0-1.0-782.0-0.0","0","0","80773","","null","","","null","86","","","","","","","","","","","","","","","",""
"","ITI","","html-keyboard-response","571","581799","0.0-1.0-783.0","0","0","80773","","null","","","null","86","","","","","","","","","","","","","","","NaN",""
"","S1","","html-keyboard-response","572","582052","0.0-1.0-785.0","0","0","80773","","null","","","null","87","","","","","","","","","","","","","","","",""
"","ISI","","html-keyboard-response","573","582204","0.0-1.0-786.0","0","0","80773","","null","","","null","87","NaN","","","","","","","","","","","","","","",""
"","S2","","html-keyboard-response","574","582457","0.0-1.0-787.0","0","0","80773","","null","","","null","87","","NaN","","","","","","","","","","","","","",""
"","response","","html-keyboard-response","575","582737","0.0-1.0-788.0-0.0","0","0","80773","","277","","","68","87","","","2","87","training","adjacent","DC","4","3","O.jpg","M.jpg","0","0","1","",""
"","feedback","","html-keyboard-response","576","583740","0.0-1.0-789.0-0.0","0","0","80773","","null","","","null","87","","","","","","","","","","","","","","","",""
"","ITI","","html-keyboard-response","577","584742","0.0-1.0-792.0","0","0","80773","","null","","","null","87","","","","","","","","","","","","","","","NaN",""
"","S1","","html-keyboard-response","578","584995","0.0-1.0-794.0","0","0","80773","","null","","","null","88","","","","","","","","","","","","","","","",""
"","ISI","","html-keyboard-response","579","585148","0.0-1.0-795.0","0","0","80773","","null","","","null","88","NaN","","","","","","","","","","","","","","",""
"","S2","","html-keyboard-response","580","585401","0.0-1.0-796.0","0","0","80773","","null","","","null","88","","NaN","","","","","","","","","","","","","",""
"","response","","html-keyboard-response","581","585888","0.0-1.0-797.0-0.0","0","0","80773","","485","","","68","88","","","2","88","training","adjacent","CD","3","4","M.jpg","O.jpg","0","1","0","",""
"","feedback","","html-keyboard-response","582","586890","0.0-1.0-798.0-0.0","0","0","80773","","null","","","null","88","","","","","","","","","","","","","","","",""
