"success","category","start_time","trial_type","trial_index","time_elapsed","internal_node_id","warning","missed_checkup","PID","view_history","rt","ttype","responses","repeat_instructions","key_press","index","keypress_S2","block","trial_num","phase","pair_type","S1_stim","S2_stim","S1_img","S2_img","S1_chosen","S1_higher","accuracy","keypress_iti","keypress_isi","total_bonus_tally"
"true","full_screen","d07192022hr1426","fullscreen","0","1967","0.0-0.0","0","0","71923","","","","","","","","","","","","","","","","","","","","","",""
"","","","instructions","1","3387","0.0-1.0-0.0-0.0","0","0","71923","[{""page_index"":0,""viewing_time"":1072},{""page_index"":1,""viewing_time"":161},{""page_index"":2,""viewing_time"":184}]","1417","instructions","","","","","","","","","","","","","","","","","","",""
"","","","survey-multi-choice","2","9977","0.0-1.0-0.0-1.0","0","0","71923","","6586","comprehension_check","{""Q0"":""True"",""Q1"":""True"",""Q2"":""When you see the prompt 'MAKE A CHOICE' after the second image was presented"",""Q3"":""Green mark"",""Q4"":""either D or K""}","0","","","","","","","","","","","","","","","","",""
"","","","html-keyboard-response","3","11035","0.0-1.0-1.0","0","0","71923","","1055","start_exp","","","32","","","","","","","","","","","","","","","",""
"","","","html-keyboard-response","4","11291","0.0-1.0-2.0","0","0","71923","","null","S1","","","null","0","","","","","","","","","","","","","","",""
"","","","html-keyboard-response","5","11396","0.0-1.0-3.0","0","0","71923","","null","ISI","","","null","0","","","","","","","","","","","","","","",""
"","","","html-keyboard-response","6","11649","0.0-1.0-4.0","0","0","71923","","117","S2","","","75","0","k","","","","","","","","","","","","","",""
"","","","html-keyboard-response","7","11687","0.0-1.0-5.0","0","0","71923","","38","response","","","75","0","","1","0","training","adjacent","2","3","R.jpg","P.jpg","1","1","1","","",""
"","","","html-keyboard-response","8","11793","0.0-1.0-6.0-0.0","0","0","71923","","null","feedback","","","null","0","","","","","","","","","","","","","","",""
"","","","html-keyboard-response","9","12297","0.0-1.0-9.0","0","0","71923","","61","ITI","","","75","0","","","","","","","","","","","","","k","",""
"","","","html-keyboard-response","10","12549","0.0-1.0-11.0","0","0","71923","","null","S1","","","null","1","","","","","","","","","","","","","","",""
"","","","html-keyboard-response","11","12654","0.0-1.0-12.0","0","0","71923","","null","ISI","","","null","1","","","","","","","","","","","","","","",""
"","","","html-keyboard-response","12","12906","0.0-1.0-13.0","0","0","71923","","7","S2","","","75","1","k","","","","","","","","","","","","","",""
"","","","html-keyboard-response","13","12994","0.0-1.0-14.0","0","0","71923","","87","response","","","75","1","","1","1","training","adjacent","3","4","P.jpg","Q.jpg","1","1","1","","",""
"","","","html-keyboard-response","14","13096","0.0-1.0-15.0-0.0","0","0","71923","","null","feedback","","","null","1","","","","","","","","","","","","","","",""
"","","","html-keyboard-response","15","13599","0.0-1.0-18.0","0","0","71923","","64","ITI","","","75","1","","","","","","","","","","","","","k","",""
"","","","html-keyboard-response","16","13852","0.0-1.0-20.0","0","0","71923","","null","S1","","","null","2","","","","","","","","","","","","","","",""
"","","","html-keyboard-response","17","13955","0.0-1.0-21.0","0","0","71923","","null","ISI","","","null","2","","","","","","","","","","","","","","",""
"","","","html-keyboard-response","18","14209","0.0-1.0-22.0","0","0","71923","","108","S2","","","75","2","k","","","","","","","","","","","","","",""
"","","","html-keyboard-response","19","14258","0.0-1.0-23.0","0","0","71923","","47","response","","","75","2","","1","2","training","adjacent","5","4","O.jpg","Q.jpg","1","0","0","","",""
"","","","html-keyboard-response","20","14362","0.0-1.0-24.0-0.0","0","0","71923","","null","feedback","","","null","2","","","","","","","","","","","","","","",""
"","","","html-keyboard-response","21","14465","0.0-1.0-26.0-0.0","0","0","71923","","null","time_out","","","null","2","","","","","","","","","","","","","","",""
"","","","html-keyboard-response","22","14966","0.0-1.0-27.0","0","0","71923","","145","ITI","","","75","2","","","","","","","","","","","","","k","",""
"","","","html-keyboard-response","23","15220","0.0-1.0-29.0","0","0","71923","","null","S1","","","null","3","","","","","","","","","","","","","","",""
"","","","html-keyboard-response","24","15322","0.0-1.0-30.0","0","0","71923","","83","ISI","","","75","3","","","","","","","","","","","","","","k",""
"","","","html-keyboard-response","25","15575","0.0-1.0-31.0","0","0","71923","","140","S2","","","75","3","k","","","","","","","","","","","","","",""
"","","","html-keyboard-response","26","15648","0.0-1.0-32.0","0","0","71923","","72","response","","","75","3","","1","3","training","adjacent","3","2","P.jpg","R.jpg","1","0","0","","",""
"","","","html-keyboard-response","27","15753","0.0-1.0-33.0-0.0","0","0","71923","","null","feedback","","","null","3","","","","","","","","","","","","","","",""
"","","","html-keyboard-response","28","15857","0.0-1.0-35.0-0.0","0","0","71923","","null","time_out","","","null","3","","","","","","","","","","","","","","",""
"","","","html-keyboard-response","29","16359","0.0-1.0-36.0","0","0","71923","","151","ITI","","","75","3","","","","","","","","","","","","","k","",""
"","","","html-keyboard-response","30","16614","0.0-1.0-38.0","0","0","71923","","null","S1","","","null","4","","","","","","","","","","","","","","",""
"","","","html-keyboard-response","31","16715","0.0-1.0-39.0","0","0","71923","","67","ISI","","","75","4","","","","","","","","","","","","","","k",""
"","","","html-keyboard-response","32","16970","0.0-1.0-40.0","0","0","71923","","123","S2","","","75","4","k","","","","","","","","","","","","","",""
"","","","html-keyboard-response","33","17057","0.0-1.0-41.0","0","0","71923","","87","response","","","68","4","","1","4","training","adjacent","1","2","M.jpg","R.jpg","0","1","0","","",""
"","","","html-keyboard-response","34","17160","0.0-1.0-42.0-0.0","0","0","71923","","null","feedback","","","null","4","","","","","","","","","","","","","","",""
"","","","html-keyboard-response","35","17264","0.0-1.0-44.0-0.0","0","0","71923","","null","time_out","","","null","4","","","","","","","","","","","","","","",""
"","","","html-keyboard-response","36","17767","0.0-1.0-45.0","0","0","71923","","145","ITI","","","68","4","","","","","","","","","","","","","d","",""
"","","","html-keyboard-response","37","18022","0.0-1.0-47.0","0","0","71923","","null","S1","","","null","5","","","","","","","","","","","","","","",""
"","","","html-keyboard-response","38","18123","0.0-1.0-48.0","0","0","71923","","null","ISI","","","null","5","","","","","","","","","","","","","","",""
"","","","html-keyboard-response","39","18376","0.0-1.0-49.0","0","0","71923","","94","S2","","","68","5","d","","","","","","","","","","","","","",""
"","","","html-keyboard-response","40","18487","0.0-1.0-50.0","0","0","71923","","111","response","","","68","5","","1","5","training","adjacent","4","5","Q.jpg","O.jpg","0","1","0","","",""
"","","","html-keyboard-response","41","18588","0.0-1.0-51.0-0.0","0","0","71923","","null","feedback","","","null","5","","","","","","","","","","","","","","",""
"","","","html-keyboard-response","42","18689","0.0-1.0-53.0-0.0","0","0","71923","","null","time_out","","","null","5","","","","","","","","","","","","","","",""
"","","","html-keyboard-response","43","19192","0.0-1.0-54.0","0","0","71923","","291","ITI","","","68","5","","","","","","","","","","","","","d","",""
"","","","html-keyboard-response","44","19448","0.0-1.0-56.0","0","0","71923","","null","S1","","","null","6","","","","","","","","","","","","","","",""
"","","","html-keyboard-response","45","19550","0.0-1.0-57.0","0","0","71923","","70","ISI","","","68","6","","","","","","","","","","","","","","d",""
"","","","html-keyboard-response","46","19807","0.0-1.0-58.0","0","0","71923","","null","S2","","","null","6","","","","","","","","","","","","","","",""
"","","","html-keyboard-response","47","19815","0.0-1.0-59.0","0","0","71923","","7","response","","","68","6","","1","6","training","adjacent","2","1","R.jpg","M.jpg","0","0","1","","",""
"","","","html-keyboard-response","48","19917","0.0-1.0-60.0-0.0","0","0","71923","","null","feedback","","","null","6","","","","","","","","","","","","","","",""
"","","","html-keyboard-response","49","20421","0.0-1.0-63.0","0","0","71923","","379","ITI","","","68","6","","","","","","","","","","","","","d","",""
"","","","html-keyboard-response","50","20675","0.0-1.0-65.0","0","0","71923","","null","S1","","","null","7","","","","","","","","","","","","","","",""
"","","","html-keyboard-response","51","20780","0.0-1.0-66.0","0","0","71923","","null","ISI","","","null","7","","","","","","","","","","","","","","",""
"","","","html-keyboard-response","52","21033","0.0-1.0-67.0","0","0","71923","","84","S2","","","68","7","d","","","","","","","","","","","","","",""
"","","","html-keyboard-response","53","21131","0.0-1.0-68.0","0","0","71923","","97","response","","","68","7","","1","7","training","adjacent","4","3","Q.jpg","P.jpg","0","0","1","","",""
"","","","html-keyboard-response","54","21234","0.0-1.0-69.0-0.0","0","0","71923","","null","feedback","","","null","7","","","","","","","","","","","","","","",""
"","","","html-keyboard-response","55","21738","0.0-1.0-72.0","0","0","71923","","null","ITI","","","null","7","","","","","","","","","","","","","","",""
"","","","html-keyboard-response","56","24057","0.0-1.0-73.0-0.0","0","0","71923","","2317","block_over","","","32","7","","","","","","","","","","","","","","",""
"","","","html-keyboard-response","57","24309","0.0-1.0-74.0","0","0","71923","","null","S1","","","null","8","","","","","","","","","","","","","","",""
"","","","html-keyboard-response","58","24411","0.0-1.0-75.0","0","0","71923","","null","ISI","","","null","8","","","","","","","","","","","","","","",""
"","","","html-keyboard-response","59","24667","0.0-1.0-76.0","0","0","71923","","null","S2","","","null","8","","","","","","","","","","","","","","",""
"","","","html-keyboard-response","60","25144","0.0-1.0-77.0","0","0","71923","","477","response","","","68","8","","2","8","training","adjacent","1","2","M.jpg","R.jpg","0","1","0","","",""
"","","","html-keyboard-response","61","25246","0.0-1.0-78.0-0.0","0","0","71923","","null","feedback","","","null","8","","","","","","","","","","","","","","",""
"","","","html-keyboard-response","62","25347","0.0-1.0-80.0-0.0","0","0","71923","","null","time_out","","","null","8","","","","","","","","","","","","","","",""
"","","","html-keyboard-response","63","25851","0.0-1.0-81.0","0","0","71923","","187","ITI","","","68","8","","","","","","","","","","","","","d","",""
"","","","html-keyboard-response","64","26103","0.0-1.0-83.0","0","0","71923","","null","S1","","","null","9","","","","","","","","","","","","","","",""
"","","","html-keyboard-response","65","26209","0.0-1.0-84.0","0","0","71923","","7","ISI","","","68","9","","","","","","","","","","","","","","d",""
"","","","html-keyboard-response","66","26465","0.0-1.0-85.0","0","0","71923","","110","S2","","","68","9","d","","","","","","","","","","","","","",""
"","","","html-keyboard-response","67","26521","0.0-1.0-86.0","0","0","71923","","55","response","","","68","9","","2","9","training","adjacent","6","5","N.jpg","O.jpg","0","0","1","","",""
"","","","html-keyboard-response","68","26626","0.0-1.0-87.0-0.0","0","0","71923","","null","feedback","","","null","9","","","","","","","","","","","","","","",""
"","","","html-keyboard-response","69","27132","0.0-1.0-90.0","0","0","71923","","110","ITI","","","68","9","","","","","","","","","","","","","d","",""
"","","","html-keyboard-response","70","27385","0.0-1.0-92.0","0","0","71923","","null","S1","","","null","10","","","","","","","","","","","","","","",""
"","","","html-keyboard-response","71","27488","0.0-1.0-93.0","0","0","71923","","null","ISI","","","null","10","","","","","","","","","","","","","","",""
"","","","html-keyboard-response","72","27742","0.0-1.0-94.0","0","0","71923","","112","S2","","","68","10","d","","","","","","","","","","","","","",""
"","","","html-keyboard-response","73","27809","0.0-1.0-95.0","0","0","71923","","65","response","","","68","10","","2","10","training","adjacent","7","6","L.jpg","N.jpg","0","0","1","","",""
"","","","html-keyboard-response","74","27915","0.0-1.0-96.0-0.0","0","0","71923","","null","feedback","","","null","10","","","","","","","","","","","","","","",""
"","","","html-keyboard-response","75","28419","0.0-1.0-99.0","0","0","71923","","117","ITI","","","68","10","","","","","","","","","","","","","d","",""
"","","","html-keyboard-response","76","28675","0.0-1.0-101.0","0","0","71923","","null","S1","","","null","11","","","","","","","","","","","","","","",""
"","","","html-keyboard-response","77","28780","0.0-1.0-102.0","0","0","71923","","4","ISI","","","68","11","","","","","","","","","","","","","","d",""
"","","","html-keyboard-response","78","29034","0.0-1.0-103.0","0","0","71923","","117","S2","","","68","11","d","","","","","","","","","","","","","",""
"","","","html-keyboard-response","79","29100","0.0-1.0-104.0","0","0","71923","","65","response","","","68","11","","2","11","training","adjacent","6","7","N.jpg","L.jpg","0","1","0","","",""
"","","","html-keyboard-response","80","29202","0.0-1.0-105.0-0.0","0","0","71923","","null","feedback","","","null","11","","","","","","","","","","","","","","",""
"","","","html-keyboard-response","81","29309","0.0-1.0-107.0-0.0","0","0","71923","","null","time_out","","","null","11","","","","","","","","","","","","","","",""
"","","","html-keyboard-response","82","29812","0.0-1.0-108.0","0","0","71923","","9","ITI","","","68","11","","","","","","","","","","","","","d","",""
"","","","html-keyboard-response","83","30066","0.0-1.0-110.0","0","0","71923","","null","S1","","","null","12","","","","","","","","","","","","","","",""
"","","","html-keyboard-response","84","30169","0.0-1.0-111.0","0","0","71923","","null","ISI","","","null","12","","","","","","","","","","","","","","",""
"","","","html-keyboard-response","85","30425","0.0-1.0-112.0","0","0","71923","","null","S2","","","null","12","","","","","","","","","","","","","","",""
"","","","html-keyboard-response","86","30931","0.0-1.0-113.0","0","0","71923","","null","response","","","null","12","","2","12","training","adjacent","5","6","O.jpg","N.jpg","NaN","1","0","","",""
"","","","html-keyboard-response","87","31937","0.0-1.0-115.0-0.0","1","0","71923","","null","too_slow_prompt","","","null","","","","","","","","","","","","","","","",""
"","","","html-keyboard-response","88","32042","0.0-1.0-116.0-0.0","0","0","71923","","null","time_out","","","null","12","","","","","","","","","","","","","","",""
"","","","html-keyboard-response","89","32546","0.0-1.0-117.0","0","0","71923","","null","ITI","","","null","12","","","","","","","","","","","","","","",""
"","","","html-keyboard-response","90","32802","0.0-1.0-119.0","0","0","71923","","null","S1","","","null","13","","","","","","","","","","","","","","",""
"","","","html-keyboard-response","91","32906","0.0-1.0-120.0","0","0","71923","","null","ISI","","","null","13","","","","","","","","","","","","","","",""
"","","","html-keyboard-response","92","33159","0.0-1.0-121.0","0","0","71923","","null","S2","","","null","13","","","","","","","","","","","","","","",""
"","","","html-keyboard-response","93","33664","0.0-1.0-122.0","0","0","71923","","null","response","","","null","13","","2","13","training","adjacent","2","3","R.jpg","P.jpg","NaN","1","0","","",""
"","","","html-keyboard-response","94","34669","0.0-1.0-124.0-0.0","1","0","71923","","null","too_slow_prompt","","","null","","","","","","","","","","","","","","","",""
"","","","html-keyboard-response","95","34775","0.0-1.0-125.0-0.0","0","0","71923","","null","time_out","","","null","13","","","","","","","","","","","","","","",""
"","","","html-keyboard-response","96","35280","0.0-1.0-126.0","0","0","71923","","null","ITI","","","null","13","","","","","","","","","","","","","","",""
"","","","html-keyboard-response","97","35534","0.0-1.0-128.0","0","0","71923","","null","S1","","","null","14","","","","","","","","","","","","","","",""
"","","","html-keyboard-response","98","35638","0.0-1.0-129.0","0","0","71923","","null","ISI","","","null","14","","","","","","","","","","","","","","",""
"","","","html-keyboard-response","99","35893","0.0-1.0-130.0","0","0","71923","","null","S2","","","null","14","","","","","","","","","","","","","","",""
"","","","html-keyboard-response","100","36398","0.0-1.0-131.0","0","0","71923","","null","response","","","null","14","","2","14","training","adjacent","2","1","R.jpg","M.jpg","NaN","0","0","","",""
"","","","html-keyboard-response","101","37403","0.0-1.0-133.0-0.0","1","0","71923","","null","too_slow_prompt","","","null","","","","","","","","","","","","","","","",""
"","","","html-keyboard-response","102","37508","0.0-1.0-134.0-0.0","0","0","71923","","null","time_out","","","null","14","","","","","","","","","","","","","","",""
"","","","html-keyboard-response","103","38014","0.0-1.0-135.0","0","0","71923","","null","ITI","","","null","14","","","","","","","","","","","","","","",""
"","","","html-keyboard-response","104","38270","0.0-1.0-137.0","0","0","71923","","null","S1","","","null","15","","","","","","","","","","","","","","",""
"","","","html-keyboard-response","105","38375","0.0-1.0-138.0","0","0","71923","","null","ISI","","","null","15","","","","","","","","","","","","","","",""
"","","","html-keyboard-response","106","38631","0.0-1.0-139.0","0","0","71923","","null","S2","","","null","15","","","","","","","","","","","","","","",""
"","","","html-keyboard-response","107","39137","0.0-1.0-140.0","0","0","71923","","null","response","","","null","15","","2","15","training","adjacent","3","2","P.jpg","R.jpg","NaN","0","0","","",""
"","","","html-keyboard-response","108","40141","0.0-1.0-142.0-0.0","1","0","71923","","null","too_slow_prompt","","","null","","","","","","","","","","","","","","","",""
"","","","html-keyboard-response","109","40242","0.0-1.0-143.0-0.0","0","0","71923","","null","time_out","","","null","15","","","","","","","","","","","","","","",""
"","","","html-keyboard-response","110","40746","0.0-1.0-144.0","0","0","71923","","null","ITI","","","null","15","","","","","","","","","","","","","","",""
"","","","html-keyboard-response","111","42696","0.0-1.0-145.0-0.0","0","0","71923","","1949","block_over","","","32","15","","","","","","","","","","","","","","",""
"","","","html-keyboard-response","112","42950","0.0-1.0-146.0","0","0","71923","","null","S1","","","null","16","","","","","","","","","","","","","","",""
"","","","html-keyboard-response","113","43056","0.0-1.0-147.0","0","0","71923","","null","ISI","","","null","16","","","","","","","","","","","","","","",""
"","","","html-keyboard-response","114","43310","0.0-1.0-148.0","0","0","71923","","null","S2","","","null","16","","","","","","","","","","","","","","",""
"","","","html-keyboard-response","115","43813","0.0-1.0-149.0","0","0","71923","","null","response","","","null","16","","3","16","training","adjacent","4","3","Q.jpg","P.jpg","NaN","0","0","","",""
"","","","html-keyboard-response","116","44818","0.0-1.0-151.0-0.0","1","0","71923","","null","too_slow_prompt","","","null","","","","","","","","","","","","","","","",""
"","","","html-keyboard-response","117","44924","0.0-1.0-152.0-0.0","0","0","71923","","null","time_out","","","null","16","","","","","","","","","","","","","","",""
"","","","html-keyboard-response","118","45429","0.0-1.0-153.0","0","0","71923","","null","ITI","","","null","16","","","","","","","","","","","","","","",""
"","","","html-keyboard-response","119","45683","0.0-1.0-155.0","0","0","71923","","null","S1","","","null","17","","","","","","","","","","","","","","",""
"","","","html-keyboard-response","120","45788","0.0-1.0-156.0","0","0","71923","","null","ISI","","","null","17","","","","","","","","","","","","","","",""
"","","","html-keyboard-response","121","46041","0.0-1.0-157.0","0","0","71923","","null","S2","","","null","17","","","","","","","","","","","","","","",""
"","","","html-keyboard-response","122","46544","0.0-1.0-158.0","0","0","71923","","null","response","","","null","17","","3","17","training","adjacent","7","6","L.jpg","N.jpg","NaN","0","0","","",""
"","","","html-keyboard-response","123","47550","0.0-1.0-160.0-0.0","1","0","71923","","null","too_slow_prompt","","","null","","","","","","","","","","","","","","","",""
"","","","html-keyboard-response","124","47656","0.0-1.0-161.0-0.0","0","0","71923","","null","time_out","","","null","17","","","","","","","","","","","","","","",""
"","","","html-keyboard-response","125","48158","0.0-1.0-162.0","0","0","71923","","null","ITI","","","null","17","","","","","","","","","","","","","","",""
"","","","html-keyboard-response","126","48414","0.0-1.0-164.0","0","0","71923","","null","S1","","","null","18","","","","","","","","","","","","","","",""
"","","","html-keyboard-response","127","48518","0.0-1.0-165.0","0","0","71923","","null","ISI","","","null","18","","","","","","","","","","","","","","",""
"","","","html-keyboard-response","128","48774","0.0-1.0-166.0","0","0","71923","","null","S2","","","null","18","","","","","","","","","","","","","","",""
"","","","html-keyboard-response","129","48984","0.0-1.0-167.0","0","0","71923","","209","response","","","75","18","","3","18","training","adjacent","6","5","N.jpg","O.jpg","1","0","0","","",""
"","","","html-keyboard-response","130","49087","0.0-1.0-168.0-0.0","0","0","71923","","null","feedback","","","null","18","","","","","","","","","","","","","","",""
"","","","html-keyboard-response","131","49191","0.0-1.0-170.0-0.0","0","0","71923","","null","time_out","","","null","18","","","","","","","","","","","","","","",""
"","","","html-keyboard-response","132","49694","0.0-1.0-171.0","0","0","71923","","146","ITI","","","75","18","","","","","","","","","","","","","k","",""
"","","","html-keyboard-response","133","49947","0.0-1.0-173.0","0","0","71923","","null","S1","","","null","19","","","","","","","","","","","","","","",""
"","","","html-keyboard-response","134","50050","0.0-1.0-174.0","0","0","71923","","null","ISI","","","null","19","","","","","","","","","","","","","","",""
"","","","html-keyboard-response","135","50306","0.0-1.0-175.0","0","0","71923","","19","S2","","","75","19","k","","","","","","","","","","","","","",""
"","","","html-keyboard-response","136","50455","0.0-1.0-176.0","0","0","71923","","148","response","","","75","19","","3","19","training","adjacent","6","7","N.jpg","L.jpg","1","1","1","","",""
"","","","html-keyboard-response","137","50557","0.0-1.0-177.0-0.0","0","0","71923","","null","feedback","","","null","19","","","","","","","","","","","","","","",""
"","","","html-keyboard-response","138","51059","0.0-1.0-180.0","0","0","71923","","105","ITI","","","75","19","","","","","","","","","","","","","k","",""
"","","","html-keyboard-response","139","51314","0.0-1.0-182.0","0","0","71923","","null","S1","","","null","20","","","","","","","","","","","","","","",""
"","","","html-keyboard-response","140","51420","0.0-1.0-183.0","0","0","71923","","null","ISI","","","null","20","","","","","","","","","","","","","","",""
"","","","html-keyboard-response","141","51673","0.0-1.0-184.0","0","0","71923","","35","S2","","","75","20","k","","","","","","","","","","","","","",""
"","","","html-keyboard-response","142","51873","0.0-1.0-185.0","0","0","71923","","198","response","","","75","20","","3","20","training","adjacent","5","4","O.jpg","Q.jpg","1","0","0","","",""
"","","","html-keyboard-response","143","51974","0.0-1.0-186.0-0.0","0","0","71923","","null","feedback","","","null","20","","","","","","","","","","","","","","",""
"","","","html-keyboard-response","144","52076","0.0-1.0-188.0-0.0","0","0","71923","","null","time_out","","","null","20","","","","","","","","","","","","","","",""
"","","","html-keyboard-response","145","52579","0.0-1.0-189.0","0","0","71923","","225","ITI","","","75","20","","","","","","","","","","","","","k","",""
"","","","html-keyboard-response","146","52831","0.0-1.0-191.0","0","0","71923","","null","S1","","","null","21","","","","","","","","","","","","","","",""
"","","","html-keyboard-response","147","52936","0.0-1.0-192.0","0","0","71923","","null","ISI","","","null","21","","","","","","","","","","","","","","",""
"","","","html-keyboard-response","148","53190","0.0-1.0-193.0","0","0","71923","","null","S2","","","null","21","","","","","","","","","","","","","","",""
"","","","html-keyboard-response","149","53278","0.0-1.0-194.0","0","0","71923","","87","response","","","75","21","","3","21","training","adjacent","5","6","O.jpg","N.jpg","1","1","1","","",""
"","","","html-keyboard-response","150","53379","0.0-1.0-195.0-0.0","0","0","71923","","null","feedback","","","null","21","","","","","","","","","","","","","","",""
"","","","html-keyboard-response","151","53882","0.0-1.0-198.0","0","0","71923","","171","ITI","","","75","21","","","","","","","","","","","","","k","",""
"","","","html-keyboard-response","152","54136","0.0-1.0-200.0","0","0","71923","","null","S1","","","null","22","","","","","","","","","","","","","","",""
"","","","html-keyboard-response","153","54240","0.0-1.0-201.0","0","0","71923","","103","ISI","","","75","22","","","","","","","","","","","","","","k",""
"","","","html-keyboard-response","154","54496","0.0-1.0-202.0","0","0","71923","","null","S2","","","null","22","","","","","","","","","","","","","","",""
"","","","html-keyboard-response","155","54743","0.0-1.0-203.0","0","0","71923","","247","response","","","75","22","","3","22","training","adjacent","4","5","Q.jpg","O.jpg","1","1","1","","",""
"","","","html-keyboard-response","156","54847","0.0-1.0-204.0-0.0","0","0","71923","","null","feedback","","","null","22","","","","","","","","","","","","","","",""
"","","","html-keyboard-response","157","55353","0.0-1.0-207.0","0","0","71923","","448","ITI","","","75","22","","","","","","","","","","","","","k","",""
"","","","html-keyboard-response","158","55607","0.0-1.0-209.0","0","0","71923","","null","S1","","","null","23","","","","","","","","","","","","","","",""
"","","","html-keyboard-response","159","55708","0.0-1.0-210.0","0","0","71923","","5","ISI","","","75","23","","","","","","","","","","","","","","k",""
"","","","html-keyboard-response","160","55964","0.0-1.0-211.0","0","0","71923","","168","S2","","","75","23","k","","","","","","","","","","","","","",""
"","","","html-keyboard-response","161","56166","0.0-1.0-212.0","0","0","71923","","201","response","","","75","23","","3","23","training","adjacent","3","4","P.jpg","Q.jpg","1","1","1","","",""
"","","","html-keyboard-response","162","56269","0.0-1.0-213.0-0.0","0","0","71923","","null","feedback","","","null","23","","","","","","","","","","","","","","",""
"","","","html-keyboard-response","163","56773","0.0-1.0-216.0","0","0","71923","","140","ITI","","","75","23","","","","","","","","","","","","","k","",""
"","","","html-keyboard-response","164","57997","0.0-1.0-217.0-0.0","0","0","71923","","1223","block_over","","","32","23","","","","","","","","","","","","","","",""
"","","","html-keyboard-response","165","58252","0.0-1.0-218.0","0","0","71923","","null","S1","","","null","24","","","","","","","","","","","","","","",""
"","","","html-keyboard-response","166","58357","0.0-1.0-219.0","0","0","71923","","null","ISI","","","null","24","","","","","","","","","","","","","","",""
"","","","html-keyboard-response","167","58611","0.0-1.0-220.0","0","0","71923","","null","S2","","","null","24","","","","","","","","","","","","","","",""
"","","","html-keyboard-response","168","58735","0.0-1.0-221.0","0","0","71923","","123","response","","","75","24","","4","24","test","non_adjacent","4","2","Q.jpg","R.jpg","1","0","0","","",""
"","","","html-keyboard-response","169","58840","0.0-1.0-222.0-0.0","0","0","71923","","null","feedback","","","null","24","","","","","","","","","","","","","","",""
"","","","html-keyboard-response","170","58943","0.0-1.0-224.0-0.0","0","0","71923","","null","time_out","","","null","24","","","","","","","","","","","","","","",""
"","","","html-keyboard-response","171","59446","0.0-1.0-225.0","0","0","71923","","128","ITI","","","75","24","","","","","","","","","","","","","k","",""
"","","","html-keyboard-response","172","59700","0.0-1.0-227.0","0","0","71923","","null","S1","","","null","25","","","","","","","","","","","","","","",""
"","","","html-keyboard-response","173","59805","0.0-1.0-228.0","0","0","71923","","null","ISI","","","null","25","","","","","","","","","","","","","","",""
"","","","html-keyboard-response","174","60056","0.0-1.0-229.0","0","0","71923","","null","S2","","","null","25","","","","","","","","","","","","","","",""
"","","","html-keyboard-response","175","60558","0.0-1.0-230.0","0","0","71923","","null","response","","","null","25","","4","25","test","adjacent","2","3","R.jpg","P.jpg","NaN","1","0","","",""
"","","","html-keyboard-response","176","61561","0.0-1.0-232.0-0.0","1","0","71923","","null","too_slow_prompt","","","null","","","","","","","","","","","","","","","",""
"","","","html-keyboard-response","177","61665","0.0-1.0-233.0-0.0","0","0","71923","","null","time_out","","","null","25","","","","","","","","","","","","","","",""
"","","","html-keyboard-response","178","62167","0.0-1.0-234.0","0","0","71923","","null","ITI","","","null","25","","","","","","","","","","","","","","",""
"","","","html-keyboard-response","179","62423","0.0-1.0-236.0","0","0","71923","","null","S1","","","null","26","","","","","","","","","","","","","","",""
"","","","html-keyboard-response","180","62529","0.0-1.0-237.0","0","0","71923","","null","ISI","","","null","26","","","","","","","","","","","","","","",""
"","","","html-keyboard-response","181","62784","0.0-1.0-238.0","0","0","71923","","null","S2","","","null","26","","","","","","","","","","","","","","",""
"","","","html-keyboard-response","182","62975","0.0-1.0-239.0","0","0","71923","","190","response","","","75","26","","4","26","test","non_adjacent","7","2","L.jpg","R.jpg","1","0","0","","",""
"","","","html-keyboard-response","183","63079","0.0-1.0-240.0-0.0","0","0","71923","","null","feedback","","","null","26","","","","","","","","","","","","","","",""
"","","","html-keyboard-response","184","63184","0.0-1.0-242.0-0.0","0","0","71923","","null","time_out","","","null","26","","","","","","","","","","","","","","",""
"","","","html-keyboard-response","185","63690","0.0-1.0-243.0","0","0","71923","","45","ITI","","","75","26","","","","","","","","","","","","","k","",""
"","","","html-keyboard-response","186","63943","0.0-1.0-245.0","0","0","71923","","null","S1","","","null","27","","","","","","","","","","","","","","",""
"","","","html-keyboard-response","187","64046","0.0-1.0-246.0","0","0","71923","","null","ISI","","","null","27","","","","","","","","","","","","","","",""
"","","","html-keyboard-response","188","64299","0.0-1.0-247.0","0","0","71923","","null","S2","","","null","27","","","","","","","","","","","","","","",""
"","","","html-keyboard-response","189","64310","0.0-1.0-248.0","0","0","71923","","11","response","","","75","27","","4","27","test","non_adjacent","6","2","N.jpg","R.jpg","1","0","0","","",""
"","","","html-keyboard-response","190","64413","0.0-1.0-249.0-0.0","0","0","71923","","null","feedback","","","null","27","","","","","","","","","","","","","","",""
"","","","html-keyboard-response","191","64518","0.0-1.0-251.0-0.0","0","0","71923","","null","time_out","","","null","27","","","","","","","","","","","","","","",""
"","","","html-keyboard-response","192","65020","0.0-1.0-252.0","0","0","71923","","40","ITI","","","75","27","","","","","","","","","","","","","k","",""
"","","","html-keyboard-response","193","65276","0.0-1.0-254.0","0","0","71923","","null","S1","","","null","28","","","","","","","","","","","","","","",""
"","","","html-keyboard-response","194","65378","0.0-1.0-255.0","0","0","71923","","null","ISI","","","null","28","","","","","","","","","","","","","","",""
"","","","html-keyboard-response","195","65631","0.0-1.0-256.0","0","0","71923","","179","S2","","","75","28","k","","","","","","","","","","","","","",""
"","","","html-keyboard-response","196","65936","0.0-1.0-257.0","0","0","71923","","303","response","","","75","28","","4","28","test","adjacent","2","1","R.jpg","M.jpg","1","0","0","","",""
"","","","html-keyboard-response","197","66040","0.0-1.0-258.0-0.0","0","0","71923","","null","feedback","","","null","28","","","","","","","","","","","","","","",""
"","","","html-keyboard-response","198","66142","0.0-1.0-260.0-0.0","0","0","71923","","null","time_out","","","null","28","","","","","","","","","","","","","","",""
"","","","html-keyboard-response","199","66645","0.0-1.0-261.0","0","0","71923","","224","ITI","","","75","28","","","","","","","","","","","","","k","",""
"","","","html-keyboard-response","200","66900","0.0-1.0-263.0","0","0","71923","","null","S1","","","null","29","","","","","","","","","","","","","","",""
"","","","html-keyboard-response","201","67001","0.0-1.0-264.0","0","0","71923","","16","ISI","","","75","29","","","","","","","","","","","","","","k",""
"","","","html-keyboard-response","202","67256","0.0-1.0-265.0","0","0","71923","","null","S2","","","null","29","","","","","","","","","","","","","","",""
"","","","html-keyboard-response","203","67269","0.0-1.0-266.0","0","0","71923","","11","response","","","75","29","","4","29","test","non_adjacent","7","1","L.jpg","M.jpg","1","0","0","","",""
"","","","html-keyboard-response","204","67373","0.0-1.0-267.0-0.0","0","0","71923","","null","feedback","","","null","29","","","","","","","","","","","","","","",""
"","","","html-keyboard-response","205","67478","0.0-1.0-269.0-0.0","0","0","71923","","null","time_out","","","null","29","","","","","","","","","","","","","","",""
"","","","html-keyboard-response","206","67980","0.0-1.0-270.0","0","0","71923","","93","ITI","","","75","29","","","","","","","","","","","","","k","",""
"","","","html-keyboard-response","207","68236","0.0-1.0-272.0","0","0","71923","","null","S1","","","null","30","","","","","","","","","","","","","","",""
"","","","html-keyboard-response","208","68339","0.0-1.0-273.0","0","0","71923","","null","ISI","","","null","30","","","","","","","","","","","","","","",""
"","","","html-keyboard-response","209","68595","0.0-1.0-274.0","0","0","71923","","7","S2","","","75","30","k","","","","","","","","","","","","","",""
"","","","html-keyboard-response","210","68630","0.0-1.0-275.0","0","0","71923","","33","response","","","75","30","","4","30","test","non_adjacent","5","2","O.jpg","R.jpg","1","0","0","","",""
"","","","html-keyboard-response","211","68733","0.0-1.0-276.0-0.0","0","0","71923","","null","feedback","","","null","30","","","","","","","","","","","","","","",""
"","","","html-keyboard-response","212","68836","0.0-1.0-278.0-0.0","0","0","71923","","null","time_out","","","null","30","","","","","","","","","","","","","","",""
"","","","html-keyboard-response","213","69339","0.0-1.0-279.0","0","0","71923","","74","ITI","","","75","30","","","","","","","","","","","","","k","",""
"","","","html-keyboard-response","214","69594","0.0-1.0-281.0","0","0","71923","","null","S1","","","null","31","","","","","","","","","","","","","","",""
"","","","html-keyboard-response","215","69697","0.0-1.0-282.0","0","0","71923","","27","ISI","","","75","31","","","","","","","","","","","","","","k",""
"","","","html-keyboard-response","216","69953","0.0-1.0-283.0","0","0","71923","","null","S2","","","null","31","","","","","","","","","","","","","","",""
"","","","html-keyboard-response","217","70020","0.0-1.0-284.0","0","0","71923","","66","response","","","75","31","","4","31","test","non_adjacent","4","1","Q.jpg","M.jpg","1","0","0","","",""
"","","","html-keyboard-response","218","70123","0.0-1.0-285.0-0.0","0","0","71923","","null","feedback","","","null","31","","","","","","","","","","","","","","",""
"","","","html-keyboard-response","219","70227","0.0-1.0-287.0-0.0","0","0","71923","","null","time_out","","","null","31","","","","","","","","","","","","","","",""
"","","","html-keyboard-response","220","70728","0.0-1.0-288.0","0","0","71923","","24","ITI","","","75","31","","","","","","","","","","","","","k","",""
"","","","html-keyboard-response","221","70983","0.0-1.0-290.0","0","0","71923","","null","S1","","","null","32","","","","","","","","","","","","","","",""
"","","","html-keyboard-response","222","71089","0.0-1.0-291.0","0","0","71923","","null","ISI","","","null","32","","","","","","","","","","","","","","",""
"","","","html-keyboard-response","223","71346","0.0-1.0-292.0","0","0","71923","","44","S2","","","75","32","k","","","","","","","","","","","","","",""
"","","","html-keyboard-response","224","71398","0.0-1.0-293.0","0","0","71923","","52","response","","","75","32","","4","32","test","non_adjacent","3","1","P.jpg","M.jpg","1","0","0","","",""
"","","","html-keyboard-response","225","71501","0.0-1.0-294.0-0.0","0","0","71923","","null","feedback","","","null","32","","","","","","","","","","","","","","",""
"","","","html-keyboard-response","226","71606","0.0-1.0-296.0-0.0","0","0","71923","","null","time_out","","","null","32","","","","","","","","","","","","","","",""
"","","","html-keyboard-response","227","72108","0.0-1.0-297.0","0","0","71923","","184","ITI","","","75","32","","","","","","","","","","","","","k","",""
"","","","html-keyboard-response","228","72360","0.0-1.0-299.0","0","0","71923","","null","S1","","","null","33","","","","","","","","","","","","","","",""
"","","","html-keyboard-response","229","72464","0.0-1.0-300.0","0","0","71923","","null","ISI","","","null","33","","","","","","","","","","","","","","",""
"","","","html-keyboard-response","230","72716","0.0-1.0-301.0","0","0","71923","","27","S2","","","75","33","k","","","","","","","","","","","","","",""
"","","","html-keyboard-response","231","72759","0.0-1.0-302.0","0","0","71923","","41","response","","","75","33","","4","33","test","adjacent","3","2","P.jpg","R.jpg","1","0","0","","",""
"","","","html-keyboard-response","232","72861","0.0-1.0-303.0-0.0","0","0","71923","","null","feedback","","","null","33","","","","","","","","","","","","","","",""
"","","","html-keyboard-response","233","72964","0.0-1.0-305.0-0.0","0","0","71923","","null","time_out","","","null","33","","","","","","","","","","","","","","",""
"","","","html-keyboard-response","234","73468","0.0-1.0-306.0","0","0","71923","","null","ITI","","","null","33","","","","","","","","","","","","","","",""
"","","","html-keyboard-response","235","73722","0.0-1.0-308.0","0","0","71923","","null","S1","","","null","34","","","","","","","","","","","","","","",""
"","","","html-keyboard-response","236","73828","0.0-1.0-309.0","0","0","71923","","null","ISI","","","null","34","","","","","","","","","","","","","","",""
"","","","html-keyboard-response","237","74084","0.0-1.0-310.0","0","0","71923","","79","S2","","","75","34","k","","","","","","","","","","","","","",""
"","","","html-keyboard-response","238","74166","0.0-1.0-311.0","0","0","71923","","82","response","","","75","34","","4","34","test","non_adjacent","5","1","O.jpg","M.jpg","1","0","0","","",""
"","","","html-keyboard-response","239","74268","0.0-1.0-312.0-0.0","0","0","71923","","null","feedback","","","null","34","","","","","","","","","","","","","","",""
"","","","html-keyboard-response","240","74372","0.0-1.0-314.0-0.0","0","0","71923","","null","time_out","","","null","34","","","","","","","","","","","","","","",""
"","","","html-keyboard-response","241","74878","0.0-1.0-315.0","0","0","71923","","50","ITI","","","75","34","","","","","","","","","","","","","k","",""
"","","","html-keyboard-response","242","75130","0.0-1.0-317.0","0","0","71923","","null","S1","","","null","35","","","","","","","","","","","","","","",""
"","","","html-keyboard-response","243","75235","0.0-1.0-318.0","0","0","71923","","null","ISI","","","null","35","","","","","","","","","","","","","","",""
"","","","html-keyboard-response","244","75489","0.0-1.0-319.0","0","0","71923","","null","S2","","","null","35","","","","","","","","","","","","","","",""
"","","","html-keyboard-response","245","75856","0.0-1.0-320.0","0","0","71923","","367","response","","","75","35","","4","35","test","adjacent","1","2","M.jpg","R.jpg","1","1","1","","",""
"","","","html-keyboard-response","246","75961","0.0-1.0-321.0-0.0","0","0","71923","","null","feedback","","","null","35","","","","","","","","","","","","","","",""
"","","","html-keyboard-response","247","76464","0.0-1.0-324.0","0","0","71923","","111","ITI","","","75","35","","","","","","","","","","","","","k","",""
"","","","html-keyboard-response","248","76717","0.0-1.0-326.0","0","0","71923","","null","S1","","","null","36","","","","","","","","","","","","","","",""
"","","","html-keyboard-response","249","76822","0.0-1.0-327.0","0","0","71923","","null","ISI","","","null","36","","","","","","","","","","","","","","",""
"","","","html-keyboard-response","250","77078","0.0-1.0-328.0","0","0","71923","","108","S2","","","75","36","k","","","","","","","","","","","","","",""
"","","","html-keyboard-response","251","77196","0.0-1.0-329.0","0","0","71923","","117","response","","","75","36","","4","36","test","non_adjacent","6","1","N.jpg","M.jpg","1","0","0","","",""
"","","","html-keyboard-response","252","77300","0.0-1.0-330.0-0.0","0","0","71923","","null","feedback","","","null","36","","","","","","","","","","","","","","",""
"","","","html-keyboard-response","253","77405","0.0-1.0-332.0-0.0","0","0","71923","","null","time_out","","","null","36","","","","","","","","","","","","","","",""
"","","","html-keyboard-response","254","77910","0.0-1.0-333.0","0","0","71923","","66","ITI","","","75","36","","","","","","","","","","","","","k","",""
"","","","html-keyboard-response","255","78161","0.0-1.0-335.0","0","0","71923","","null","S1","","","null","37","","","","","","","","","","","","","","",""
"","","","html-keyboard-response","256","78265","0.0-1.0-336.0","0","0","71923","","3","ISI","","","75","37","","","","","","","","","","","","","","k",""
"","","","html-keyboard-response","257","78522","0.0-1.0-337.0","0","0","71923","","null","S2","","","null","37","","","","","","","","","","","","","","",""
"","","","html-keyboard-response","258","78599","0.0-1.0-338.0","0","0","71923","","76","response","","","75","37","","4","37","test","non_adjacent","1","3","M.jpg","P.jpg","1","1","1","","",""
"","","","html-keyboard-response","259","78703","0.0-1.0-339.0-0.0","0","0","71923","","null","feedback","","","null","37","","","","","","","","","","","","","","",""
"","","","html-keyboard-response","260","79205","0.0-1.0-342.0","0","0","71923","","109","ITI","","","75","37","","","","","","","","","","","","","k","",""
"","","","html-keyboard-response","261","79952","0.0-1.0-343.0-0.0","0","0","71923","","745","block_over","","","32","37","","","","","","","","","","","","","","",""
"","","","html-keyboard-response","262","80205","0.0-1.0-344.0","0","0","71923","","null","S1","","","null","38","","","","","","","","","","","","","","",""
"","","","html-keyboard-response","263","80312","0.0-1.0-345.0","0","0","71923","","null","ISI","","","null","38","","","","","","","","","","","","","","",""
"","","","html-keyboard-response","264","80566","0.0-1.0-346.0","0","0","71923","","null","S2","","","null","38","","","","","","","","","","","","","","",""
"","","","html-keyboard-response","265","80731","0.0-1.0-347.0","0","0","71923","","164","response","","","75","38","","5","38","test","non_adjacent","5","3","O.jpg","P.jpg","1","0","0","","",""
"","","","html-keyboard-response","266","80835","0.0-1.0-348.0-0.0","0","0","71923","","null","feedback","","","null","38","","","","","","","","","","","","","","",""
"","","","html-keyboard-response","267","80939","0.0-1.0-350.0-0.0","0","0","71923","","null","time_out","","","null","38","","","","","","","","","","","","","","",""
"","","","html-keyboard-response","268","81440","0.0-1.0-351.0","0","0","71923","","20","ITI","","","75","38","","","","","","","","","","","","","k","",""
"","","","html-keyboard-response","269","81695","0.0-1.0-353.0","0","0","71923","","null","S1","","","null","39","","","","","","","","","","","","","","",""
"","","","html-keyboard-response","270","81796","0.0-1.0-354.0","0","0","71923","","13","ISI","","","75","39","","","","","","","","","","","","","","k",""
"","","","html-keyboard-response","271","82049","0.0-1.0-355.0","0","0","71923","","null","S2","","","null","39","","","","","","","","","","","","","","",""
"","","","html-keyboard-response","272","82135","0.0-1.0-356.0","0","0","71923","","84","response","","","75","39","","5","39","test","non_adjacent","2","5","R.jpg","O.jpg","1","1","1","","",""
"","","","html-keyboard-response","273","82239","0.0-1.0-357.0-0.0","0","0","71923","","null","feedback","","","null","39","","","","","","","","","","","","","","",""
"","","","html-keyboard-response","274","82744","0.0-1.0-360.0","0","0","71923","","159","ITI","","","75","39","","","","","","","","","","","","","k","",""
"","","","html-keyboard-response","275","82996","0.0-1.0-362.0","0","0","71923","","null","S1","","","null","40","","","","","","","","","","","","","","",""
"","","","html-keyboard-response","276","83098","0.0-1.0-363.0","0","0","71923","","41","ISI","","","75","40","","","","","","","","","","","","","","k",""
"","","","html-keyboard-response","277","83351","0.0-1.0-364.0","0","0","71923","","171","S2","","","75","40","k","","","","","","","","","","","","","",""
"","","","html-keyboard-response","278","83519","0.0-1.0-365.0","0","0","71923","","166","response","","","75","40","","5","40","test","non_adjacent","7","3","L.jpg","P.jpg","1","0","0","","",""
"","","","html-keyboard-response","279","83622","0.0-1.0-366.0-0.0","0","0","71923","","null","feedback","","","null","40","","","","","","","","","","","","","","",""
"","","","html-keyboard-response","280","83728","0.0-1.0-368.0-0.0","0","0","71923","","null","time_out","","","null","40","","","","","","","","","","","","","","",""
"","","","html-keyboard-response","281","84229","0.0-1.0-369.0","0","0","71923","","214","ITI","","","75","40","","","","","","","","","","","","","k","",""
"","","","html-keyboard-response","282","84485","0.0-1.0-371.0","0","0","71923","","null","S1","","","null","41","","","","","","","","","","","","","","",""
"","","","html-keyboard-response","283","84588","0.0-1.0-372.0","0","0","71923","","null","ISI","","","null","41","","","","","","","","","","","","","","",""
"","","","html-keyboard-response","284","84843","0.0-1.0-373.0","0","0","71923","","97","S2","","","75","41","k","","","","","","","","","","","","","",""
"","","","html-keyboard-response","285","84900","0.0-1.0-374.0","0","0","71923","","55","response","","","75","41","","5","41","test","adjacent","4","5","Q.jpg","O.jpg","1","1","1","","",""
"","","","html-keyboard-response","286","85001","0.0-1.0-375.0-0.0","0","0","71923","","null","feedback","","","null","41","","","","","","","","","","","","","","",""
"","","","html-keyboard-response","287","85505","0.0-1.0-378.0","0","0","71923","","132","ITI","","","75","41","","","","","","","","","","","","","k","",""
"","","","html-keyboard-response","288","85758","0.0-1.0-380.0","0","0","71923","","null","S1","","","null","42","","","","","","","","","","","","","","",""
"","","","html-keyboard-response","289","85864","0.0-1.0-381.0","0","0","71923","","64","ISI","","","75","42","","","","","","","","","","","","","","k",""
"","","","html-keyboard-response","290","86121","0.0-1.0-382.0","0","0","71923","","197","S2","","","75","42","k","","","","","","","","","","","","","",""
"","","","html-keyboard-response","291","86511","0.0-1.0-383.0","0","0","71923","","388","response","","","75","42","","5","42","test","non_adjacent","3","5","P.jpg","O.jpg","1","1","1","","",""
"","","","html-keyboard-response","292","86616","0.0-1.0-384.0-0.0","0","0","71923","","null","feedback","","","null","42","","","","","","","","","","","","","","",""
"","","","html-keyboard-response","293","87122","0.0-1.0-387.0","0","0","71923","","117","ITI","","","75","42","","","","","","","","","","","","","k","",""
"","","","html-keyboard-response","294","87378","0.0-1.0-389.0","0","0","71923","","null","S1","","","null","43","","","","","","","","","","","","","","",""
"","","","html-keyboard-response","295","87484","0.0-1.0-390.0","0","0","71923","","null","ISI","","","null","43","","","","","","","","","","","","","","",""
"","","","html-keyboard-response","296","87738","0.0-1.0-391.0","0","0","71923","","null","S2","","","null","43","","","","","","","","","","","","","","",""
"","","","html-keyboard-response","297","87782","0.0-1.0-392.0","0","0","71923","","43","response","","","75","43","","5","43","test","adjacent","4","3","Q.jpg","P.jpg","1","0","0","","",""
"","","","html-keyboard-response","298","87885","0.0-1.0-393.0-0.0","0","0","71923","","null","feedback","","","null","43","","","","","","","","","","","","","","",""
"","","","html-keyboard-response","299","87988","0.0-1.0-395.0-0.0","0","0","71923","","null","time_out","","","null","43","","","","","","","","","","","","","","",""
"","","","html-keyboard-response","300","88495","0.0-1.0-396.0","0","0","71923","","34","ITI","","","75","43","","","","","","","","","","","","","k","",""
"","","","html-keyboard-response","301","88750","0.0-1.0-398.0","0","0","71923","","null","S1","","","null","44","","","","","","","","","","","","","","",""
"","","","html-keyboard-response","302","88853","0.0-1.0-399.0","0","0","71923","","52","ISI","","","75","44","","","","","","","","","","","","","","k",""
"","","","html-keyboard-response","303","89106","0.0-1.0-400.0","0","0","71923","","182","S2","","","75","44","k","","","","","","","","","","","","","",""
"","","","html-keyboard-response","304","89269","0.0-1.0-401.0","0","0","71923","","162","response","","","75","44","","5","44","test","non_adjacent","7","4","L.jpg","Q.jpg","1","0","0","","",""
"","","","html-keyboard-response","305","89372","0.0-1.0-402.0-0.0","0","0","71923","","null","feedback","","","null","44","","","","","","","","","","","","","","",""
"","","","html-keyboard-response","306","89477","0.0-1.0-404.0-0.0","0","0","71923","","null","time_out","","","null","44","","","","","","","","","","","","","","",""
"","","","html-keyboard-response","307","89982","0.0-1.0-405.0","0","0","71923","","22","ITI","","","75","44","","","","","","","","","","","","","k","",""
"","","","html-keyboard-response","308","90238","0.0-1.0-407.0","0","0","71923","","null","S1","","","null","45","","","","","","","","","","","","","","",""
"","","","html-keyboard-response","309","90342","0.0-1.0-408.0","0","0","71923","","null","ISI","","","null","45","","","","","","","","","","","","","","",""
"","","","html-keyboard-response","310","90595","0.0-1.0-409.0","0","0","71923","","214","S2","","","75","45","k","","","","","","","","","","","","","",""
"","","","html-keyboard-response","311","90793","0.0-1.0-410.0","0","0","71923","","197","response","","","75","45","","5","45","test","non_adjacent","6","3","N.jpg","P.jpg","1","0","0","","",""
"","","","html-keyboard-response","312","90898","0.0-1.0-411.0-0.0","0","0","71923","","null","feedback","","","null","45","","","","","","","","","","","","","","",""
"","","","html-keyboard-response","313","91000","0.0-1.0-413.0-0.0","0","0","71923","","null","time_out","","","null","45","","","","","","","","","","","","","","",""
"","","","html-keyboard-response","314","91505","0.0-1.0-414.0","0","0","71923","","19","ITI","","","75","45","","","","","","","","","","","","","k","",""
"","","","html-keyboard-response","315","91760","0.0-1.0-416.0","0","0","71923","","null","S1","","","null","46","","","","","","","","","","","","","","",""
"","","","html-keyboard-response","316","91864","0.0-1.0-417.0","0","0","71923","","null","ISI","","","null","46","","","","","","","","","","","","","","",""
"","","","html-keyboard-response","317","92117","0.0-1.0-418.0","0","0","71923","","null","S2","","","null","46","","","","","","","","","","","","","","",""
"","","","html-keyboard-response","318","92261","0.0-1.0-419.0","0","0","71923","","142","response","","","75","46","","5","46","test","non_adjacent","6","4","N.jpg","Q.jpg","1","0","0","","",""
"","","","html-keyboard-response","319","92364","0.0-1.0-420.0-0.0","0","0","71923","","null","feedback","","","null","46","","","","","","","","","","","","","","",""
"","","","html-keyboard-response","320","92469","0.0-1.0-422.0-0.0","0","0","71923","","null","time_out","","","null","46","","","","","","","","","","","","","","",""
"","","","html-keyboard-response","321","92972","0.0-1.0-423.0","0","0","71923","","56","ITI","","","75","46","","","","","","","","","","","","","k","",""
"","","","html-keyboard-response","322","93227","0.0-1.0-425.0","0","0","71923","","null","S1","","","null","47","","","","","","","","","","","","","","",""
"","","","html-keyboard-response","323","93329","0.0-1.0-426.0","0","0","71923","","8","ISI","","","75","47","","","","","","","","","","","","","","k",""
"","","","html-keyboard-response","324","93585","0.0-1.0-427.0","0","0","71923","","null","S2","","","null","47","","","","","","","","","","","","","","",""
"","","","html-keyboard-response","325","94088","0.0-1.0-428.0","0","0","71923","","null","response","","","null","47","","5","47","test","non_adjacent","1","5","M.jpg","O.jpg","NaN","1","0","","",""
"","","","html-keyboard-response","326","95095","0.0-1.0-430.0-0.0","1","0","71923","","null","too_slow_prompt","","","null","","","","","","","","","","","","","","","",""
"","","","html-keyboard-response","327","95200","0.0-1.0-431.0-0.0","0","0","71923","","null","time_out","","","null","47","","","","","","","","","","","","","","",""
"","","","html-keyboard-response","328","95701","0.0-1.0-432.0","0","0","71923","","237","ITI","","","75","47","","","","","","","","","","","","","k","",""
"","","","html-keyboard-response","329","95954","0.0-1.0-434.0","0","0","71923","","null","S1","","","null","48","","","","","","","","","","","","","","",""
"","","","html-keyboard-response","330","96061","0.0-1.0-435.0","0","0","71923","","null","ISI","","","null","48","","","","","","","","","","","","","","",""
"","","","html-keyboard-response","331","96316","0.0-1.0-436.0","0","0","71923","","93","S2","","","75","48","k","","","","","","","","","","","","","",""
"","","","html-keyboard-response","332","96821","0.0-1.0-437.0","0","0","71923","","null","response","","","null","48","","5","48","test","adjacent","5","4","O.jpg","Q.jpg","NaN","0","0","","",""
"","","","html-keyboard-response","333","97826","0.0-1.0-439.0-0.0","1","0","71923","","null","too_slow_prompt","","","null","","","","","","","","","","","","","","","",""
"","","","html-keyboard-response","334","97927","0.0-1.0-440.0-0.0","0","0","71923","","null","time_out","","","null","48","","","","","","","","","","","","","","",""
"","","","html-keyboard-response","335","98432","0.0-1.0-441.0","0","0","71923","","null","ITI","","","null","48","","","","","","","","","","","","","","",""
"","","","html-keyboard-response","336","98688","0.0-1.0-443.0","0","0","71923","","null","S1","","","null","49","","","","","","","","","","","","","","",""
"","","","html-keyboard-response","337","98789","0.0-1.0-444.0","0","0","71923","","null","ISI","","","null","49","","","","","","","","","","","","","","",""
"","","","html-keyboard-response","338","99043","0.0-1.0-445.0","0","0","71923","","null","S2","","","null","49","","","","","","","","","","","","","","",""
"","","","html-keyboard-response","339","99174","0.0-1.0-446.0","0","0","71923","","131","response","","","75","49","","5","49","test","non_adjacent","1","4","M.jpg","Q.jpg","1","1","1","","",""
"","","","html-keyboard-response","340","99277","0.0-1.0-447.0-0.0","0","0","71923","","null","feedback","","","null","49","","","","","","","","","","","","","","",""
"","","","html-keyboard-response","341","99782","0.0-1.0-450.0","0","0","71923","","103","ITI","","","75","49","","","","","","","","","","","","","k","",""
"","","","html-keyboard-response","342","100034","0.0-1.0-452.0","0","0","71923","","null","S1","","","null","50","","","","","","","","","","","","","","",""
"","","","html-keyboard-response","343","100136","0.0-1.0-453.0","0","0","71923","","null","ISI","","","null","50","","","","","","","","","","","","","","",""
"","","","html-keyboard-response","344","100391","0.0-1.0-454.0","0","0","71923","","101","S2","","","75","50","k","","","","","","","","","","","","","",""
"","","","html-keyboard-response","345","100429","0.0-1.0-455.0","0","0","71923","","36","response","","","75","50","","5","50","test","adjacent","3","4","P.jpg","Q.jpg","1","1","1","","",""
"","","","html-keyboard-response","346","100530","0.0-1.0-456.0-0.0","0","0","71923","","null","feedback","","","null","50","","","","","","","","","","","","","","",""
"","","","html-keyboard-response","347","101034","0.0-1.0-459.0","0","0","71923","","106","ITI","","","75","50","","","","","","","","","","","","","k","",""
"","","","html-keyboard-response","348","101287","0.0-1.0-461.0","0","0","71923","","null","S1","","","null","51","","","","","","","","","","","","","","",""
"","","","html-keyboard-response","349","101389","0.0-1.0-462.0","0","0","71923","","null","ISI","","","null","51","","","","","","","","","","","","","","",""
"","","","html-keyboard-response","350","101640","0.0-1.0-463.0","0","0","71923","","6","S2","","","75","51","k","","","","","","","","","","","","","",""
"","","","html-keyboard-response","351","101653","0.0-1.0-464.0","0","0","71923","","12","response","","","75","51","","5","51","test","non_adjacent","2","4","R.jpg","Q.jpg","1","1","1","","",""
"","","","html-keyboard-response","352","101758","0.0-1.0-465.0-0.0","0","0","71923","","null","feedback","","","null","51","","","","","","","","","","","","","","",""
"","","","html-keyboard-response","353","102261","0.0-1.0-468.0","0","0","71923","","150","ITI","","","75","51","","","","","","","","","","","","","k","",""
"","","","html-keyboard-response","354","110580","0.0-1.0-469.0-0.0","0","0","71923","","8318","block_over","","","32","51","","","","","","","","","","","","","","",""
"","","","html-keyboard-response","355","110833","0.0-1.0-470.0","0","0","71923","","null","S1","","","null","52","","","","","","","","","","","","","","",""
"","","","html-keyboard-response","356","110937","0.0-1.0-471.0","0","0","71923","","null","ISI","","","null","52","","","","","","","","","","","","","","",""
"","","","html-keyboard-response","357","111190","0.0-1.0-472.0","0","0","71923","","null","S2","","","null","52","","","","","","","","","","","","","","",""
"","","","html-keyboard-response","358","111385","0.0-1.0-473.0","0","0","71923","","193","response","","","75","52","","6","52","test","non_adjacent","1","7","M.jpg","L.jpg","1","1","1","","",""
"","","","html-keyboard-response","359","111486","0.0-1.0-474.0-0.0","0","0","71923","","null","feedback","","","null","52","","","","","","","","","","","","","","",""
"","","","html-keyboard-response","360","111992","0.0-1.0-477.0","0","0","71923","","97","ITI","","","75","52","","","","","","","","","","","","","k","",""
"","","","html-keyboard-response","361","112246","0.0-1.0-479.0","0","0","71923","","null","S1","","","null","53","","","","","","","","","","","","","","",""
"","","","html-keyboard-response","362","112348","0.0-1.0-480.0","0","0","71923","","55","ISI","","","75","53","","","","","","","","","","","","","","k",""
"","","","html-keyboard-response","363","112600","0.0-1.0-481.0","0","0","71923","","205","S2","","","75","53","k","","","","","","","","","","","","","",""
"","","","html-keyboard-response","364","112800","0.0-1.0-482.0","0","0","71923","","199","response","","","75","53","","6","53","test","adjacent","5","6","O.jpg","N.jpg","1","1","1","","",""
"","","","html-keyboard-response","365","112904","0.0-1.0-483.0-0.0","0","0","71923","","null","feedback","","","null","53","","","","","","","","","","","","","","",""
"","","","html-keyboard-response","366","113405","0.0-1.0-486.0","0","0","71923","","138","ITI","","","75","53","","","","","","","","","","","","","k","",""
"","","","html-keyboard-response","367","113659","0.0-1.0-488.0","0","0","71923","","null","S1","","","null","54","","","","","","","","","","","","","","",""
"","","","html-keyboard-response","368","113764","0.0-1.0-489.0","0","0","71923","","null","ISI","","","null","54","","","","","","","","","","","","","","",""
"","","","html-keyboard-response","369","114020","0.0-1.0-490.0","0","0","71923","","47","S2","","","75","54","k","","","","","","","","","","","","","",""
"","","","html-keyboard-response","370","114068","0.0-1.0-491.0","0","0","71923","","47","response","","","75","54","","6","54","test","non_adjacent","1","6","M.jpg","N.jpg","1","1","1","","",""
"","","","html-keyboard-response","371","114174","0.0-1.0-492.0-0.0","0","0","71923","","null","feedback","","","null","54","","","","","","","","","","","","","","",""
"","","","html-keyboard-response","372","114679","0.0-1.0-495.0","0","0","71923","","117","ITI","","","75","54","","","","","","","","","","","","","k","",""
"","","","html-keyboard-response","373","114933","0.0-1.0-497.0","0","0","71923","","null","S1","","","null","55","","","","","","","","","","","","","","",""
"","","","html-keyboard-response","374","115036","0.0-1.0-498.0","0","0","71923","","null","ISI","","","null","55","","","","","","","","","","","","","","",""
"","","","html-keyboard-response","375","115291","0.0-1.0-499.0","0","0","71923","","134","S2","","","75","55","k","","","","","","","","","","","","","",""
"","","","html-keyboard-response","376","115397","0.0-1.0-500.0","0","0","71923","","105","response","","","75","55","","6","55","test","non_adjacent","3","6","P.jpg","N.jpg","1","1","1","","",""
"","","","html-keyboard-response","377","115499","0.0-1.0-501.0-0.0","0","0","71923","","null","feedback","","","null","55","","","","","","","","","","","","","","",""
"","","","html-keyboard-response","378","116003","0.0-1.0-504.0","0","0","71923","","143","ITI","","","75","55","","","","","","","","","","","","","k","",""
"","","","html-keyboard-response","379","116256","0.0-1.0-506.0","0","0","71923","","null","S1","","","null","56","","","","","","","","","","","","","","",""
"","","","html-keyboard-response","380","116358","0.0-1.0-507.0","0","0","71923","","null","ISI","","","null","56","","","","","","","","","","","","","","",""
"","","","html-keyboard-response","381","116613","0.0-1.0-508.0","0","0","71923","","28","S2","","","75","56","k","","","","","","","","","","","","","",""
"","","","html-keyboard-response","382","116637","0.0-1.0-509.0","0","0","71923","","24","response","","","75","56","","6","56","test","adjacent","7","6","L.jpg","N.jpg","1","0","0","","",""
"","","","html-keyboard-response","383","116741","0.0-1.0-510.0-0.0","0","0","71923","","null","feedback","","","null","56","","","","","","","","","","","","","","",""
"","","","html-keyboard-response","384","116843","0.0-1.0-512.0-0.0","0","0","71923","","null","time_out","","","null","56","","","","","","","","","","","","","","",""
"","","","html-keyboard-response","385","117349","0.0-1.0-513.0","0","0","71923","","57","ITI","","","75","56","","","","","","","","","","","","","k","",""
"","","","html-keyboard-response","386","117601","0.0-1.0-515.0","0","0","71923","","null","S1","","","null","57","","","","","","","","","","","","","","",""
"","","","html-keyboard-response","387","117703","0.0-1.0-516.0","0","0","71923","","47","ISI","","","75","57","","","","","","","","","","","","","","k",""
"","","","html-keyboard-response","388","117960","0.0-1.0-517.0","0","0","71923","","196","S2","","","75","57","k","","","","","","","","","","","","","",""
"","","","html-keyboard-response","389","118125","0.0-1.0-518.0","0","0","71923","","163","response","","","75","57","","6","57","test","adjacent","6","7","N.jpg","L.jpg","1","1","1","","",""
"","","","html-keyboard-response","390","118227","0.0-1.0-519.0-0.0","0","0","71923","","null","feedback","","","null","57","","","","","","","","","","","","","","",""
"","","","html-keyboard-response","391","118731","0.0-1.0-522.0","0","0","71923","","105","ITI","","","75","57","","","","","","","","","","","","","k","",""
"","","","html-keyboard-response","392","118986","0.0-1.0-524.0","0","0","71923","","null","S1","","","null","58","","","","","","","","","","","","","","",""
"","","","html-keyboard-response","393","119091","0.0-1.0-525.0","0","0","71923","","7","ISI","","","75","58","","","","","","","","","","","","","","k",""
"","","","html-keyboard-response","394","119343","0.0-1.0-526.0","0","0","71923","","144","S2","","","75","58","k","","","","","","","","","","","","","",""
"","","","html-keyboard-response","395","119453","0.0-1.0-527.0","0","0","71923","","108","response","","","75","58","","6","58","test","non_adjacent","4","6","Q.jpg","N.jpg","1","1","1","","",""
"","","","html-keyboard-response","396","119555","0.0-1.0-528.0-0.0","0","0","71923","","null","feedback","","","null","58","","","","","","","","","","","","","","",""
"","","","html-keyboard-response","397","120061","0.0-1.0-531.0","0","0","71923","","128","ITI","","","75","58","","","","","","","","","","","","","k","",""
"","","","html-keyboard-response","398","120316","0.0-1.0-533.0","0","0","71923","","null","S1","","","null","59","","","","","","","","","","","","","","",""
"","","","html-keyboard-response","399","120420","0.0-1.0-534.0","0","0","71923","","72","ISI","","","75","59","","","","","","","","","","","","","","k",""
"","","","html-keyboard-response","400","120676","0.0-1.0-535.0","0","0","71923","","182","S2","","","75","59","k","","","","","","","","","","","","","",""
"","","","html-keyboard-response","401","120821","0.0-1.0-536.0","0","0","71923","","143","response","","","75","59","","6","59","test","non_adjacent","2","6","R.jpg","N.jpg","1","1","1","","",""
"","","","html-keyboard-response","402","120926","0.0-1.0-537.0-0.0","0","0","71923","","null","feedback","","","null","59","","","","","","","","","","","","","","",""
"","","","html-keyboard-response","403","121430","0.0-1.0-540.0","0","0","71923","","101","ITI","","","75","59","","","","","","","","","","","","","k","",""
"","","","html-keyboard-response","404","121686","0.0-1.0-542.0","0","0","71923","","null","S1","","","null","60","","","","","","","","","","","","","","",""
"","","","html-keyboard-response","405","121788","0.0-1.0-543.0","0","0","71923","","82","ISI","","","75","60","","","","","","","","","","","","","","k",""
"","","","html-keyboard-response","406","122042","0.0-1.0-544.0","0","0","71923","","184","S2","","","75","60","k","","","","","","","","","","","","","",""
"","","","html-keyboard-response","407","122213","0.0-1.0-545.0","0","0","71923","","169","response","","","75","60","","6","60","test","non_adjacent","4","7","Q.jpg","L.jpg","1","1","1","","",""
"","","","html-keyboard-response","408","122315","0.0-1.0-546.0-0.0","0","0","71923","","null","feedback","","","null","60","","","","","","","","","","","","","","",""
"","","","html-keyboard-response","409","122819","0.0-1.0-549.0","0","0","71923","","135","ITI","","","75","60","","","","","","","","","","","","","k","",""
"","","","html-keyboard-response","410","123076","0.0-1.0-551.0","0","0","71923","","null","S1","","","null","61","","","","","","","","","","","","","","",""
"","","","html-keyboard-response","411","123178","0.0-1.0-552.0","0","0","71923","","null","ISI","","","null","61","","","","","","","","","","","","","","",""
"","","","html-keyboard-response","412","123431","0.0-1.0-553.0","0","0","71923","","201","S2","","","75","61","k","","","","","","","","","","","","","",""
"","","","html-keyboard-response","413","123595","0.0-1.0-554.0","0","0","71923","","162","response","","","75","61","","6","61","test","non_adjacent","2","7","R.jpg","L.jpg","1","1","1","","",""
"","","","html-keyboard-response","414","123696","0.0-1.0-555.0-0.0","0","0","71923","","null","feedback","","","null","61","","","","","","","","","","","","","","",""
"","","","html-keyboard-response","415","124203","0.0-1.0-558.0","0","0","71923","","250","ITI","","","75","61","","","","","","","","","","","","","k","",""
"","","","html-keyboard-response","416","124456","0.0-1.0-560.0","0","0","71923","","null","S1","","","null","62","","","","","","","","","","","","","","",""
"","","","html-keyboard-response","417","124562","0.0-1.0-561.0","0","0","71923","","81","ISI","","","75","62","","","","","","","","","","","","","","k",""
"","","","html-keyboard-response","418","124819","0.0-1.0-562.0","0","0","71923","","null","S2","","","null","62","","","","","","","","","","","","","","",""
"","","","html-keyboard-response","419","124964","0.0-1.0-563.0","0","0","71923","","144","response","","","75","62","","6","62","test","non_adjacent","5","7","O.jpg","L.jpg","1","1","1","","",""
"","","","html-keyboard-response","420","125069","0.0-1.0-564.0-0.0","0","0","71923","","null","feedback","","","null","62","","","","","","","","","","","","","","",""
"","","","html-keyboard-response","421","125576","0.0-1.0-567.0","0","0","71923","","86","ITI","","","75","62","","","","","","","","","","","","","k","",""
"","","","html-keyboard-response","422","125830","0.0-1.0-569.0","0","0","71923","","null","S1","","","null","63","","","","","","","","","","","","","","",""
"","","","html-keyboard-response","423","125936","0.0-1.0-570.0","0","0","71923","","null","ISI","","","null","63","","","","","","","","","","","","","","",""
"","","","html-keyboard-response","424","126191","0.0-1.0-571.0","0","0","71923","","99","S2","","","75","63","k","","","","","","","","","","","","","",""
"","","","html-keyboard-response","425","126258","0.0-1.0-572.0","0","0","71923","","66","response","","","75","63","","6","63","test","non_adjacent","3","7","P.jpg","L.jpg","1","1","1","","",""
"","","","html-keyboard-response","426","126364","0.0-1.0-573.0-0.0","0","0","71923","","null","feedback","","","null","63","","","","","","","","","","","","","","",""
"","","","html-keyboard-response","427","126869","0.0-1.0-576.0","0","0","71923","","135","ITI","","","75","63","","","","","","","","","","","","","k","",""
"","","","html-keyboard-response","428","127126","0.0-1.0-578.0","0","0","71923","","null","S1","","","null","64","","","","","","","","","","","","","","",""
"","","","html-keyboard-response","429","127230","0.0-1.0-579.0","0","0","71923","","null","ISI","","","null","64","","","","","","","","","","","","","","",""
"","","","html-keyboard-response","430","127486","0.0-1.0-580.0","0","0","71923","","3","S2","","","75","64","k","","","","","","","","","","","","","",""
"","","","html-keyboard-response","431","127612","0.0-1.0-581.0","0","0","71923","","125","response","","","75","64","","6","64","test","adjacent","6","5","N.jpg","O.jpg","1","0","0","","",""
"","","","html-keyboard-response","432","127717","0.0-1.0-582.0-0.0","0","0","71923","","null","feedback","","","null","64","","","","","","","","","","","","","","",""
"","","","html-keyboard-response","433","127819","0.0-1.0-584.0-0.0","0","0","71923","","null","time_out","","","null","64","","","","","","","","","","","","","","",""
"","","","html-keyboard-response","434","128326","0.0-1.0-585.0","0","0","71923","","14","ITI","","","75","64","","","","","","","","","","","","","k","",""
"","","","html-keyboard-response","435","128578","0.0-1.0-587.0","0","0","71923","","null","S1","","","null","65","","","","","","","","","","","","","","",""
"","","","html-keyboard-response","436","128680","0.0-1.0-588.0","0","0","71923","","97","ISI","","","75","65","","","","","","","","","","","","","","k",""
"","","","html-keyboard-response","437","128936","0.0-1.0-589.0","0","0","71923","","194","S2","","","75","65","k","","","","","","","","","","","","","",""
"","","","html-keyboard-response","438","129388","0.0-1.0-590.0","0","0","71923","","451","response","","","75","65","","6","65","test","non_adjacent","7","5","L.jpg","O.jpg","1","0","0","","",""
"","","","html-keyboard-response","439","129491","0.0-1.0-591.0-0.0","0","0","71923","","null","feedback","","","null","65","","","","","","","","","","","","","","",""
"","","","html-keyboard-response","440","129594","0.0-1.0-593.0-0.0","0","0","71923","","null","time_out","","","null","65","","","","","","","","","","","","","","",""
"","","","html-keyboard-response","441","130099","0.0-1.0-594.0","0","0","71923","","25","ITI","","","75","65","","","","","","","","","","","","","k","",""
"","","","html-keyboard-response","442","135012","0.0-1.0-595.0-0.0","0","0","71923","","4910","block_over","","","32","65","","","","","","","","","","","","","","",""
"","","","html-keyboard-response","443","135269","0.0-1.0-596.0","0","0","71923","","null","S1","","","null","66","","","","","","","","","","","","","","",""
"","","","html-keyboard-response","444","135375","0.0-1.0-597.0","0","0","71923","","5","ISI","","","75","66","","","","","","","","","","","","","","k",""
"","","","html-keyboard-response","445","135627","0.0-1.0-598.0","0","0","71923","","148","S2","","","75","66","k","","","","","","","","","","","","","",""
"","","","html-keyboard-response","446","135724","0.0-1.0-599.0","0","0","71923","","94","response","","","75","66","","7","66","test","adjacent","3","2","P.jpg","R.jpg","1","0","0","","",""
"","","","html-keyboard-response","447","135831","0.0-1.0-600.0-0.0","0","0","71923","","null","feedback","","","null","66","","","","","","","","","","","","","","",""
"","","","html-keyboard-response","448","135935","0.0-1.0-602.0-0.0","0","0","71923","","null","time_out","","","null","66","","","","","","","","","","","","","","",""
"","","","html-keyboard-response","449","136439","0.0-1.0-603.0","0","0","71923","","3","ITI","","","75","66","","","","","","","","","","","","","k","",""
"","","","html-keyboard-response","450","136692","0.0-1.0-605.0","0","0","71923","","null","S1","","","null","67","","","","","","","","","","","","","","",""
"","","","html-keyboard-response","451","136794","0.0-1.0-606.0","0","0","71923","","null","ISI","","","null","67","","","","","","","","","","","","","","",""
"","","","html-keyboard-response","452","137048","0.0-1.0-607.0","0","0","71923","","80","S2","","","75","67","k","","","","","","","","","","","","","",""
"","","","html-keyboard-response","453","137116","0.0-1.0-608.0","0","0","71923","","67","response","","","75","67","","7","67","test","non_adjacent","7","1","L.jpg","M.jpg","1","0","0","","",""
"","","","html-keyboard-response","454","137219","0.0-1.0-609.0-0.0","0","0","71923","","null","feedback","","","null","67","","","","","","","","","","","","","","",""
"","","","html-keyboard-response","455","137325","0.0-1.0-611.0-0.0","0","0","71923","","null","time_out","","","null","67","","","","","","","","","","","","","","",""
"","","","html-keyboard-response","456","137828","0.0-1.0-612.0","0","0","71923","","25","ITI","","","75","67","","","","","","","","","","","","","k","",""
"","","","html-keyboard-response","457","138083","0.0-1.0-614.0","0","0","71923","","null","S1","","","null","68","","","","","","","","","","","","","","",""
"","","","html-keyboard-response","458","138185","0.0-1.0-615.0","0","0","71923","","null","ISI","","","null","68","","","","","","","","","","","","","","",""
"","","","html-keyboard-response","459","138439","0.0-1.0-616.0","0","0","71923","","113","S2","","","75","68","k","","","","","","","","","","","","","",""
"","","","html-keyboard-response","460","138810","0.0-1.0-617.0","0","0","71923","","370","response","","","75","68","","7","68","test","non_adjacent","5","2","O.jpg","R.jpg","1","0","0","","",""
"","","","html-keyboard-response","461","138912","0.0-1.0-618.0-0.0","0","0","71923","","null","feedback","","","null","68","","","","","","","","","","","","","","",""
"","","","html-keyboard-response","462","139019","0.0-1.0-620.0-0.0","0","0","71923","","null","time_out","","","null","68","","","","","","","","","","","","","","",""
"","","","html-keyboard-response","463","139525","0.0-1.0-621.0","0","0","71923","","30","ITI","","","75","68","","","","","","","","","","","","","k","",""
"","","","html-keyboard-response","464","139782","0.0-1.0-623.0","0","0","71923","","null","S1","","","null","69","","","","","","","","","","","","","","",""
"","","","html-keyboard-response","465","139885","0.0-1.0-624.0","0","0","71923","","69","ISI","","","75","69","","","","","","","","","","","","","","k",""
"","","","html-keyboard-response","466","140138","0.0-1.0-625.0","0","0","71923","","205","S2","","","75","69","k","","","","","","","","","","","","","",""
"","","","html-keyboard-response","467","140276","0.0-1.0-626.0","0","0","71923","","138","response","","","75","69","","7","69","test","non_adjacent","3","1","P.jpg","M.jpg","1","0","0","","",""
"","","","html-keyboard-response","468","140379","0.0-1.0-627.0-0.0","0","0","71923","","null","feedback","","","null","69","","","","","","","","","","","","","","",""
"","","","html-keyboard-response","469","140485","0.0-1.0-629.0-0.0","0","0","71923","","null","time_out","","","null","69","","","","","","","","","","","","","","",""
"","","","html-keyboard-response","470","140990","0.0-1.0-630.0","0","0","71923","","141","ITI","","","75","69","","","","","","","","","","","","","k","",""
"","","","html-keyboard-response","471","141247","0.0-1.0-632.0","0","0","71923","","null","S1","","","null","70","","","","","","","","","","","","","","",""
"","","","html-keyboard-response","472","141352","0.0-1.0-633.0","0","0","71923","","27","ISI","","","75","70","","","","","","","","","","","","","","k",""
"","","","html-keyboard-response","473","141608","0.0-1.0-634.0","0","0","71923","","82","S2","","","75","70","k","","","","","","","","","","","","","",""
"","","","html-keyboard-response","474","141772","0.0-1.0-635.0","0","0","71923","","161","response","","","75","70","","7","70","test","non_adjacent","4","2","Q.jpg","R.jpg","1","0","0","","",""
"","","","html-keyboard-response","475","141876","0.0-1.0-636.0-0.0","0","0","71923","","null","feedback","","","null","70","","","","","","","","","","","","","","",""
"","","","html-keyboard-response","476","141981","0.0-1.0-638.0-0.0","0","0","71923","","null","time_out","","","null","70","","","","","","","","","","","","","","",""
"","","","html-keyboard-response","477","142485","0.0-1.0-639.0","0","0","71923","","220","ITI","","","75","70","","","","","","","","","","","","","k","",""
"","","","html-keyboard-response","478","142736","0.0-1.0-641.0","0","0","71923","","null","S1","","","null","71","","","","","","","","","","","","","","",""
"","","","html-keyboard-response","479","142841","0.0-1.0-642.0","0","0","71923","","null","ISI","","","null","71","","","","","","","","","","","","","","",""
"","","","html-keyboard-response","480","143098","0.0-1.0-643.0","0","0","71923","","73","S2","","","75","71","k","","","","","","","","","","","","","",""
"","","","html-keyboard-response","481","143120","0.0-1.0-644.0","0","0","71923","","21","response","","","75","71","","7","71","test","non_adjacent","7","2","L.jpg","R.jpg","1","0","0","","",""
"","","","html-keyboard-response","482","143225","0.0-1.0-645.0-0.0","0","0","71923","","null","feedback","","","null","71","","","","","","","","","","","","","","",""
"","","","html-keyboard-response","483","143329","0.0-1.0-647.0-0.0","0","0","71923","","null","time_out","","","null","71","","","","","","","","","","","","","","",""
"","","","html-keyboard-response","484","143835","0.0-1.0-648.0","0","0","71923","","1","ITI","","","75","71","","","","","","","","","","","","","k","",""
"","","","html-keyboard-response","485","144088","0.0-1.0-650.0","0","0","71923","","null","S1","","","null","72","","","","","","","","","","","","","","",""
"","","","html-keyboard-response","486","144191","0.0-1.0-651.0","0","0","71923","","null","ISI","","","null","72","","","","","","","","","","","","","","",""
"","","","html-keyboard-response","487","144446","0.0-1.0-652.0","0","0","71923","","65","S2","","","75","72","k","","","","","","","","","","","","","",""
"","","","html-keyboard-response","488","144483","0.0-1.0-653.0","0","0","71923","","35","response","","","75","72","","7","72","test","adjacent","2","3","R.jpg","P.jpg","1","1","1","","",""
"","","","html-keyboard-response","489","144588","0.0-1.0-654.0-0.0","0","0","71923","","null","feedback","","","null","72","","","","","","","","","","","","","","",""
"","","","html-keyboard-response","490","145094","0.0-1.0-657.0","0","0","71923","","125","ITI","","","75","72","","","","","","","","","","","","","k","",""
"","","","html-keyboard-response","491","145347","0.0-1.0-659.0","0","0","71923","","null","S1","","","null","73","","","","","","","","","","","","","","",""
"","","","html-keyboard-response","492","145452","0.0-1.0-660.0","0","0","71923","","103","ISI","","","75","73","","","","","","","","","","","","","","k",""
"","","","html-keyboard-response","493","145709","0.0-1.0-661.0","0","0","71923","","null","S2","","","null","73","","","","","","","","","","","","","","",""
"","","","html-keyboard-response","494","145987","0.0-1.0-662.0","0","0","71923","","278","response","","","75","73","","7","73","test","non_adjacent","5","1","O.jpg","M.jpg","1","0","0","","",""
"","","","html-keyboard-response","495","146091","0.0-1.0-663.0-0.0","0","0","71923","","null","feedback","","","null","73","","","","","","","","","","","","","","",""
"","","","html-keyboard-response","496","146193","0.0-1.0-665.0-0.0","0","0","71923","","null","time_out","","","null","73","","","","","","","","","","","","","","",""
"","","","html-keyboard-response","497","146698","0.0-1.0-666.0","0","0","71923","","0","ITI","","","75","73","","","","","","","","","","","","","k","",""
"","","","html-keyboard-response","498","146951","0.0-1.0-668.0","0","0","71923","","null","S1","","","null","74","","","","","","","","","","","","","","",""
"","","","html-keyboard-response","499","147054","0.0-1.0-669.0","0","0","71923","","null","ISI","","","null","74","","","","","","","","","","","","","","",""
"","","","html-keyboard-response","500","147305","0.0-1.0-670.0","0","0","71923","","20","S2","","","75","74","k","","","","","","","","","","","","","",""
"","","","html-keyboard-response","501","147482","0.0-1.0-671.0","0","0","71923","","176","response","","","75","74","","7","74","test","adjacent","1","2","M.jpg","R.jpg","1","1","1","","",""
"","","","html-keyboard-response","502","147585","0.0-1.0-672.0-0.0","0","0","71923","","null","feedback","","","null","74","","","","","","","","","","","","","","",""
"","","","html-keyboard-response","503","148087","0.0-1.0-675.0","0","0","71923","","137","ITI","","","75","74","","","","","","","","","","","","","k","",""
"","","","html-keyboard-response","504","148343","0.0-1.0-677.0","0","0","71923","","null","S1","","","null","75","","","","","","","","","","","","","","",""
"","","","html-keyboard-response","505","148449","0.0-1.0-678.0","0","0","71923","","null","ISI","","","null","75","","","","","","","","","","","","","","",""
"","","","html-keyboard-response","506","148705","0.0-1.0-679.0","0","0","71923","","null","S2","","","null","75","","","","","","","","","","","","","","",""
"","","","html-keyboard-response","507","148732","0.0-1.0-680.0","0","0","71923","","26","response","","","75","75","","7","75","test","non_adjacent","6","1","N.jpg","M.jpg","1","0","0","","",""
"","","","html-keyboard-response","508","148835","0.0-1.0-681.0-0.0","0","0","71923","","null","feedback","","","null","75","","","","","","","","","","","","","","",""
"","","","html-keyboard-response","509","148939","0.0-1.0-683.0-0.0","0","0","71923","","null","time_out","","","null","75","","","","","","","","","","","","","","",""
"","","","html-keyboard-response","510","149441","0.0-1.0-684.0","0","0","71923","","12","ITI","","","75","75","","","","","","","","","","","","","k","",""
"","","","html-keyboard-response","511","149694","0.0-1.0-686.0","0","0","71923","","null","S1","","","null","76","","","","","","","","","","","","","","",""
"","","","html-keyboard-response","512","149797","0.0-1.0-687.0","0","0","71923","","null","ISI","","","null","76","","","","","","","","","","","","","","",""
"","","","html-keyboard-response","513","150051","0.0-1.0-688.0","0","0","71923","","93","S2","","","75","76","k","","","","","","","","","","","","","",""
"","","","html-keyboard-response","514","150124","0.0-1.0-689.0","0","0","71923","","71","response","","","75","76","","7","76","test","non_adjacent","4","1","Q.jpg","M.jpg","1","0","0","","",""
"","","","html-keyboard-response","515","150225","0.0-1.0-690.0-0.0","0","0","71923","","null","feedback","","","null","76","","","","","","","","","","","","","","",""
"","","","html-keyboard-response","516","150330","0.0-1.0-692.0-0.0","0","0","71923","","null","time_out","","","null","76","","","","","","","","","","","","","","",""
"","","","html-keyboard-response","517","150834","0.0-1.0-693.0","0","0","71923","","49","ITI","","","75","76","","","","","","","","","","","","","k","",""
"","","","html-keyboard-response","518","151087","0.0-1.0-695.0","0","0","71923","","null","S1","","","null","77","","","","","","","","","","","","","","",""
"","","","html-keyboard-response","519","151192","0.0-1.0-696.0","0","0","71923","","59","ISI","","","75","77","","","","","","","","","","","","","","k",""
"","","","html-keyboard-response","520","151449","0.0-1.0-697.0","0","0","71923","","193","S2","","","75","77","k","","","","","","","","","","","","","",""
"","","","html-keyboard-response","521","151651","0.0-1.0-698.0","0","0","71923","","201","response","","","75","77","","7","77","test","non_adjacent","1","3","M.jpg","P.jpg","1","1","1","","",""
"","","","html-keyboard-response","522","151753","0.0-1.0-699.0-0.0","0","0","71923","","null","feedback","","","null","77","","","","","","","","","","","","","","",""
"","","","html-keyboard-response","523","152255","0.0-1.0-702.0","0","0","71923","","143","ITI","","","75","77","","","","","","","","","","","","","k","",""
"","","","html-keyboard-response","524","152507","0.0-1.0-704.0","0","0","71923","","null","S1","","","null","78","","","","","","","","","","","","","","",""
"","","","html-keyboard-response","525","152609","0.0-1.0-705.0","0","0","71923","","null","ISI","","","null","78","","","","","","","","","","","","","","",""
"","","","html-keyboard-response","526","152862","0.0-1.0-706.0","0","0","71923","","29","S2","","","75","78","k","","","","","","","","","","","","","",""
"","","","html-keyboard-response","527","152914","0.0-1.0-707.0","0","0","71923","","50","response","","","75","78","","7","78","test","adjacent","2","1","R.jpg","M.jpg","1","0","0","","",""
"","","","html-keyboard-response","528","153016","0.0-1.0-708.0-0.0","0","0","71923","","null","feedback","","","null","78","","","","","","","","","","","","","","",""
"","","","html-keyboard-response","529","153118","0.0-1.0-710.0-0.0","0","0","71923","","null","time_out","","","null","78","","","","","","","","","","","","","","",""
"","","","html-keyboard-response","530","153623","0.0-1.0-711.0","0","0","71923","","76","ITI","","","75","78","","","","","","","","","","","","","k","",""
"","","","html-keyboard-response","531","153880","0.0-1.0-713.0","0","0","71923","","null","S1","","","null","79","","","","","","","","","","","","","","",""
"","","","html-keyboard-response","532","153984","0.0-1.0-714.0","0","0","71923","","null","ISI","","","null","79","","","","","","","","","","","","","","",""
"","","","html-keyboard-response","533","154240","0.0-1.0-715.0","0","0","71923","","129","S2","","","75","79","k","","","","","","","","","","","","","",""
"","","","html-keyboard-response","534","154379","0.0-1.0-716.0","0","0","71923","","138","response","","","75","79","","7","79","test","non_adjacent","6","2","N.jpg","R.jpg","1","0","0","","",""
"","","","html-keyboard-response","535","154483","0.0-1.0-717.0-0.0","0","0","71923","","null","feedback","","","null","79","","","","","","","","","","","","","","",""
"","","","html-keyboard-response","536","154584","0.0-1.0-719.0-0.0","0","0","71923","","null","time_out","","","null","79","","","","","","","","","","","","","","",""
"","","","html-keyboard-response","537","155086","0.0-1.0-720.0","0","0","71923","","105","ITI","","","75","79","","","","","","","","","","","","","k","",""
"","","","html-keyboard-response","538","159242","0.0-1.0-721.0-0.0","0","0","71923","","4155","block_over","","","32","79","","","","","","","","","","","","","","",""
"","","","html-keyboard-response","539","159495","0.0-1.0-722.0","0","0","71923","","null","S1","","","null","80","","","","","","","","","","","","","","",""
"","","","html-keyboard-response","540","159601","0.0-1.0-723.0","0","0","71923","","null","ISI","","","null","80","","","","","","","","","","","","","","",""
"","","","html-keyboard-response","541","159853","0.0-1.0-724.0","0","0","71923","","null","S2","","","null","80","","","","","","","","","","","","","","",""
"","","","html-keyboard-response","542","159978","0.0-1.0-725.0","0","0","71923","","125","response","","","75","80","","8","80","test","adjacent","5","4","O.jpg","Q.jpg","1","0","0","","",""
"","","","html-keyboard-response","543","160082","0.0-1.0-726.0-0.0","0","0","71923","","null","feedback","","","null","80","","","","","","","","","","","","","","",""
"","","","html-keyboard-response","544","160184","0.0-1.0-728.0-0.0","0","0","71923","","null","time_out","","","null","80","","","","","","","","","","","","","","",""
"","","","html-keyboard-response","545","160685","0.0-1.0-729.0","0","0","71923","","2","ITI","","","75","80","","","","","","","","","","","","","k","",""
"","","","html-keyboard-response","546","160941","0.0-1.0-731.0","0","0","71923","","null","S1","","","null","81","","","","","","","","","","","","","","",""
"","","","html-keyboard-response","547","161045","0.0-1.0-732.0","0","0","71923","","84","ISI","","","75","81","","","","","","","","","","","","","","k",""
"","","","html-keyboard-response","548","161301","0.0-1.0-733.0","0","0","71923","","195","S2","","","75","81","k","","","","","","","","","","","","","",""
"","","","html-keyboard-response","549","161458","0.0-1.0-734.0","0","0","71923","","157","response","","","75","81","","8","81","test","adjacent","4","5","Q.jpg","O.jpg","1","1","1","","",""
"","","","html-keyboard-response","550","161559","0.0-1.0-735.0-0.0","0","0","71923","","null","feedback","","","null","81","","","","","","","","","","","","","","",""
"","","","html-keyboard-response","551","162063","0.0-1.0-738.0","0","0","71923","","120","ITI","","","75","81","","","","","","","","","","","","","k","",""
"","","","html-keyboard-response","552","162319","0.0-1.0-740.0","0","0","71923","","null","S1","","","null","82","","","","","","","","","","","","","","",""
"","","","html-keyboard-response","553","162422","0.0-1.0-741.0","0","0","71923","","null","ISI","","","null","82","","","","","","","","","","","","","","",""
"","","","html-keyboard-response","554","162677","0.0-1.0-742.0","0","0","71923","","51","S2","","","75","82","k","","","","","","","","","","","","","",""
"","","","html-keyboard-response","555","162688","0.0-1.0-743.0","0","0","71923","","10","response","","","75","82","","8","82","test","non_adjacent","1","4","M.jpg","Q.jpg","1","1","1","","",""
"","","","html-keyboard-response","556","162790","0.0-1.0-744.0-0.0","0","0","71923","","null","feedback","","","null","82","","","","","","","","","","","","","","",""
"","","","html-keyboard-response","557","163292","0.0-1.0-747.0","0","0","71923","","119","ITI","","","75","82","","","","","","","","","","","","","k","",""
"","","","html-keyboard-response","558","163549","0.0-1.0-749.0","0","0","71923","","null","S1","","","null","83","","","","","","","","","","","","","","",""
"","","","html-keyboard-response","559","163650","0.0-1.0-750.0","0","0","71923","","27","ISI","","","75","83","","","","","","","","","","","","","","k",""
"","","","html-keyboard-response","560","163903","0.0-1.0-751.0","0","0","71923","","158","S2","","","75","83","k","","","","","","","","","","","","","",""
"","","","html-keyboard-response","561","164032","0.0-1.0-752.0","0","0","71923","","128","response","","","75","83","","8","83","test","non_adjacent","6","4","N.jpg","Q.jpg","1","0","0","","",""
"","","","html-keyboard-response","562","164134","0.0-1.0-753.0-0.0","0","0","71923","","null","feedback","","","null","83","","","","","","","","","","","","","","",""
"","","","html-keyboard-response","563","164236","0.0-1.0-755.0-0.0","0","0","71923","","null","time_out","","","null","83","","","","","","","","","","","","","","",""
"","","","html-keyboard-response","564","164739","0.0-1.0-756.0","0","0","71923","","27","ITI","","","75","83","","","","","","","","","","","","","k","",""
"","","","html-keyboard-response","565","164996","0.0-1.0-758.0","0","0","71923","","null","S1","","","null","84","","","","","","","","","","","","","","",""
"","","","html-keyboard-response","566","165102","0.0-1.0-759.0","0","0","71923","","null","ISI","","","null","84","","","","","","","","","","","","","","",""
"","","","html-keyboard-response","567","165355","0.0-1.0-760.0","0","0","71923","","66","S2","","","75","84","k","","","","","","","","","","","","","",""
"","","","html-keyboard-response","568","165386","0.0-1.0-761.0","0","0","71923","","31","response","","","75","84","","8","84","test","non_adjacent","7","4","L.jpg","Q.jpg","1","0","0","","",""
"","","","html-keyboard-response","569","165488","0.0-1.0-762.0-0.0","0","0","71923","","null","feedback","","","null","84","","","","","","","","","","","","","","",""
"","","","html-keyboard-response","570","165590","0.0-1.0-764.0-0.0","0","0","71923","","null","time_out","","","null","84","","","","","","","","","","","","","","",""
"","","","html-keyboard-response","571","166091","0.0-1.0-765.0","0","0","71923","","51","ITI","","","75","84","","","","","","","","","","","","","k","",""
"","","","html-keyboard-response","572","166344","0.0-1.0-767.0","0","0","71923","","null","S1","","","null","85","","","","","","","","","","","","","","",""
"","","","html-keyboard-response","573","166450","0.0-1.0-768.0","0","0","71923","","41","ISI","","","75","85","","","","","","","","","","","","","","k",""
"","","","html-keyboard-response","574","166705","0.0-1.0-769.0","0","0","71923","","151","S2","","","75","85","k","","","","","","","","","","","","","",""
"","","","html-keyboard-response","575","166819","0.0-1.0-770.0","0","0","71923","","113","response","","","75","85","","8","85","test","adjacent","3","4","P.jpg","Q.jpg","1","1","1","","",""
"","","","html-keyboard-response","576","166921","0.0-1.0-771.0-0.0","0","0","71923","","null","feedback","","","null","85","","","","","","","","","","","","","","",""
"","","","html-keyboard-response","577","167424","0.0-1.0-774.0","0","0","71923","","121","ITI","","","75","85","","","","","","","","","","","","","k","",""
"","","","html-keyboard-response","578","167678","0.0-1.0-776.0","0","0","71923","","null","S1","","","null","86","","","","","","","","","","","","","","",""
"","","","html-keyboard-response","579","167781","0.0-1.0-777.0","0","0","71923","","null","ISI","","","null","86","","","","","","","","","","","","","","",""
"","","","html-keyboard-response","580","168032","0.0-1.0-778.0","0","0","71923","","3","S2","","","75","86","k","","","","","","","","","","","","","",""
"","","","html-keyboard-response","581","168250","0.0-1.0-779.0","0","0","71923","","217","response","","","75","86","","8","86","test","non_adjacent","2","5","R.jpg","O.jpg","1","1","1","","",""
"","","","html-keyboard-response","582","168354","0.0-1.0-780.0-0.0","0","0","71923","","null","feedback","","","null","86","","","","","","","","","","","","","","",""
"","","","html-keyboard-response","583","168860","0.0-1.0-783.0","0","0","71923","","231","ITI","","","75","86","","","","","","","","","","","","","k","",""
"","","","html-keyboard-response","584","169117","0.0-1.0-785.0","0","0","71923","","null","S1","","","null","87","","","","","","","","","","","","","","",""
"","","","html-keyboard-response","585","169220","0.0-1.0-786.0","0","0","71923","","null","ISI","","","null","87","","","","","","","","","","","","","","",""
"","","","html-keyboard-response","586","169474","0.0-1.0-787.0","0","0","71923","","70","S2","","","75","87","k","","","","","","","","","","","","","",""
"","","","html-keyboard-response","587","169544","0.0-1.0-788.0","0","0","71923","","70","response","","","75","87","","8","87","test","non_adjacent","6","3","N.jpg","P.jpg","1","0","0","","",""
"","","","html-keyboard-response","588","169649","0.0-1.0-789.0-0.0","0","0","71923","","null","feedback","","","null","87","","","","","","","","","","","","","","",""
"","","","html-keyboard-response","589","169754","0.0-1.0-791.0-0.0","0","0","71923","","null","time_out","","","null","87","","","","","","","","","","","","","","",""
"","","","html-keyboard-response","590","170256","0.0-1.0-792.0","0","0","71923","","63","ITI","","","75","87","","","","","","","","","","","","","k","",""
"","","","html-keyboard-response","591","170508","0.0-1.0-794.0","0","0","71923","","null","S1","","","null","88","","","","","","","","","","","","","","",""
"","","","html-keyboard-response","592","170610","0.0-1.0-795.0","0","0","71923","","61","ISI","","","75","88","","","","","","","","","","","","","","k",""
"","","","html-keyboard-response","593","170867","0.0-1.0-796.0","0","0","71923","","null","S2","","","null","88","","","","","","","","","","","","","","",""
"","","","html-keyboard-response","594","171202","0.0-1.0-797.0","0","0","71923","","334","response","","","75","88","","8","88","test","non_adjacent","1","5","M.jpg","O.jpg","1","1","1","","",""
"","","","html-keyboard-response","595","171306","0.0-1.0-798.0-0.0","0","0","71923","","null","feedback","","","null","88","","","","","","","","","","","","","","",""
