"success","ttype","start_time","trial_type","trial_index","time_elapsed","internal_node_id","warning","missed_checkup","PID","view_history","rt","responses","repeat_instructions","key_press","index","keypress_isi","keypress_S2","block","trial_num","phase","group_type","pair_type","S1_stim","S2_stim","S1_img","S2_img","S1_chosen","S1_higher","accuracy","keypress_iti","total_bonus_tally"
"true","full_screen","d03082023hr1740","fullscreen","0","30747","0.0-0.0","0","0","79389","","","","","","","","","","","","","","","","","","","","","",""
"","instructions","","instructions","1","179592","0.0-1.0-0.0-0.0","0","0","79389","[{""page_index"":0,""viewing_time"":5172},{""page_index"":1,""viewing_time"":107183},{""page_index"":2,""viewing_time"":10349},{""page_index"":1,""viewing_time"":14684},{""page_index"":2,""viewing_time"":9317},{""page_index"":3,""viewing_time"":2133}]","148841","","","","","","","","","","","","","","","","","","","",""
"","comprehension_check","","survey-multi-choice","2","233758","0.0-1.0-0.0-1.0","0","0","79389","","54158","{""Q0"":""True"",""Q1"":""K"",""Q2"":""Only when the screen 'MAKE A CHOICE' is shown"",""Q3"":""Green mark"",""Q4"":""either D or K""}","1","","","","","","","","","","","","","","","","","",""
"","missed_instruction_checkup","","html-keyboard-response","3","236816","0.0-1.0-0.0-2.0-0.0","0","1","79389","","3050","","","32","","","","","","","","","","","","","","","","",""
"","instructions","","instructions","4","287906","0.0-1.0-0.1-0.1","0","0","79389","[{""page_index"":0,""viewing_time"":3902},{""page_index"":1,""viewing_time"":22017},{""page_index"":2,""viewing_time"":23533},{""page_index"":3,""viewing_time"":1633}]","51086","","","","","","","","","","","","","","","","","","","",""
"","comprehension_check","","survey-multi-choice","5","311940","0.0-1.0-0.1-1.1","0","0","79389","","24026","{""Q0"":""True"",""Q1"":""K"",""Q2"":""Once the second image appears and while the screen 'MAKE A CHOICE' is shown"",""Q3"":""Green mark"",""Q4"":""either D or K""}","0","","","","","","","","","","","","","","","","","",""
"","start_exp","","html-keyboard-response","6","313631","0.0-1.0-1.0","0","0","79389","","1685","","","32","","","","","","","","","","","","","","","","",""
"","S1","","html-keyboard-response","7","313895","0.0-1.0-2.0","0","0","79389","","null","","","null","0","","","","","","","","","","","","","","","",""
"","ISI","","html-keyboard-response","8","314052","0.0-1.0-3.0","0","0","79389","","null","","","null","0","NaN","","","","","","","","","","","","","","",""
"","S2","","html-keyboard-response","9","314311","0.0-1.0-4.0","0","0","79389","","null","","","null","0","","NaN","","","","","","","","","","","","","",""
"","response","","html-keyboard-response","10","315932","0.0-1.0-5.0-0.0","0","0","79389","","1618","","","75","0","","","1","0","training","adjacent","ED","5","4","N.jpg","Q.jpg","1","0","0","",""
"","feedback","","html-keyboard-response","11","316941","0.0-1.0-6.0-0.0","0","0","79389","","null","","","null","0","","","","","","","","","","","","","","","",""
"","time_out","","html-keyboard-response","12","318952","0.0-1.0-8.0-0.0","0","0","79389","","null","","","null","0","","","","","","","","","","","","","","","",""
"","ITI","","html-keyboard-response","13","319969","0.0-1.0-9.0","0","0","79389","","null","","","null","0","","","","","","","","","","","","","","","NaN",""
"","S1","","html-keyboard-response","14","320234","0.0-1.0-11.0","0","0","79389","","null","","","null","1","","","","","","","","","","","","","","","",""
"","ISI","","html-keyboard-response","15","320400","0.0-1.0-12.0","0","0","79389","","null","","","null","1","NaN","","","","","","","","","","","","","","",""
"","S2","","html-keyboard-response","16","320661","0.0-1.0-13.0","0","0","79389","","null","","","null","1","","NaN","","","","","","","","","","","","","",""
"","response","","html-keyboard-response","17","321518","0.0-1.0-14.0-0.0","0","0","79389","","852","","","68","1","","","1","1","training","adjacent","FG","6","7","L.jpg","R.jpg","0","1","0","",""
"","feedback","","html-keyboard-response","18","322527","0.0-1.0-15.0-0.0","0","0","79389","","null","","","null","1","","","","","","","","","","","","","","","",""
"","time_out","","html-keyboard-response","19","324537","0.0-1.0-17.0-0.0","0","0","79389","","null","","","null","1","","","","","","","","","","","","","","","",""
"","ITI","","html-keyboard-response","20","325553","0.0-1.0-18.0","0","0","79389","","null","","","null","1","","","","","","","","","","","","","","","NaN",""
"","S1","","html-keyboard-response","21","325817","0.0-1.0-20.0","0","0","79389","","null","","","null","2","","","","","","","","","","","","","","","",""
"","ISI","","html-keyboard-response","22","325975","0.0-1.0-21.0","0","0","79389","","null","","","null","2","NaN","","","","","","","","","","","","","","",""
"","S2","","html-keyboard-response","23","326236","0.0-1.0-22.0","0","0","79389","","null","","","null","2","","NaN","","","","","","","","","","","","","",""
"","response","","html-keyboard-response","24","326464","0.0-1.0-23.0-0.0","0","0","79389","","222","","","75","2","","","1","2","training","adjacent","DC","4","3","Q.jpg","M.jpg","1","0","0","",""
"","feedback","","html-keyboard-response","25","327480","0.0-1.0-24.0-0.0","0","0","79389","","null","","","null","2","","","","","","","","","","","","","","","",""
"","time_out","","html-keyboard-response","26","329486","0.0-1.0-26.0-0.0","0","0","79389","","null","","","null","2","","","","","","","","","","","","","","","",""
"","ITI","","html-keyboard-response","27","330497","0.0-1.0-27.0","0","0","79389","","null","","","null","2","","","","","","","","","","","","","","","NaN",""
"","S1","","html-keyboard-response","28","330759","0.0-1.0-29.0","0","0","79389","","null","","","null","3","","","","","","","","","","","","","","","",""
"","ISI","","html-keyboard-response","29","330921","0.0-1.0-30.0","0","0","79389","","null","","","null","3","NaN","","","","","","","","","","","","","","",""
"","S2","","html-keyboard-response","30","331181","0.0-1.0-31.0","0","0","79389","","null","","","null","3","","NaN","","","","","","","","","","","","","",""
"","response","","html-keyboard-response","31","331606","0.0-1.0-32.0-0.0","0","0","79389","","420","","","68","3","","","1","3","training","adjacent","CD","3","4","M.jpg","Q.jpg","0","1","0","",""
"","feedback","","html-keyboard-response","32","332616","0.0-1.0-33.0-0.0","0","0","79389","","null","","","null","3","","","","","","","","","","","","","","","",""
"","time_out","","html-keyboard-response","33","334632","0.0-1.0-35.0-0.0","0","0","79389","","null","","","null","3","","","","","","","","","","","","","","","",""
"","ITI","","html-keyboard-response","34","335645","0.0-1.0-36.0","0","0","79389","","null","","","null","3","","","","","","","","","","","","","","","NaN",""
"","S1","","html-keyboard-response","35","335901","0.0-1.0-38.0","0","0","79389","","null","","","null","4","","","","","","","","","","","","","","","",""
"","ISI","","html-keyboard-response","36","336064","0.0-1.0-39.0","0","0","79389","","35","","","75","4","k","","","","","","","","","","","","","","",""
"","S2","","html-keyboard-response","37","336327","0.0-1.0-40.0","0","0","79389","","null","","","null","4","","NaN","","","","","","","","","","","","","",""
"","response","","html-keyboard-response","38","336754","0.0-1.0-41.0-0.0","0","0","79389","","422","","","75","4","","","1","4","training","adjacent","BC","2","3","O.jpg","M.jpg","1","1","1","",""
"","feedback","","html-keyboard-response","39","337768","0.0-1.0-42.0-0.0","0","0","79389","","null","","","null","4","","","","","","","","","","","","","","","",""
"","ITI","","html-keyboard-response","40","338781","0.0-1.0-45.0","0","0","79389","","null","","","null","4","","","","","","","","","","","","","","","NaN",""
"","S1","","html-keyboard-response","41","339037","0.0-1.0-47.0","0","0","79389","","null","","","null","5","","","","","","","","","","","","","","","",""
"","ISI","","html-keyboard-response","42","339199","0.0-1.0-48.0","0","0","79389","","null","","","null","5","NaN","","","","","","","","","","","","","","",""
"","S2","","html-keyboard-response","43","339462","0.0-1.0-49.0","0","0","79389","","null","","","null","5","","NaN","","","","","","","","","","","","","",""
"","response","","html-keyboard-response","44","339551","0.0-1.0-50.0-0.0","0","0","79389","","84","","","75","5","","","1","5","training","adjacent","CB","3","2","M.jpg","O.jpg","1","0","0","",""
"","feedback","","html-keyboard-response","45","340567","0.0-1.0-51.0-0.0","0","0","79389","","null","","","null","5","","","","","","","","","","","","","","","",""
"","time_out","","html-keyboard-response","46","342581","0.0-1.0-53.0-0.0","0","0","79389","","null","","","null","5","","","","","","","","","","","","","","","",""
"","ITI","","html-keyboard-response","47","343587","0.0-1.0-54.0","0","0","79389","","null","","","null","5","","","","","","","","","","","","","","","NaN",""
"","S1","","html-keyboard-response","48","343849","0.0-1.0-56.0","0","0","79389","","null","","","null","6","","","","","","","","","","","","","","","",""
"","ISI","","html-keyboard-response","49","344008","0.0-1.0-57.0","0","0","79389","","null","","","null","6","NaN","","","","","","","","","","","","","","",""
"","S2","","html-keyboard-response","50","344270","0.0-1.0-58.0","0","0","79389","","null","","","null","6","","NaN","","","","","","","","","","","","","",""
"","response","","html-keyboard-response","51","344386","0.0-1.0-59.0-0.0","0","0","79389","","111","","","68","6","","","1","6","training","adjacent","CB","3","2","M.jpg","O.jpg","0","0","1","",""
"","feedback","","html-keyboard-response","52","345397","0.0-1.0-60.0-0.0","0","0","79389","","null","","","null","6","","","","","","","","","","","","","","","",""
"","ITI","","html-keyboard-response","53","346401","0.0-1.0-63.0","0","0","79389","","null","","","null","6","","","","","","","","","","","","","","","NaN",""
"","S1","","html-keyboard-response","54","346660","0.0-1.0-65.0","0","0","79389","","null","","","null","7","","","","","","","","","","","","","","","",""
"","ISI","","html-keyboard-response","55","346819","0.0-1.0-66.0","0","0","79389","","null","","","null","7","NaN","","","","","","","","","","","","","","",""
"","S2","","html-keyboard-response","56","347076","0.0-1.0-67.0","0","0","79389","","null","","","null","7","","NaN","","","","","","","","","","","","","",""
"","response","","html-keyboard-response","57","347561","0.0-1.0-68.0-0.0","0","0","79389","","480","","","68","7","","","1","7","training","adjacent","DC","4","3","Q.jpg","M.jpg","0","0","1","",""
"","feedback","","html-keyboard-response","58","348571","0.0-1.0-69.0-0.0","0","0","79389","","null","","","null","7","","","","","","","","","","","","","","","",""
"","ITI","","html-keyboard-response","59","349580","0.0-1.0-72.0","0","0","79389","","null","","","null","7","","","","","","","","","","","","","","","NaN",""
"","S1","","html-keyboard-response","60","349836","0.0-1.0-74.0","0","0","79389","","null","","","null","8","","","","","","","","","","","","","","","",""
"","ISI","","html-keyboard-response","61","349998","0.0-1.0-75.0","0","0","79389","","null","","","null","8","NaN","","","","","","","","","","","","","","",""
"","S2","","html-keyboard-response","62","350261","0.0-1.0-76.0","0","0","79389","","null","","","null","8","","NaN","","","","","","","","","","","","","",""
"","response","","html-keyboard-response","63","350823","0.0-1.0-77.0-0.0","0","0","79389","","557","","","75","8","","","1","8","training","adjacent","DE","4","5","Q.jpg","N.jpg","1","1","1","",""
"","feedback","","html-keyboard-response","64","351834","0.0-1.0-78.0-0.0","0","0","79389","","null","","","null","8","","","","","","","","","","","","","","","",""
"","ITI","","html-keyboard-response","65","352846","0.0-1.0-81.0","0","0","79389","","null","","","null","8","","","","","","","","","","","","","","","NaN",""
"","S1","","html-keyboard-response","66","353104","0.0-1.0-83.0","0","0","79389","","null","","","null","9","","","","","","","","","","","","","","","",""
"","ISI","","html-keyboard-response","67","353260","0.0-1.0-84.0","0","0","79389","","null","","","null","9","NaN","","","","","","","","","","","","","","",""
"","S2","","html-keyboard-response","68","353517","0.0-1.0-85.0","0","0","79389","","null","","","null","9","","NaN","","","","","","","","","","","","","",""
"","response","","html-keyboard-response","69","354066","0.0-1.0-86.0-0.0","0","0","79389","","544","","","68","9","","","1","9","training","adjacent","AB","1","2","P.jpg","O.jpg","0","1","0","",""
"","feedback","","html-keyboard-response","70","355077","0.0-1.0-87.0-0.0","0","0","79389","","null","","","null","9","","","","","","","","","","","","","","","",""
"","time_out","","html-keyboard-response","71","357086","0.0-1.0-89.0-0.0","0","0","79389","","null","","","null","9","","","","","","","","","","","","","","","",""
"","ITI","","html-keyboard-response","72","358093","0.0-1.0-90.0","0","0","79389","","null","","","null","9","","","","","","","","","","","","","","","NaN",""
"","S1","","html-keyboard-response","73","358354","0.0-1.0-92.0","0","0","79389","","null","","","null","10","","","","","","","","","","","","","","","",""
"","ISI","","html-keyboard-response","74","358517","0.0-1.0-93.0","0","0","79389","","null","","","null","10","NaN","","","","","","","","","","","","","","",""
"","S2","","html-keyboard-response","75","358780","0.0-1.0-94.0","0","0","79389","","null","","","null","10","","NaN","","","","","","","","","","","","","",""
"","response","","html-keyboard-response","76","359270","0.0-1.0-95.0-0.0","0","0","79389","","485","","","75","10","","","1","10","training","adjacent","BC","2","3","O.jpg","M.jpg","1","1","1","",""
"","feedback","","html-keyboard-response","77","360276","0.0-1.0-96.0-0.0","0","0","79389","","null","","","null","10","","","","","","","","","","","","","","","",""
"","ITI","","html-keyboard-response","78","361278","0.0-1.0-99.0","0","0","79389","","null","","","null","10","","","","","","","","","","","","","","","NaN",""
"","S1","","html-keyboard-response","79","361538","0.0-1.0-101.0","0","0","79389","","null","","","null","11","","","","","","","","","","","","","","","",""
"","ISI","","html-keyboard-response","80","361696","0.0-1.0-102.0","0","0","79389","","null","","","null","11","NaN","","","","","","","","","","","","","","",""
"","S2","","html-keyboard-response","81","361954","0.0-1.0-103.0","0","0","79389","","null","","","null","11","","NaN","","","","","","","","","","","","","",""
"","response","","html-keyboard-response","82","362365","0.0-1.0-104.0-0.0","0","0","79389","","406","","","75","11","","","1","11","training","adjacent","AB","1","2","P.jpg","O.jpg","1","1","1","",""
"","feedback","","html-keyboard-response","83","363371","0.0-1.0-105.0-0.0","0","0","79389","","null","","","null","11","","","","","","","","","","","","","","","",""
"","ITI","","html-keyboard-response","84","364380","0.0-1.0-108.0","0","0","79389","","null","","","null","11","","","","","","","","","","","","","","","NaN",""
"","S1","","html-keyboard-response","85","364636","0.0-1.0-110.0","0","0","79389","","null","","","null","12","","","","","","","","","","","","","","","",""
"","ISI","","html-keyboard-response","86","364797","0.0-1.0-111.0","0","0","79389","","null","","","null","12","NaN","","","","","","","","","","","","","","",""
"","S2","","html-keyboard-response","87","365054","0.0-1.0-112.0","0","0","79389","","null","","","null","12","","NaN","","","","","","","","","","","","","",""
"","response","","html-keyboard-response","88","365572","0.0-1.0-113.0-0.0","0","0","79389","","514","","","75","12","","","1","12","training","adjacent","BA","2","1","O.jpg","P.jpg","1","0","0","",""
"","feedback","","html-keyboard-response","89","366582","0.0-1.0-114.0-0.0","0","0","79389","","null","","","null","12","","","","","","","","","","","","","","","",""
"","time_out","","html-keyboard-response","90","368587","0.0-1.0-116.0-0.0","0","0","79389","","null","","","null","12","","","","","","","","","","","","","","","",""
"","ITI","","html-keyboard-response","91","369596","0.0-1.0-117.0","0","0","79389","","null","","","null","12","","","","","","","","","","","","","","","NaN",""
"","S1","","html-keyboard-response","92","369853","0.0-1.0-119.0","0","0","79389","","null","","","null","13","","","","","","","","","","","","","","","",""
"","ISI","","html-keyboard-response","93","370016","0.0-1.0-120.0","0","0","79389","","null","","","null","13","NaN","","","","","","","","","","","","","","",""
"","S2","","html-keyboard-response","94","370278","0.0-1.0-121.0","0","0","79389","","null","","","null","13","","NaN","","","","","","","","","","","","","",""
"","response","","html-keyboard-response","95","370747","0.0-1.0-122.0-0.0","0","0","79389","","464","","","68","13","","","1","13","training","adjacent","BA","2","1","O.jpg","P.jpg","0","0","1","",""
"","feedback","","html-keyboard-response","96","371753","0.0-1.0-123.0-0.0","0","0","79389","","null","","","null","13","","","","","","","","","","","","","","","",""
"","ITI","","html-keyboard-response","97","372767","0.0-1.0-126.0","0","0","79389","","null","","","null","13","","","","","","","","","","","","","","","NaN",""
"","S1","","html-keyboard-response","98","373030","0.0-1.0-128.0","0","0","79389","","null","","","null","14","","","","","","","","","","","","","","","",""
"","ISI","","html-keyboard-response","99","373187","0.0-1.0-129.0","0","0","79389","","null","","","null","14","NaN","","","","","","","","","","","","","","",""
"","S2","","html-keyboard-response","100","373447","0.0-1.0-130.0","0","0","79389","","null","","","null","14","","NaN","","","","","","","","","","","","","",""
"","response","","html-keyboard-response","101","374449","0.0-1.0-131.0-0.0","0","0","79389","","998","","","68","14","","","1","14","training","adjacent","BA","2","1","O.jpg","P.jpg","0","0","1","",""
"","feedback","","html-keyboard-response","102","375460","0.0-1.0-132.0-0.0","0","0","79389","","null","","","null","14","","","","","","","","","","","","","","","",""
"","ITI","","html-keyboard-response","103","376470","0.0-1.0-135.0","0","0","79389","","null","","","null","14","","","","","","","","","","","","","","","NaN",""
"","S1","","html-keyboard-response","104","376736","0.0-1.0-137.0","0","0","79389","","null","","","null","15","","","","","","","","","","","","","","","",""
"","ISI","","html-keyboard-response","105","376894","0.0-1.0-138.0","0","0","79389","","null","","","null","15","NaN","","","","","","","","","","","","","","",""
"","S2","","html-keyboard-response","106","377153","0.0-1.0-139.0","0","0","79389","","null","","","null","15","","NaN","","","","","","","","","","","","","",""
"","response","","html-keyboard-response","107","377705","0.0-1.0-140.0-0.0","0","0","79389","","547","","","75","15","","","1","15","training","adjacent","CB","3","2","M.jpg","O.jpg","1","0","0","",""
"","feedback","","html-keyboard-response","108","378719","0.0-1.0-141.0-0.0","0","0","79389","","null","","","null","15","","","","","","","","","","","","","","","",""
"","time_out","","html-keyboard-response","109","380736","0.0-1.0-143.0-0.0","0","0","79389","","null","","","null","15","","","","","","","","","","","","","","","",""
"","ITI","","html-keyboard-response","110","381749","0.0-1.0-144.0","0","0","79389","","null","","","null","15","","","","","","","","","","","","","","","NaN",""
"","S1","","html-keyboard-response","111","382004","0.0-1.0-146.0","0","0","79389","","null","","","null","16","","","","","","","","","","","","","","","",""
"","ISI","","html-keyboard-response","112","382165","0.0-1.0-147.0","0","0","79389","","null","","","null","16","NaN","","","","","","","","","","","","","","",""
"","S2","","html-keyboard-response","113","382421","0.0-1.0-148.0","0","0","79389","","null","","","null","16","","NaN","","","","","","","","","","","","","",""
"","response","","html-keyboard-response","114","383085","0.0-1.0-149.0-0.0","0","0","79389","","659","","","68","16","","","1","16","training","adjacent","EF","5","6","N.jpg","L.jpg","0","1","0","",""
"","feedback","","html-keyboard-response","115","384094","0.0-1.0-150.0-0.0","0","0","79389","","null","","","null","16","","","","","","","","","","","","","","","",""
"","time_out","","html-keyboard-response","116","386102","0.0-1.0-152.0-0.0","0","0","79389","","null","","","null","16","","","","","","","","","","","","","","","",""
"","ITI","","html-keyboard-response","117","387110","0.0-1.0-153.0","0","0","79389","","null","","","null","16","","","","","","","","","","","","","","","NaN",""
"","S1","","html-keyboard-response","118","387367","0.0-1.0-155.0","0","0","79389","","null","","","null","17","","","","","","","","","","","","","","","",""
"","ISI","","html-keyboard-response","119","387527","0.0-1.0-156.0","0","0","79389","","null","","","null","17","NaN","","","","","","","","","","","","","","",""
"","S2","","html-keyboard-response","120","387786","0.0-1.0-157.0","0","0","79389","","null","","","null","17","","NaN","","","","","","","","","","","","","",""
"","response","","html-keyboard-response","121","388346","0.0-1.0-158.0-0.0","0","0","79389","","555","","","68","17","","","1","17","training","adjacent","DE","4","5","Q.jpg","N.jpg","0","1","0","",""
"","feedback","","html-keyboard-response","122","389353","0.0-1.0-159.0-0.0","0","0","79389","","null","","","null","17","","","","","","","","","","","","","","","",""
"","time_out","","html-keyboard-response","123","391366","0.0-1.0-161.0-0.0","0","0","79389","","null","","","null","17","","","","","","","","","","","","","","","",""
"","ITI","","html-keyboard-response","124","392379","0.0-1.0-162.0","0","0","79389","","null","","","null","17","","","","","","","","","","","","","","","NaN",""
"","S1","","html-keyboard-response","125","392637","0.0-1.0-164.0","0","0","79389","","null","","","null","18","","","","","","","","","","","","","","","",""
"","ISI","","html-keyboard-response","126","392795","0.0-1.0-165.0","0","0","79389","","null","","","null","18","NaN","","","","","","","","","","","","","","",""
"","S2","","html-keyboard-response","127","393052","0.0-1.0-166.0","0","0","79389","","null","","","null","18","","NaN","","","","","","","","","","","","","",""
"","response","","html-keyboard-response","128","393461","0.0-1.0-167.0-0.0","0","0","79389","","404","","","75","18","","","1","18","training","adjacent","DC","4","3","Q.jpg","M.jpg","1","0","0","",""
"","feedback","","html-keyboard-response","129","394469","0.0-1.0-168.0-0.0","0","0","79389","","null","","","null","18","","","","","","","","","","","","","","","",""
"","time_out","","html-keyboard-response","130","396476","0.0-1.0-170.0-0.0","0","0","79389","","null","","","null","18","","","","","","","","","","","","","","","",""
"","ITI","","html-keyboard-response","131","397484","0.0-1.0-171.0","0","0","79389","","null","","","null","18","","","","","","","","","","","","","","","NaN",""
"","S1","","html-keyboard-response","132","397747","0.0-1.0-173.0","0","0","79389","","null","","","null","19","","","","","","","","","","","","","","","",""
"","ISI","","html-keyboard-response","133","397903","0.0-1.0-174.0","0","0","79389","","null","","","null","19","NaN","","","","","","","","","","","","","","",""
"","S2","","html-keyboard-response","134","398165","0.0-1.0-175.0","0","0","79389","","null","","","null","19","","NaN","","","","","","","","","","","","","",""
"","response","","html-keyboard-response","135","398796","0.0-1.0-176.0-0.0","0","0","79389","","626","","","68","19","","","1","19","training","adjacent","CB","3","2","M.jpg","O.jpg","0","0","1","",""
"","feedback","","html-keyboard-response","136","399801","0.0-1.0-177.0-0.0","0","0","79389","","null","","","null","19","","","","","","","","","","","","","","","",""
"","ITI","","html-keyboard-response","137","400811","0.0-1.0-180.0","0","0","79389","","null","","","null","19","","","","","","","","","","","","","","","NaN",""
"","S1","","html-keyboard-response","138","401068","0.0-1.0-182.0","0","0","79389","","null","","","null","20","","","","","","","","","","","","","","","",""
"","ISI","","html-keyboard-response","139","401230","0.0-1.0-183.0","0","0","79389","","null","","","null","20","NaN","","","","","","","","","","","","","","",""
"","S2","","html-keyboard-response","140","401496","0.0-1.0-184.0","0","0","79389","","null","","","null","20","","NaN","","","","","","","","","","","","","",""
"","response","","html-keyboard-response","141","402089","0.0-1.0-185.0-0.0","0","0","79389","","589","","","68","20","","","1","20","training","adjacent","AB","1","2","P.jpg","O.jpg","0","1","0","",""
"","feedback","","html-keyboard-response","142","403099","0.0-1.0-186.0-0.0","0","0","79389","","null","","","null","20","","","","","","","","","","","","","","","",""
"","time_out","","html-keyboard-response","143","405108","0.0-1.0-188.0-0.0","0","0","79389","","null","","","null","20","","","","","","","","","","","","","","","",""
"","ITI","","html-keyboard-response","144","406118","0.0-1.0-189.0","0","0","79389","","null","","","null","20","","","","","","","","","","","","","","","NaN",""
"","S1","","html-keyboard-response","145","406381","0.0-1.0-191.0","0","0","79389","","null","","","null","21","","","","","","","","","","","","","","","",""
"","ISI","","html-keyboard-response","146","406544","0.0-1.0-192.0","0","0","79389","","null","","","null","21","NaN","","","","","","","","","","","","","","",""
"","S2","","html-keyboard-response","147","406800","0.0-1.0-193.0","0","0","79389","","null","","","null","21","","NaN","","","","","","","","","","","","","",""
"","response","","html-keyboard-response","148","407098","0.0-1.0-194.0-0.0","0","0","79389","","294","","","75","21","","","1","21","training","adjacent","EF","5","6","N.jpg","L.jpg","1","1","1","",""
"","feedback","","html-keyboard-response","149","408104","0.0-1.0-195.0-0.0","0","0","79389","","null","","","null","21","","","","","","","","","","","","","","","",""
"","ITI","","html-keyboard-response","150","409119","0.0-1.0-198.0","0","0","79389","","null","","","null","21","","","","","","","","","","","","","","","NaN",""
"","S1","","html-keyboard-response","151","409380","0.0-1.0-200.0","0","0","79389","","null","","","null","22","","","","","","","","","","","","","","","",""
"","ISI","","html-keyboard-response","152","409537","0.0-1.0-201.0","0","0","79389","","null","","","null","22","NaN","","","","","","","","","","","","","","",""
"","S2","","html-keyboard-response","153","409798","0.0-1.0-202.0","0","0","79389","","null","","","null","22","","NaN","","","","","","","","","","","","","",""
"","response","","html-keyboard-response","154","410334","0.0-1.0-203.0-0.0","0","0","79389","","531","","","75","22","","","1","22","training","adjacent","FG","6","7","L.jpg","R.jpg","1","1","1","",""
"","feedback","","html-keyboard-response","155","411349","0.0-1.0-204.0-0.0","0","0","79389","","null","","","null","22","","","","","","","","","","","","","","","",""
"","ITI","","html-keyboard-response","156","412353","0.0-1.0-207.0","0","0","79389","","null","","","null","22","","","","","","","","","","","","","","","NaN",""
"","S1","","html-keyboard-response","157","412613","0.0-1.0-209.0","0","0","79389","","null","","","null","23","","","","","","","","","","","","","","","",""
"","ISI","","html-keyboard-response","158","412770","0.0-1.0-210.0","0","0","79389","","null","","","null","23","NaN","","","","","","","","","","","","","","",""
"","S2","","html-keyboard-response","159","413030","0.0-1.0-211.0","0","0","79389","","null","","","null","23","","NaN","","","","","","","","","","","","","",""
"","response","","html-keyboard-response","160","413850","0.0-1.0-212.0-0.0","0","0","79389","","816","","","75","23","","","1","23","training","adjacent","CD","3","4","M.jpg","Q.jpg","1","1","1","",""
"","feedback","","html-keyboard-response","161","414859","0.0-1.0-213.0-0.0","0","0","79389","","null","","","null","23","","","","","","","","","","","","","","","",""
"","ITI","","html-keyboard-response","162","415870","0.0-1.0-216.0","0","0","79389","","null","","","null","23","","","","","","","","","","","","","","","NaN",""
"","S1","","html-keyboard-response","163","416135","0.0-1.0-218.0","0","0","79389","","null","","","null","24","","","","","","","","","","","","","","","",""
"","ISI","","html-keyboard-response","164","416292","0.0-1.0-219.0","0","0","79389","","null","","","null","24","NaN","","","","","","","","","","","","","","",""
"","S2","","html-keyboard-response","165","416554","0.0-1.0-220.0","0","0","79389","","null","","","null","24","","NaN","","","","","","","","","","","","","",""
"","response","","html-keyboard-response","166","417268","0.0-1.0-221.0-0.0","0","0","79389","","709","","","68","24","","","1","24","training","adjacent","DC","4","3","Q.jpg","M.jpg","0","0","1","",""
"","feedback","","html-keyboard-response","167","418278","0.0-1.0-222.0-0.0","0","0","79389","","null","","","null","24","","","","","","","","","","","","","","","",""
"","ITI","","html-keyboard-response","168","419284","0.0-1.0-225.0","0","0","79389","","null","","","null","24","","","","","","","","","","","","","","","NaN",""
"","S1","","html-keyboard-response","169","419540","0.0-1.0-227.0","0","0","79389","","null","","","null","25","","","","","","","","","","","","","","","",""
"","ISI","","html-keyboard-response","170","419700","0.0-1.0-228.0","0","0","79389","","null","","","null","25","NaN","","","","","","","","","","","","","","",""
"","S2","","html-keyboard-response","171","419964","0.0-1.0-229.0","0","0","79389","","null","","","null","25","","NaN","","","","","","","","","","","","","",""
"","response","","html-keyboard-response","172","420373","0.0-1.0-230.0-0.0","0","0","79389","","404","","","75","25","","","1","25","training","adjacent","CD","3","4","M.jpg","Q.jpg","1","1","1","",""
"","feedback","","html-keyboard-response","173","421380","0.0-1.0-231.0-0.0","0","0","79389","","null","","","null","25","","","","","","","","","","","","","","","",""
"","ITI","","html-keyboard-response","174","422386","0.0-1.0-234.0","0","0","79389","","null","","","null","25","","","","","","","","","","","","","","","NaN",""
"","S1","","html-keyboard-response","175","422644","0.0-1.0-236.0","0","0","79389","","null","","","null","26","","","","","","","","","","","","","","","",""
"","ISI","","html-keyboard-response","176","422802","0.0-1.0-237.0","0","0","79389","","null","","","null","26","NaN","","","","","","","","","","","","","","",""
"","S2","","html-keyboard-response","177","423059","0.0-1.0-238.0","0","0","79389","","null","","","null","26","","NaN","","","","","","","","","","","","","",""
"","response","","html-keyboard-response","178","423578","0.0-1.0-239.0-0.0","0","0","79389","","514","","","75","26","","","1","26","training","adjacent","BA","2","1","O.jpg","P.jpg","1","0","0","",""
"","feedback","","html-keyboard-response","179","424585","0.0-1.0-240.0-0.0","0","0","79389","","null","","","null","26","","","","","","","","","","","","","","","",""
"","time_out","","html-keyboard-response","180","426597","0.0-1.0-242.0-0.0","0","0","79389","","null","","","null","26","","","","","","","","","","","","","","","",""
"","ITI","","html-keyboard-response","181","427613","0.0-1.0-243.0","0","0","79389","","null","","","null","26","","","","","","","","","","","","","","","NaN",""
"","S1","","html-keyboard-response","182","427875","0.0-1.0-245.0","0","0","79389","","null","","","null","27","","","","","","","","","","","","","","","",""
"","ISI","","html-keyboard-response","183","428032","0.0-1.0-246.0","0","0","79389","","null","","","null","27","NaN","","","","","","","","","","","","","","",""
"","S2","","html-keyboard-response","184","428291","0.0-1.0-247.0","0","0","79389","","null","","","null","27","","NaN","","","","","","","","","","","","","",""
"","response","","html-keyboard-response","185","428968","0.0-1.0-248.0-0.0","0","0","79389","","672","","","75","27","","","1","27","training","adjacent","FG","6","7","L.jpg","R.jpg","1","1","1","",""
"","feedback","","html-keyboard-response","186","429979","0.0-1.0-249.0-0.0","0","0","79389","","null","","","null","27","","","","","","","","","","","","","","","",""
"","ITI","","html-keyboard-response","187","430986","0.0-1.0-252.0","0","0","79389","","null","","","null","27","","","","","","","","","","","","","","","NaN",""
"","S1","","html-keyboard-response","188","431247","0.0-1.0-254.0","0","0","79389","","null","","","null","28","","","","","","","","","","","","","","","",""
"","ISI","","html-keyboard-response","189","431403","0.0-1.0-255.0","0","0","79389","","null","","","null","28","NaN","","","","","","","","","","","","","","",""
"","S2","","html-keyboard-response","190","431669","0.0-1.0-256.0","0","0","79389","","null","","","null","28","","NaN","","","","","","","","","","","","","",""
"","response","","html-keyboard-response","191","432062","0.0-1.0-257.0-0.0","0","0","79389","","388","","","75","28","","","1","28","training","adjacent","ED","5","4","N.jpg","Q.jpg","1","0","0","",""
"","feedback","","html-keyboard-response","192","433069","0.0-1.0-258.0-0.0","0","0","79389","","null","","","null","28","","","","","","","","","","","","","","","",""
"","time_out","","html-keyboard-response","193","435076","0.0-1.0-260.0-0.0","0","0","79389","","null","","","null","28","","","","","","","","","","","","","","","",""
"","ITI","","html-keyboard-response","194","436085","0.0-1.0-261.0","0","0","79389","","null","","","null","28","","","","","","","","","","","","","","","NaN",""
"","S1","","html-keyboard-response","195","436348","0.0-1.0-263.0","0","0","79389","","null","","","null","29","","","","","","","","","","","","","","","",""
"","ISI","","html-keyboard-response","196","436504","0.0-1.0-264.0","0","0","79389","","null","","","null","29","NaN","","","","","","","","","","","","","","",""
"","S2","","html-keyboard-response","197","436764","0.0-1.0-265.0","0","0","79389","","null","","","null","29","","NaN","","","","","","","","","","","","","",""
"","response","","html-keyboard-response","198","437431","0.0-1.0-266.0-0.0","0","0","79389","","662","","","75","29","","","1","29","training","adjacent","FE","6","5","L.jpg","N.jpg","1","0","0","",""
"","feedback","","html-keyboard-response","199","438445","0.0-1.0-267.0-0.0","0","0","79389","","null","","","null","29","","","","","","","","","","","","","","","",""
"","time_out","","html-keyboard-response","200","440453","0.0-1.0-269.0-0.0","0","0","79389","","null","","","null","29","","","","","","","","","","","","","","","",""
"","ITI","","html-keyboard-response","201","441469","0.0-1.0-270.0","0","0","79389","","null","","","null","29","","","","","","","","","","","","","","","NaN",""
"","S1","","html-keyboard-response","202","441735","0.0-1.0-272.0","0","0","79389","","null","","","null","30","","","","","","","","","","","","","","","",""
"","ISI","","html-keyboard-response","203","441893","0.0-1.0-273.0","0","0","79389","","null","","","null","30","NaN","","","","","","","","","","","","","","",""
"","S2","","html-keyboard-response","204","442153","0.0-1.0-274.0","0","0","79389","","null","","","null","30","","NaN","","","","","","","","","","","","","",""
"","response","","html-keyboard-response","205","442759","0.0-1.0-275.0-0.0","0","0","79389","","602","","","68","30","","","1","30","training","adjacent","FE","6","5","L.jpg","N.jpg","0","0","1","",""
"","feedback","","html-keyboard-response","206","443769","0.0-1.0-276.0-0.0","0","0","79389","","null","","","null","30","","","","","","","","","","","","","","","",""
"","ITI","","html-keyboard-response","207","444778","0.0-1.0-279.0","0","0","79389","","null","","","null","30","","","","","","","","","","","","","","","NaN",""
"","S1","","html-keyboard-response","208","445035","0.0-1.0-281.0","0","0","79389","","null","","","null","31","","","","","","","","","","","","","","","",""
"","ISI","","html-keyboard-response","209","445195","0.0-1.0-282.0","0","0","79389","","null","","","null","31","NaN","","","","","","","","","","","","","","",""
"","S2","","html-keyboard-response","210","445455","0.0-1.0-283.0","0","0","79389","","null","","","null","31","","NaN","","","","","","","","","","","","","",""
"","response","","html-keyboard-response","211","446067","0.0-1.0-284.0-0.0","0","0","79389","","607","","","75","31","","","1","31","training","adjacent","ED","5","4","N.jpg","Q.jpg","1","0","0","",""
"","feedback","","html-keyboard-response","212","447076","0.0-1.0-285.0-0.0","0","0","79389","","null","","","null","31","","","","","","","","","","","","","","","",""
"","time_out","","html-keyboard-response","213","449084","0.0-1.0-287.0-0.0","0","0","79389","","null","","","null","31","","","","","","","","","","","","","","","",""
"","ITI","","html-keyboard-response","214","450091","0.0-1.0-288.0","0","0","79389","","null","","","null","31","","","","","","","","","","","","","","","NaN",""
"","S1","","html-keyboard-response","215","450354","0.0-1.0-290.0","0","0","79389","","null","","","null","32","","","","","","","","","","","","","","","",""
"","ISI","","html-keyboard-response","216","450516","0.0-1.0-291.0","0","0","79389","","null","","","null","32","NaN","","","","","","","","","","","","","","",""
"","S2","","html-keyboard-response","217","450779","0.0-1.0-292.0","0","0","79389","","null","","","null","32","","NaN","","","","","","","","","","","","","",""
"","response","","html-keyboard-response","218","451495","0.0-1.0-293.0-0.0","0","0","79389","","711","","","75","32","","","1","32","training","adjacent","FE","6","5","L.jpg","N.jpg","1","0","0","",""
"","feedback","","html-keyboard-response","219","452503","0.0-1.0-294.0-0.0","0","0","79389","","null","","","null","32","","","","","","","","","","","","","","","",""
"","time_out","","html-keyboard-response","220","454519","0.0-1.0-296.0-0.0","0","0","79389","","null","","","null","32","","","","","","","","","","","","","","","",""
"","ITI","","html-keyboard-response","221","455534","0.0-1.0-297.0","0","0","79389","","null","","","null","32","","","","","","","","","","","","","","","NaN",""
"","S1","","html-keyboard-response","222","455796","0.0-1.0-299.0","0","0","79389","","null","","","null","33","","","","","","","","","","","","","","","",""
"","ISI","","html-keyboard-response","223","455952","0.0-1.0-300.0","0","0","79389","","null","","","null","33","NaN","","","","","","","","","","","","","","",""
"","S2","","html-keyboard-response","224","456214","0.0-1.0-301.0","0","0","79389","","null","","","null","33","","NaN","","","","","","","","","","","","","",""
"","response","","html-keyboard-response","225","456896","0.0-1.0-302.0-0.0","0","0","79389","","677","","","75","33","","","1","33","training","adjacent","BC","2","3","O.jpg","M.jpg","1","1","1","",""
"","feedback","","html-keyboard-response","226","457903","0.0-1.0-303.0-0.0","0","0","79389","","null","","","null","33","","","","","","","","","","","","","","","",""
"","ITI","","html-keyboard-response","227","458918","0.0-1.0-306.0","0","0","79389","","null","","","null","33","","","","","","","","","","","","","","","NaN",""
"","S1","","html-keyboard-response","228","459182","0.0-1.0-308.0","0","0","79389","","null","","","null","34","","","","","","","","","","","","","","","",""
"","ISI","","html-keyboard-response","229","459337","0.0-1.0-309.0","0","0","79389","","null","","","null","34","NaN","","","","","","","","","","","","","","",""
"","S2","","html-keyboard-response","230","459598","0.0-1.0-310.0","0","0","79389","","null","","","null","34","","NaN","","","","","","","","","","","","","",""
"","response","","html-keyboard-response","231","460123","0.0-1.0-311.0-0.0","0","0","79389","","520","","","68","34","","","1","34","training","adjacent","FG","6","7","L.jpg","R.jpg","0","1","0","",""
"","feedback","","html-keyboard-response","232","461134","0.0-1.0-312.0-0.0","0","0","79389","","null","","","null","34","","","","","","","","","","","","","","","",""
"","time_out","","html-keyboard-response","233","463149","0.0-1.0-314.0-0.0","0","0","79389","","null","","","null","34","","","","","","","","","","","","","","","",""
"","ITI","","html-keyboard-response","234","464154","0.0-1.0-315.0","0","0","79389","","null","","","null","34","","","","","","","","","","","","","","","NaN",""
"","S1","","html-keyboard-response","235","464415","0.0-1.0-317.0","0","0","79389","","null","","","null","35","","","","","","","","","","","","","","","",""
"","ISI","","html-keyboard-response","236","464578","0.0-1.0-318.0","0","0","79389","","null","","","null","35","NaN","","","","","","","","","","","","","","",""
"","S2","","html-keyboard-response","237","464834","0.0-1.0-319.0","0","0","79389","","null","","","null","35","","NaN","","","","","","","","","","","","","",""
"","response","","html-keyboard-response","238","465392","0.0-1.0-320.0-0.0","0","0","79389","","553","","","68","35","","","1","35","training","adjacent","AB","1","2","P.jpg","O.jpg","0","1","0","",""
"","feedback","","html-keyboard-response","239","466403","0.0-1.0-321.0-0.0","0","0","79389","","null","","","null","35","","","","","","","","","","","","","","","",""
"","time_out","","html-keyboard-response","240","468415","0.0-1.0-323.0-0.0","0","0","79389","","null","","","null","35","","","","","","","","","","","","","","","",""
"","ITI","","html-keyboard-response","241","469425","0.0-1.0-324.0","0","0","79389","","null","","","null","35","","","","","","","","","","","","","","","NaN",""
"","S1","","html-keyboard-response","242","469685","0.0-1.0-326.0","0","0","79389","","null","","","null","36","","","","","","","","","","","","","","","",""
"","ISI","","html-keyboard-response","243","469843","0.0-1.0-327.0","0","0","79389","","null","","","null","36","NaN","","","","","","","","","","","","","","",""
"","S2","","html-keyboard-response","244","470103","0.0-1.0-328.0","0","0","79389","","null","","","null","36","","NaN","","","","","","","","","","","","","",""
"","response","","html-keyboard-response","245","470364","0.0-1.0-329.0-0.0","0","0","79389","","257","","","75","36","","","1","36","training","adjacent","BC","2","3","O.jpg","M.jpg","1","1","1","",""
"","feedback","","html-keyboard-response","246","471370","0.0-1.0-330.0-0.0","0","0","79389","","null","","","null","36","","","","","","","","","","","","","","","",""
"","ITI","","html-keyboard-response","247","472378","0.0-1.0-333.0","0","0","79389","","null","","","null","36","","","","","","","","","","","","","","","NaN",""
"","S1","","html-keyboard-response","248","472636","0.0-1.0-335.0","0","0","79389","","null","","","null","37","","","","","","","","","","","","","","","",""
"","ISI","","html-keyboard-response","249","472798","0.0-1.0-336.0","0","0","79389","","null","","","null","37","NaN","","","","","","","","","","","","","","",""
"","S2","","html-keyboard-response","250","473054","0.0-1.0-337.0","0","0","79389","","null","","","null","37","","NaN","","","","","","","","","","","","","",""
"","response","","html-keyboard-response","251","473424","0.0-1.0-338.0-0.0","0","0","79389","","366","","","75","37","","","1","37","training","adjacent","ED","5","4","N.jpg","Q.jpg","1","0","0","",""
"","feedback","","html-keyboard-response","252","474434","0.0-1.0-339.0-0.0","0","0","79389","","null","","","null","37","","","","","","","","","","","","","","","",""
"","time_out","","html-keyboard-response","253","476444","0.0-1.0-341.0-0.0","0","0","79389","","null","","","null","37","","","","","","","","","","","","","","","",""
"","ITI","","html-keyboard-response","254","477453","0.0-1.0-342.0","0","0","79389","","null","","","null","37","","","","","","","","","","","","","","","NaN",""
"","S1","","html-keyboard-response","255","477715","0.0-1.0-344.0","0","0","79389","","null","","","null","38","","","","","","","","","","","","","","","",""
"","ISI","","html-keyboard-response","256","477878","0.0-1.0-345.0","0","0","79389","","null","","","null","38","NaN","","","","","","","","","","","","","","",""
"","S2","","html-keyboard-response","257","478136","0.0-1.0-346.0","0","0","79389","","null","","","null","38","","NaN","","","","","","","","","","","","","",""
"","response","","html-keyboard-response","258","478173","0.0-1.0-347.0-0.0","0","0","79389","","33","","","68","38","","","1","38","training","adjacent","GF","7","6","R.jpg","L.jpg","0","0","1","",""
"","feedback","","html-keyboard-response","259","479187","0.0-1.0-348.0-0.0","0","0","79389","","null","","","null","38","","","","","","","","","","","","","","","",""
"","ITI","","html-keyboard-response","260","480194","0.0-1.0-351.0","0","0","79389","","null","","","null","38","","","","","","","","","","","","","","","NaN",""
"","S1","","html-keyboard-response","261","480451","0.0-1.0-353.0","0","0","79389","","null","","","null","39","","","","","","","","","","","","","","","",""
"","ISI","","html-keyboard-response","262","480614","0.0-1.0-354.0","0","0","79389","","null","","","null","39","NaN","","","","","","","","","","","","","","",""
"","S2","","html-keyboard-response","263","480623","0.0-1.0-355.0","0","0","79389","","6","","","75","39","","k","1","39","training","adjacent","EF","5","6","N.jpg","L.jpg","1","1","1","",""
"","feedback","","html-keyboard-response","264","481634","0.0-1.0-357.0-0.0","0","0","79389","","null","","","null","39","","","","","","","","","","","","","","","",""
"","ITI","","html-keyboard-response","265","482643","0.0-1.0-360.0","0","0","79389","","null","","","null","39","","","","","","","","","","","","","","","NaN",""
"","S1","","html-keyboard-response","266","482903","0.0-1.0-362.0","0","0","79389","","null","","","null","40","","","","","","","","","","","","","","","",""
"","ISI","","html-keyboard-response","267","483067","0.0-1.0-363.0","0","0","79389","","null","","","null","40","NaN","","","","","","","","","","","","","","",""
"","S2","","html-keyboard-response","268","483329","0.0-1.0-364.0","0","0","79389","","258","","","75","40","","k","1","40","training","adjacent","GF","7","6","R.jpg","L.jpg","1","0","0","",""
"","feedback","","html-keyboard-response","269","484336","0.0-1.0-366.0-0.0","0","0","79389","","null","","","null","40","","","","","","","","","","","","","","","",""
"","time_out","","html-keyboard-response","270","486348","0.0-1.0-368.0-0.0","0","0","79389","","null","","","null","40","","","","","","","","","","","","","","","",""
"","ITI","","html-keyboard-response","271","487365","0.0-1.0-369.0","0","0","79389","","null","","","null","40","","","","","","","","","","","","","","","NaN",""
"","S1","","html-keyboard-response","272","487628","0.0-1.0-371.0","0","0","79389","","null","","","null","41","","","","","","","","","","","","","","","",""
"","ISI","","html-keyboard-response","273","487787","0.0-1.0-372.0","0","0","79389","","null","","","null","41","NaN","","","","","","","","","","","","","","",""
"","S2","","html-keyboard-response","274","488018","0.0-1.0-373.0","0","0","79389","","226","","","68","41","","d","1","41","training","adjacent","FE","6","5","L.jpg","N.jpg","0","0","1","",""
"","feedback","","html-keyboard-response","275","489028","0.0-1.0-375.0-0.0","0","0","79389","","null","","","null","41","","","","","","","","","","","","","","","",""
"","ITI","","html-keyboard-response","276","490034","0.0-1.0-378.0","0","0","79389","","null","","","null","41","","","","","","","","","","","","","","","NaN",""
"","S1","","html-keyboard-response","277","490290","0.0-1.0-380.0","0","0","79389","","null","","","null","42","","","","","","","","","","","","","","","",""
"","ISI","","html-keyboard-response","278","490453","0.0-1.0-381.0","0","0","79389","","null","","","null","42","NaN","","","","","","","","","","","","","","",""
"","S2","","html-keyboard-response","279","490717","0.0-1.0-382.0","0","0","79389","","null","","","null","42","","NaN","","","","","","","","","","","","","",""
"","response","","html-keyboard-response","280","490731","0.0-1.0-383.0-0.0","0","0","79389","","11","","","75","42","","","1","42","training","adjacent","GF","7","6","R.jpg","L.jpg","1","0","0","",""
"","feedback","","html-keyboard-response","281","491738","0.0-1.0-384.0-0.0","0","0","79389","","null","","","null","42","","","","","","","","","","","","","","","",""
"","time_out","","html-keyboard-response","282","493748","0.0-1.0-386.0-0.0","0","0","79389","","null","","","null","42","","","","","","","","","","","","","","","",""
"","ITI","","html-keyboard-response","283","494764","0.0-1.0-387.0","0","0","79389","","null","","","null","42","","","","","","","","","","","","","","","NaN",""
"","S1","","html-keyboard-response","284","495028","0.0-1.0-389.0","0","0","79389","","null","","","null","43","","","","","","","","","","","","","","","",""
"","ISI","","html-keyboard-response","285","495183","0.0-1.0-390.0","0","0","79389","","null","","","null","43","NaN","","","","","","","","","","","","","","",""
"","S2","","html-keyboard-response","286","495355","0.0-1.0-391.0","0","0","79389","","166","","","75","43","","k","1","43","training","adjacent","EF","5","6","N.jpg","L.jpg","1","1","1","",""
"","feedback","","html-keyboard-response","287","496365","0.0-1.0-393.0-0.0","0","0","79389","","null","","","null","43","","","","","","","","","","","","","","","",""
"","ITI","","html-keyboard-response","288","497377","0.0-1.0-396.0","0","0","79389","","null","","","null","43","","","","","","","","","","","","","","","NaN",""
"","S1","","html-keyboard-response","289","497636","0.0-1.0-398.0","0","0","79389","","null","","","null","44","","","","","","","","","","","","","","","",""
"","ISI","","html-keyboard-response","290","497794","0.0-1.0-399.0","0","0","79389","","null","","","null","44","NaN","","","","","","","","","","","","","","",""
"","S2","","html-keyboard-response","291","498053","0.0-1.0-400.0","0","0","79389","","null","","","null","44","","NaN","","","","","","","","","","","","","",""
"","response","","html-keyboard-response","292","498133","0.0-1.0-401.0-0.0","0","0","79389","","75","","","68","44","","","1","44","training","adjacent","GF","7","6","R.jpg","L.jpg","0","0","1","",""
"","feedback","","html-keyboard-response","293","499146","0.0-1.0-402.0-0.0","0","0","79389","","null","","","null","44","","","","","","","","","","","","","","","",""
"","ITI","","html-keyboard-response","294","500156","0.0-1.0-405.0","0","0","79389","","null","","","null","44","","","","","","","","","","","","","","","NaN",""
"","S1","","html-keyboard-response","295","500417","0.0-1.0-407.0","0","0","79389","","null","","","null","45","","","","","","","","","","","","","","","",""
"","ISI","","html-keyboard-response","296","500578","0.0-1.0-408.0","0","0","79389","","null","","","null","45","NaN","","","","","","","","","","","","","","",""
"","S2","","html-keyboard-response","297","500833","0.0-1.0-409.0","0","0","79389","","null","","","null","45","","NaN","","","","","","","","","","","","","",""
"","response","","html-keyboard-response","298","501060","0.0-1.0-410.0-0.0","0","0","79389","","222","","","68","45","","","1","45","training","adjacent","DE","4","5","Q.jpg","N.jpg","0","1","0","",""
"","feedback","","html-keyboard-response","299","502067","0.0-1.0-411.0-0.0","0","0","79389","","null","","","null","45","","","","","","","","","","","","","","","",""
"","time_out","","html-keyboard-response","300","504074","0.0-1.0-413.0-0.0","0","0","79389","","null","","","null","45","","","","","","","","","","","","","","","",""
"","ITI","","html-keyboard-response","301","505083","0.0-1.0-414.0","0","0","79389","","null","","","null","45","","","","","","","","","","","","","","","NaN",""
"","S1","","html-keyboard-response","302","505346","0.0-1.0-416.0","0","0","79389","","null","","","null","46","","","","","","","","","","","","","","","",""
"","ISI","","html-keyboard-response","303","505502","0.0-1.0-417.0","0","0","79389","","null","","","null","46","NaN","","","","","","","","","","","","","","",""
"","S2","","html-keyboard-response","304","505763","0.0-1.0-418.0","0","0","79389","","null","","","null","46","","NaN","","","","","","","","","","","","","",""
"","response","","html-keyboard-response","305","505768","0.0-1.0-419.0-0.0","0","0","79389","","2","","","68","46","","","1","46","training","adjacent","DE","4","5","Q.jpg","N.jpg","0","1","0","",""
"","feedback","","html-keyboard-response","306","506778","0.0-1.0-420.0-0.0","0","0","79389","","null","","","null","46","","","","","","","","","","","","","","","",""
"","time_out","","html-keyboard-response","307","508786","0.0-1.0-422.0-0.0","0","0","79389","","null","","","null","46","","","","","","","","","","","","","","","",""
"","ITI","","html-keyboard-response","308","509795","0.0-1.0-423.0","0","0","79389","","null","","","null","46","","","","","","","","","","","","","","","NaN",""
"","S1","","html-keyboard-response","309","510053","0.0-1.0-425.0","0","0","79389","","null","","","null","47","","","","","","","","","","","","","","","",""
"","ISI","","html-keyboard-response","310","510213","0.0-1.0-426.0","0","0","79389","","66","","","75","47","k","","","","","","","","","","","","","","",""
"","S2","","html-keyboard-response","311","510471","0.0-1.0-427.0","0","0","79389","","null","","","null","47","","NaN","","","","","","","","","","","","","",""
"","response","","html-keyboard-response","312","510666","0.0-1.0-428.0-0.0","0","0","79389","","190","","","75","47","","","1","47","training","adjacent","CD","3","4","M.jpg","Q.jpg","1","1","1","",""
"","feedback","","html-keyboard-response","313","511678","0.0-1.0-429.0-0.0","0","0","79389","","null","","","null","47","","","","","","","","","","","","","","","",""
"","ITI","","html-keyboard-response","314","512686","0.0-1.0-432.0","0","0","79389","","null","","","null","47","","","","","","","","","","","","","","","NaN",""
"","block_over","","html-keyboard-response","315","519678","0.0-1.0-433.0-0.0","0","0","79389","","6985","","","32","47","","","","","","","","","","","","","","","",""
"","S1","","html-keyboard-response","316","519937","0.0-1.0-434.0","0","0","79389","","null","","","null","48","","","","","","","","","","","","","","","",""
"","ISI","","html-keyboard-response","317","520101","0.0-1.0-435.0","0","0","79389","","null","","","null","48","NaN","","","","","","","","","","","","","","",""
"","S2","","html-keyboard-response","318","520363","0.0-1.0-436.0","0","0","79389","","null","","","null","48","","NaN","","","","","","","","","","","","","",""
"","response","","html-keyboard-response","319","520800","0.0-1.0-437.0-0.0","0","0","79389","","431","","","75","48","","","2","48","training","adjacent","CB","3","2","M.jpg","O.jpg","1","0","0","",""
"","feedback","","html-keyboard-response","320","521812","0.0-1.0-438.0-0.0","0","0","79389","","null","","","null","48","","","","","","","","","","","","","","","",""
"","time_out","","html-keyboard-response","321","523818","0.0-1.0-440.0-0.0","0","0","79389","","null","","","null","48","","","","","","","","","","","","","","","",""
"","ITI","","html-keyboard-response","322","524828","0.0-1.0-441.0","0","0","79389","","null","","","null","48","","","","","","","","","","","","","","","NaN",""
"","S1","","html-keyboard-response","323","525087","0.0-1.0-443.0","0","0","79389","","null","","","null","49","","","","","","","","","","","","","","","",""
"","ISI","","html-keyboard-response","324","525246","0.0-1.0-444.0","0","0","79389","","null","","","null","49","NaN","","","","","","","","","","","","","","",""
"","S2","","html-keyboard-response","325","525502","0.0-1.0-445.0","0","0","79389","","null","","","null","49","","NaN","","","","","","","","","","","","","",""
"","response","","html-keyboard-response","326","525619","0.0-1.0-446.0-0.0","0","0","79389","","114","","","75","49","","","2","49","training","adjacent","FE","6","5","L.jpg","N.jpg","1","0","0","",""
"","feedback","","html-keyboard-response","327","526627","0.0-1.0-447.0-0.0","0","0","79389","","null","","","null","49","","","","","","","","","","","","","","","",""
"","time_out","","html-keyboard-response","328","528636","0.0-1.0-449.0-0.0","0","0","79389","","null","","","null","49","","","","","","","","","","","","","","","",""
"","ITI","","html-keyboard-response","329","529651","0.0-1.0-450.0","0","0","79389","","null","","","null","49","","","","","","","","","","","","","","","NaN",""
"","S1","","html-keyboard-response","330","529917","0.0-1.0-452.0","0","0","79389","","null","","","null","50","","","","","","","","","","","","","","","",""
"","ISI","","html-keyboard-response","331","530074","0.0-1.0-453.0","0","0","79389","","null","","","null","50","NaN","","","","","","","","","","","","","","",""
"","S2","","html-keyboard-response","332","530338","0.0-1.0-454.0","0","0","79389","","null","","","null","50","","NaN","","","","","","","","","","","","","",""
"","response","","html-keyboard-response","333","530711","0.0-1.0-455.0-0.0","0","0","79389","","368","","","68","50","","","2","50","training","adjacent","GF","7","6","R.jpg","L.jpg","0","0","1","",""
"","feedback","","html-keyboard-response","334","531719","0.0-1.0-456.0-0.0","0","0","79389","","null","","","null","50","","","","","","","","","","","","","","","",""
"","ITI","","html-keyboard-response","335","532733","0.0-1.0-459.0","0","0","79389","","null","","","null","50","","","","","","","","","","","","","","","NaN",""
"","S1","","html-keyboard-response","336","532997","0.0-1.0-461.0","0","0","79389","","null","","","null","51","","","","","","","","","","","","","","","",""
"","ISI","","html-keyboard-response","337","533154","0.0-1.0-462.0","0","0","79389","","null","","","null","51","NaN","","","","","","","","","","","","","","",""
"","S2","","html-keyboard-response","338","533417","0.0-1.0-463.0","0","0","79389","","null","","","null","51","","NaN","","","","","","","","","","","","","",""
"","response","","html-keyboard-response","339","533953","0.0-1.0-464.0-0.0","0","0","79389","","531","","","68","51","","","2","51","training","adjacent","FG","6","7","L.jpg","R.jpg","0","1","0","",""
"","feedback","","html-keyboard-response","340","534962","0.0-1.0-465.0-0.0","0","0","79389","","null","","","null","51","","","","","","","","","","","","","","","",""
"","time_out","","html-keyboard-response","341","536971","0.0-1.0-467.0-0.0","0","0","79389","","null","","","null","51","","","","","","","","","","","","","","","",""
"","ITI","","html-keyboard-response","342","537981","0.0-1.0-468.0","0","0","79389","","null","","","null","51","","","","","","","","","","","","","","","NaN",""
"","S1","","html-keyboard-response","343","538242","0.0-1.0-470.0","0","0","79389","","null","","","null","52","","","","","","","","","","","","","","","",""
"","ISI","","html-keyboard-response","344","538401","0.0-1.0-471.0","0","0","79389","","null","","","null","52","NaN","","","","","","","","","","","","","","",""
"","S2","","html-keyboard-response","345","538657","0.0-1.0-472.0","0","0","79389","","null","","","null","52","","NaN","","","","","","","","","","","","","",""
"","response","","html-keyboard-response","346","539362","0.0-1.0-473.0-0.0","0","0","79389","","700","","","75","52","","","2","52","training","adjacent","CD","3","4","M.jpg","Q.jpg","1","1","1","",""
"","feedback","","html-keyboard-response","347","540369","0.0-1.0-474.0-0.0","0","0","79389","","null","","","null","52","","","","","","","","","","","","","","","",""
"","ITI","","html-keyboard-response","348","541379","0.0-1.0-477.0","0","0","79389","","null","","","null","52","","","","","","","","","","","","","","","NaN",""
"","S1","","html-keyboard-response","349","541636","0.0-1.0-479.0","0","0","79389","","null","","","null","53","","","","","","","","","","","","","","","",""
"","ISI","","html-keyboard-response","350","541797","0.0-1.0-480.0","0","0","79389","","null","","","null","53","NaN","","","","","","","","","","","","","","",""
"","S2","","html-keyboard-response","351","542054","0.0-1.0-481.0","0","0","79389","","null","","","null","53","","NaN","","","","","","","","","","","","","",""
"","response","","html-keyboard-response","352","542753","0.0-1.0-482.0-0.0","0","0","79389","","695","","","68","53","","","2","53","training","adjacent","DE","4","5","Q.jpg","N.jpg","0","1","0","",""
"","feedback","","html-keyboard-response","353","543762","0.0-1.0-483.0-0.0","0","0","79389","","null","","","null","53","","","","","","","","","","","","","","","",""
"","time_out","","html-keyboard-response","354","545770","0.0-1.0-485.0-0.0","0","0","79389","","null","","","null","53","","","","","","","","","","","","","","","",""
"","ITI","","html-keyboard-response","355","546781","0.0-1.0-486.0","0","0","79389","","null","","","null","53","","","","","","","","","","","","","","","NaN",""
"","S1","","html-keyboard-response","356","547043","0.0-1.0-488.0","0","0","79389","","null","","","null","54","","","","","","","","","","","","","","","",""
"","ISI","","html-keyboard-response","357","547202","0.0-1.0-489.0","0","0","79389","","null","","","null","54","NaN","","","","","","","","","","","","","","",""
"","S2","","html-keyboard-response","358","547467","0.0-1.0-490.0","0","0","79389","","null","","","null","54","","NaN","","","","","","","","","","","","","",""
"","response","","html-keyboard-response","359","548089","0.0-1.0-491.0-0.0","0","0","79389","","617","","","68","54","","","2","54","training","adjacent","GF","7","6","R.jpg","L.jpg","0","0","1","",""
"","feedback","","html-keyboard-response","360","549097","0.0-1.0-492.0-0.0","0","0","79389","","null","","","null","54","","","","","","","","","","","","","","","",""
"","ITI","","html-keyboard-response","361","550104","0.0-1.0-495.0","0","0","79389","","null","","","null","54","","","","","","","","","","","","","","","NaN",""
"","S1","","html-keyboard-response","362","550363","0.0-1.0-497.0","0","0","79389","","null","","","null","55","","","","","","","","","","","","","","","",""
"","ISI","","html-keyboard-response","363","550518","0.0-1.0-498.0","0","0","79389","","null","","","null","55","NaN","","","","","","","","","","","","","","",""
"","S2","","html-keyboard-response","364","550776","0.0-1.0-499.0","0","0","79389","","null","","","null","55","","NaN","","","","","","","","","","","","","",""
"","response","","html-keyboard-response","365","551659","0.0-1.0-500.0-0.0","0","0","79389","","879","","","75","55","","","2","55","training","adjacent","BC","2","3","O.jpg","M.jpg","1","1","1","",""
"","feedback","","html-keyboard-response","366","552670","0.0-1.0-501.0-0.0","0","0","79389","","null","","","null","55","","","","","","","","","","","","","","","",""
"","ITI","","html-keyboard-response","367","553683","0.0-1.0-504.0","0","0","79389","","null","","","null","55","","","","","","","","","","","","","","","NaN",""
"","S1","","html-keyboard-response","368","553945","0.0-1.0-506.0","0","0","79389","","null","","","null","56","","","","","","","","","","","","","","","",""
"","ISI","","html-keyboard-response","369","554104","0.0-1.0-507.0","0","0","79389","","null","","","null","56","NaN","","","","","","","","","","","","","","",""
"","S2","","html-keyboard-response","370","554362","0.0-1.0-508.0","0","0","79389","","null","","","null","56","","NaN","","","","","","","","","","","","","",""
"","response","","html-keyboard-response","371","555183","0.0-1.0-509.0-0.0","0","0","79389","","815","","","75","56","","","2","56","training","adjacent","CB","3","2","M.jpg","O.jpg","1","0","0","",""
"","feedback","","html-keyboard-response","372","556196","0.0-1.0-510.0-0.0","0","0","79389","","null","","","null","56","","","","","","","","","","","","","","","",""
"","time_out","","html-keyboard-response","373","558211","0.0-1.0-512.0-0.0","0","0","79389","","null","","","null","56","","","","","","","","","","","","","","","",""
"","ITI","","html-keyboard-response","374","559219","0.0-1.0-513.0","0","0","79389","","null","","","null","56","","","","","","","","","","","","","","","NaN",""
"","S1","","html-keyboard-response","375","559482","0.0-1.0-515.0","0","0","79389","","null","","","null","57","","","","","","","","","","","","","","","",""
"","ISI","","html-keyboard-response","376","559641","0.0-1.0-516.0","0","0","79389","","null","","","null","57","NaN","","","","","","","","","","","","","","",""
"","S2","","html-keyboard-response","377","559904","0.0-1.0-517.0","0","0","79389","","null","","","null","57","","NaN","","","","","","","","","","","","","",""
"","response","","html-keyboard-response","378","560898","0.0-1.0-518.0-0.0","0","0","79389","","989","","","68","57","","","2","57","training","adjacent","BC","2","3","O.jpg","M.jpg","0","1","0","",""
"","feedback","","html-keyboard-response","379","561907","0.0-1.0-519.0-0.0","0","0","79389","","null","","","null","57","","","","","","","","","","","","","","","",""
"","time_out","","html-keyboard-response","380","563917","0.0-1.0-521.0-0.0","0","0","79389","","null","","","null","57","","","","","","","","","","","","","","","",""
"","ITI","","html-keyboard-response","381","564932","0.0-1.0-522.0","0","0","79389","","null","","","null","57","","","","","","","","","","","","","","","NaN",""
"","S1","","html-keyboard-response","382","565193","0.0-1.0-524.0","0","0","79389","","null","","","null","58","","","","","","","","","","","","","","","",""
"","ISI","","html-keyboard-response","383","565353","0.0-1.0-525.0","0","0","79389","","null","","","null","58","NaN","","","","","","","","","","","","","","",""
"","S2","","html-keyboard-response","384","565438","0.0-1.0-526.0","0","0","79389","","81","","","75","58","","k","2","58","training","adjacent","FE","6","5","L.jpg","N.jpg","1","0","0","",""
"","feedback","","html-keyboard-response","385","566452","0.0-1.0-528.0-0.0","0","0","79389","","null","","","null","58","","","","","","","","","","","","","","","",""
"","time_out","","html-keyboard-response","386","568466","0.0-1.0-530.0-0.0","0","0","79389","","null","","","null","58","","","","","","","","","","","","","","","",""
"","ITI","","html-keyboard-response","387","569473","0.0-1.0-531.0","0","0","79389","","null","","","null","58","","","","","","","","","","","","","","","NaN",""
"","S1","","html-keyboard-response","388","569736","0.0-1.0-533.0","0","0","79389","","null","","","null","59","","","","","","","","","","","","","","","",""
"","ISI","","html-keyboard-response","389","569896","0.0-1.0-534.0","0","0","79389","","null","","","null","59","NaN","","","","","","","","","","","","","","",""
"","S2","","html-keyboard-response","390","569969","0.0-1.0-535.0","0","0","79389","","67","","","75","59","","k","2","59","training","adjacent","ED","5","4","N.jpg","Q.jpg","1","0","0","",""
"","feedback","","html-keyboard-response","391","570976","0.0-1.0-537.0-0.0","0","0","79389","","null","","","null","59","","","","","","","","","","","","","","","",""
"","time_out","","html-keyboard-response","392","572985","0.0-1.0-539.0-0.0","0","0","79389","","null","","","null","59","","","","","","","","","","","","","","","",""
"","ITI","","html-keyboard-response","393","573995","0.0-1.0-540.0","0","0","79389","","null","","","null","59","","","","","","","","","","","","","","","NaN",""
"","S1","","html-keyboard-response","394","574252","0.0-1.0-542.0","0","0","79389","","null","","","null","60","","","","","","","","","","","","","","","",""
"","ISI","","html-keyboard-response","395","574412","0.0-1.0-543.0","0","0","79389","","null","","","null","60","NaN","","","","","","","","","","","","","","",""
"","S2","","html-keyboard-response","396","574586","0.0-1.0-544.0","0","0","79389","","168","","","75","60","","k","2","60","training","adjacent","ED","5","4","N.jpg","Q.jpg","1","0","0","",""
"","feedback","","html-keyboard-response","397","575594","0.0-1.0-546.0-0.0","0","0","79389","","null","","","null","60","","","","","","","","","","","","","","","",""
"","time_out","","html-keyboard-response","398","577602","0.0-1.0-548.0-0.0","0","0","79389","","null","","","null","60","","","","","","","","","","","","","","","",""
"","ITI","","html-keyboard-response","399","578609","0.0-1.0-549.0","0","0","79389","","null","","","null","60","","","","","","","","","","","","","","","NaN",""
"","S1","","html-keyboard-response","400","578869","0.0-1.0-551.0","0","0","79389","","null","","","null","61","","","","","","","","","","","","","","","",""
"","ISI","","html-keyboard-response","401","579033","0.0-1.0-552.0","0","0","79389","","null","","","null","61","NaN","","","","","","","","","","","","","","",""
"","S2","","html-keyboard-response","402","579141","0.0-1.0-553.0","0","0","79389","","103","","","68","61","","d","2","61","training","adjacent","EF","5","6","N.jpg","L.jpg","0","1","0","",""
"","feedback","","html-keyboard-response","403","580150","0.0-1.0-555.0-0.0","0","0","79389","","null","","","null","61","","","","","","","","","","","","","","","",""
"","time_out","","html-keyboard-response","404","582159","0.0-1.0-557.0-0.0","0","0","79389","","null","","","null","61","","","","","","","","","","","","","","","",""
"","ITI","","html-keyboard-response","405","583168","0.0-1.0-558.0","0","0","79389","","null","","","null","61","","","","","","","","","","","","","","","NaN",""
"","S1","","html-keyboard-response","406","583425","0.0-1.0-560.0","0","0","79389","","null","","","null","62","","","","","","","","","","","","","","","",""
"","ISI","","html-keyboard-response","407","583582","0.0-1.0-561.0","0","0","79389","","null","","","null","62","NaN","","","","","","","","","","","","","","",""
"","S2","","html-keyboard-response","408","583837","0.0-1.0-562.0","0","0","79389","","null","","","null","62","","NaN","","","","","","","","","","","","","",""
"","response","","html-keyboard-response","409","583914","0.0-1.0-563.0-0.0","0","0","79389","","72","","","75","62","","","2","62","training","adjacent","DE","4","5","Q.jpg","N.jpg","1","1","1","",""
"","feedback","","html-keyboard-response","410","584921","0.0-1.0-564.0-0.0","0","0","79389","","null","","","null","62","","","","","","","","","","","","","","","",""
"","ITI","","html-keyboard-response","411","585932","0.0-1.0-567.0","0","0","79389","","null","","","null","62","","","","","","","","","","","","","","","NaN",""
"","S1","","html-keyboard-response","412","586193","0.0-1.0-569.0","0","0","79389","","null","","","null","63","","","","","","","","","","","","","","","",""
"","ISI","","html-keyboard-response","413","586353","0.0-1.0-570.0","0","0","79389","","null","","","null","63","NaN","","","","","","","","","","","","","","",""
"","S2","","html-keyboard-response","414","586616","0.0-1.0-571.0","0","0","79389","","null","","","null","63","","NaN","","","","","","","","","","","","","",""
"","response","","html-keyboard-response","415","586719","0.0-1.0-572.0-0.0","0","0","79389","","98","","","75","63","","","2","63","training","adjacent","BA","2","1","O.jpg","P.jpg","1","0","0","",""
"","feedback","","html-keyboard-response","416","587731","0.0-1.0-573.0-0.0","0","0","79389","","null","","","null","63","","","","","","","","","","","","","","","",""
"","time_out","","html-keyboard-response","417","589746","0.0-1.0-575.0-0.0","0","0","79389","","null","","","null","63","","","","","","","","","","","","","","","",""
"","ITI","","html-keyboard-response","418","590753","0.0-1.0-576.0","0","0","79389","","null","","","null","63","","","","","","","","","","","","","","","NaN",""
"","S1","","html-keyboard-response","419","591015","0.0-1.0-578.0","0","0","79389","","null","","","null","64","","","","","","","","","","","","","","","",""
"","ISI","","html-keyboard-response","420","591176","0.0-1.0-579.0","0","0","79389","","null","","","null","64","NaN","","","","","","","","","","","","","","",""
"","S2","","html-keyboard-response","421","591342","0.0-1.0-580.0","0","0","79389","","161","","","75","64","","k","2","64","training","adjacent","ED","5","4","N.jpg","Q.jpg","1","0","0","",""
"","feedback","","html-keyboard-response","422","592349","0.0-1.0-582.0-0.0","0","0","79389","","null","","","null","64","","","","","","","","","","","","","","","",""
"","time_out","","html-keyboard-response","423","594364","0.0-1.0-584.0-0.0","0","0","79389","","null","","","null","64","","","","","","","","","","","","","","","",""
"","ITI","","html-keyboard-response","424","595379","0.0-1.0-585.0","0","0","79389","","null","","","null","64","","","","","","","","","","","","","","","NaN",""
"","S1","","html-keyboard-response","425","595636","0.0-1.0-587.0","0","0","79389","","null","","","null","65","","","","","","","","","","","","","","","",""
"","ISI","","html-keyboard-response","426","595792","0.0-1.0-588.0","0","0","79389","","null","","","null","65","NaN","","","","","","","","","","","","","","",""
"","S2","","html-keyboard-response","427","595955","0.0-1.0-589.0","0","0","79389","","158","","","75","65","","k","2","65","training","adjacent","GF","7","6","R.jpg","L.jpg","1","0","0","",""
"","feedback","","html-keyboard-response","428","596967","0.0-1.0-591.0-0.0","0","0","79389","","null","","","null","65","","","","","","","","","","","","","","","",""
"","time_out","","html-keyboard-response","429","598978","0.0-1.0-593.0-0.0","0","0","79389","","null","","","null","65","","","","","","","","","","","","","","","",""
"","ITI","","html-keyboard-response","430","599986","0.0-1.0-594.0","0","0","79389","","null","","","null","65","","","","","","","","","","","","","","","NaN",""
"","S1","","html-keyboard-response","431","600250","0.0-1.0-596.0","0","0","79389","","null","","","null","66","","","","","","","","","","","","","","","",""
"","ISI","","html-keyboard-response","432","600410","0.0-1.0-597.0","0","0","79389","","148","","","68","66","d","","","","","","","","","","","","","","",""
"","S2","","html-keyboard-response","433","600629","0.0-1.0-598.0","0","0","79389","","214","","","68","66","","d","2","66","training","adjacent","GF","7","6","R.jpg","L.jpg","0","0","1","",""
"","feedback","","html-keyboard-response","434","601636","0.0-1.0-600.0-0.0","0","0","79389","","null","","","null","66","","","","","","","","","","","","","","","",""
"","ITI","","html-keyboard-response","435","602650","0.0-1.0-603.0","0","0","79389","","null","","","null","66","","","","","","","","","","","","","","","NaN",""
"","S1","","html-keyboard-response","436","602915","0.0-1.0-605.0","0","0","79389","","null","","","null","67","","","","","","","","","","","","","","","",""
"","ISI","","html-keyboard-response","437","603071","0.0-1.0-606.0","0","0","79389","","null","","","null","67","NaN","","","","","","","","","","","","","","",""
"","S2","","html-keyboard-response","438","603293","0.0-1.0-607.0","0","0","79389","","218","","","75","67","","k","2","67","training","adjacent","BA","2","1","O.jpg","P.jpg","1","0","0","",""
"","feedback","","html-keyboard-response","439","604304","0.0-1.0-609.0-0.0","0","0","79389","","null","","","null","67","","","","","","","","","","","","","","","",""
"","time_out","","html-keyboard-response","440","606312","0.0-1.0-611.0-0.0","0","0","79389","","null","","","null","67","","","","","","","","","","","","","","","",""
"","ITI","","html-keyboard-response","441","607319","0.0-1.0-612.0","0","0","79389","","null","","","null","67","","","","","","","","","","","","","","","NaN",""
"","S1","","html-keyboard-response","442","607578","0.0-1.0-614.0","0","0","79389","","null","","","null","68","","","","","","","","","","","","","","","",""
"","ISI","","html-keyboard-response","443","607735","0.0-1.0-615.0","0","0","79389","","null","","","null","68","NaN","","","","","","","","","","","","","","",""
"","S2","","html-keyboard-response","444","607995","0.0-1.0-616.0","0","0","79389","","null","","","null","68","","NaN","","","","","","","","","","","","","",""
"","response","","html-keyboard-response","445","608131","0.0-1.0-617.0-0.0","0","0","79389","","130","","","75","68","","","2","68","training","adjacent","FG","6","7","L.jpg","R.jpg","1","1","1","",""
"","feedback","","html-keyboard-response","446","609136","0.0-1.0-618.0-0.0","0","0","79389","","null","","","null","68","","","","","","","","","","","","","","","",""
"","ITI","","html-keyboard-response","447","610146","0.0-1.0-621.0","0","0","79389","","null","","","null","68","","","","","","","","","","","","","","","NaN",""
"","S1","","html-keyboard-response","448","610403","0.0-1.0-623.0","0","0","79389","","null","","","null","69","","","","","","","","","","","","","","","",""
"","ISI","","html-keyboard-response","449","610562","0.0-1.0-624.0","0","0","79389","","null","","","null","69","NaN","","","","","","","","","","","","","","",""
"","S2","","html-keyboard-response","450","610819","0.0-1.0-625.0","0","0","79389","","null","","","null","69","","NaN","","","","","","","","","","","","","",""
"","response","","html-keyboard-response","451","611198","0.0-1.0-626.0-0.0","0","0","79389","","374","","","75","69","","","2","69","training","adjacent","BC","2","3","O.jpg","M.jpg","1","1","1","",""
"","feedback","","html-keyboard-response","452","612207","0.0-1.0-627.0-0.0","0","0","79389","","null","","","null","69","","","","","","","","","","","","","","","",""
"","ITI","","html-keyboard-response","453","613216","0.0-1.0-630.0","0","0","79389","","null","","","null","69","","","","","","","","","","","","","","","NaN",""
"","S1","","html-keyboard-response","454","613482","0.0-1.0-632.0","0","0","79389","","null","","","null","70","","","","","","","","","","","","","","","",""
"","ISI","","html-keyboard-response","455","613641","0.0-1.0-633.0","0","0","79389","","null","","","null","70","NaN","","","","","","","","","","","","","","",""
"","S2","","html-keyboard-response","456","613903","0.0-1.0-634.0","0","0","79389","","null","","","null","70","","NaN","","","","","","","","","","","","","",""
"","response","","html-keyboard-response","457","614635","0.0-1.0-635.0-0.0","0","0","79389","","727","","","68","70","","","2","70","training","adjacent","CD","3","4","M.jpg","Q.jpg","0","1","0","",""
"","feedback","","html-keyboard-response","458","615648","0.0-1.0-636.0-0.0","0","0","79389","","null","","","null","70","","","","","","","","","","","","","","","",""
"","time_out","","html-keyboard-response","459","617655","0.0-1.0-638.0-0.0","0","0","79389","","null","","","null","70","","","","","","","","","","","","","","","",""
"","ITI","","html-keyboard-response","460","618667","0.0-1.0-639.0","0","0","79389","","null","","","null","70","","","","","","","","","","","","","","","NaN",""
"","S1","","html-keyboard-response","461","618932","0.0-1.0-641.0","0","0","79389","","null","","","null","71","","","","","","","","","","","","","","","",""
"","ISI","","html-keyboard-response","462","619096","0.0-1.0-642.0","0","0","79389","","null","","","null","71","NaN","","","","","","","","","","","","","","",""
"","S2","","html-keyboard-response","463","619352","0.0-1.0-643.0","0","0","79389","","null","","","null","71","","NaN","","","","","","","","","","","","","",""
"","response","","html-keyboard-response","464","619963","0.0-1.0-644.0-0.0","0","0","79389","","606","","","68","71","","","2","71","training","adjacent","AB","1","2","P.jpg","O.jpg","0","1","0","",""
"","feedback","","html-keyboard-response","465","620976","0.0-1.0-645.0-0.0","0","0","79389","","null","","","null","71","","","","","","","","","","","","","","","",""
"","time_out","","html-keyboard-response","466","622982","0.0-1.0-647.0-0.0","0","0","79389","","null","","","null","71","","","","","","","","","","","","","","","",""
"","ITI","","html-keyboard-response","467","623992","0.0-1.0-648.0","0","0","79389","","null","","","null","71","","","","","","","","","","","","","","","NaN",""
"","S1","","html-keyboard-response","468","624251","0.0-1.0-650.0","0","0","79389","","null","","","null","72","","","","","","","","","","","","","","","",""
"","ISI","","html-keyboard-response","469","624410","0.0-1.0-651.0","0","0","79389","","null","","","null","72","NaN","","","","","","","","","","","","","","",""
"","S2","","html-keyboard-response","470","624611","0.0-1.0-652.0","0","0","79389","","196","","","75","72","","k","2","72","training","adjacent","EF","5","6","N.jpg","L.jpg","1","1","1","",""
"","feedback","","html-keyboard-response","471","625619","0.0-1.0-654.0-0.0","0","0","79389","","null","","","null","72","","","","","","","","","","","","","","","",""
"","ITI","","html-keyboard-response","472","626634","0.0-1.0-657.0","0","0","79389","","null","","","null","72","","","","","","","","","","","","","","","NaN",""
"","S1","","html-keyboard-response","473","626896","0.0-1.0-659.0","0","0","79389","","null","","","null","73","","","","","","","","","","","","","","","",""
"","ISI","","html-keyboard-response","474","627059","0.0-1.0-660.0","0","0","79389","","null","","","null","73","NaN","","","","","","","","","","","","","","",""
"","S2","","html-keyboard-response","475","627319","0.0-1.0-661.0","0","0","79389","","null","","","null","73","","NaN","","","","","","","","","","","","","",""
"","response","","html-keyboard-response","476","628057","0.0-1.0-662.0-0.0","0","0","79389","","732","","","68","73","","","2","73","training","adjacent","DC","4","3","Q.jpg","M.jpg","0","0","1","",""
"","feedback","","html-keyboard-response","477","629065","0.0-1.0-663.0-0.0","0","0","79389","","null","","","null","73","","","","","","","","","","","","","","","",""
"","ITI","","html-keyboard-response","478","630072","0.0-1.0-666.0","0","0","79389","","null","","","null","73","","","","","","","","","","","","","","","NaN",""
"","S1","","html-keyboard-response","479","630336","0.0-1.0-668.0","0","0","79389","","null","","","null","74","","","","","","","","","","","","","","","",""
"","ISI","","html-keyboard-response","480","630495","0.0-1.0-669.0","0","0","79389","","null","","","null","74","NaN","","","","","","","","","","","","","","",""
"","S2","","html-keyboard-response","481","630752","0.0-1.0-670.0","0","0","79389","","null","","","null","74","","NaN","","","","","","","","","","","","","",""
"","response","","html-keyboard-response","482","631224","0.0-1.0-671.0-0.0","0","0","79389","","467","","","75","74","","","2","74","training","adjacent","FG","6","7","L.jpg","R.jpg","1","1","1","",""
"","feedback","","html-keyboard-response","483","632235","0.0-1.0-672.0-0.0","0","0","79389","","null","","","null","74","","","","","","","","","","","","","","","",""
"","ITI","","html-keyboard-response","484","633250","0.0-1.0-675.0","0","0","79389","","null","","","null","74","","","","","","","","","","","","","","","NaN",""
"","S1","","html-keyboard-response","485","633511","0.0-1.0-677.0","0","0","79389","","null","","","null","75","","","","","","","","","","","","","","","",""
"","ISI","","html-keyboard-response","486","633669","0.0-1.0-678.0","0","0","79389","","null","","","null","75","NaN","","","","","","","","","","","","","","",""
"","S2","","html-keyboard-response","487","633931","0.0-1.0-679.0","0","0","79389","","null","","","null","75","","NaN","","","","","","","","","","","","","",""
"","response","","html-keyboard-response","488","635346","0.0-1.0-680.0-0.0","0","0","79389","","1409","","","75","75","","","2","75","training","adjacent","EF","5","6","N.jpg","L.jpg","1","1","1","",""
"","feedback","","html-keyboard-response","489","636353","0.0-1.0-681.0-0.0","0","0","79389","","null","","","null","75","","","","","","","","","","","","","","","",""
"","ITI","","html-keyboard-response","490","637368","0.0-1.0-684.0","0","0","79389","","null","","","null","75","","","","","","","","","","","","","","","NaN",""
"","S1","","html-keyboard-response","491","637634","0.0-1.0-686.0","0","0","79389","","null","","","null","76","","","","","","","","","","","","","","","",""
"","ISI","","html-keyboard-response","492","637796","0.0-1.0-687.0","0","0","79389","","null","","","null","76","NaN","","","","","","","","","","","","","","",""
"","S2","","html-keyboard-response","493","638053","0.0-1.0-688.0","0","0","79389","","null","","","null","76","","NaN","","","","","","","","","","","","","",""
"","response","","html-keyboard-response","494","638892","0.0-1.0-689.0-0.0","0","0","79389","","835","","","68","76","","","2","76","training","adjacent","CD","3","4","M.jpg","Q.jpg","0","1","0","",""
"","feedback","","html-keyboard-response","495","639900","0.0-1.0-690.0-0.0","0","0","79389","","null","","","null","76","","","","","","","","","","","","","","","",""
"","time_out","","html-keyboard-response","496","641911","0.0-1.0-692.0-0.0","0","0","79389","","null","","","null","76","","","","","","","","","","","","","","","",""
"","ITI","","html-keyboard-response","497","642919","0.0-1.0-693.0","0","0","79389","","null","","","null","76","","","","","","","","","","","","","","","NaN",""
"","S1","","html-keyboard-response","498","643175","0.0-1.0-695.0","0","0","79389","","null","","","null","77","","","","","","","","","","","","","","","",""
"","ISI","","html-keyboard-response","499","643336","0.0-1.0-696.0","0","0","79389","","null","","","null","77","NaN","","","","","","","","","","","","","","",""
"","S2","","html-keyboard-response","500","643601","0.0-1.0-697.0","0","0","79389","","null","","","null","77","","NaN","","","","","","","","","","","","","",""
"","response","","html-keyboard-response","501","644004","0.0-1.0-698.0-0.0","0","0","79389","","397","","","75","77","","","2","77","training","adjacent","ED","5","4","N.jpg","Q.jpg","1","0","0","",""
"","feedback","","html-keyboard-response","502","645015","0.0-1.0-699.0-0.0","0","0","79389","","null","","","null","77","","","","","","","","","","","","","","","",""
"","time_out","","html-keyboard-response","503","647025","0.0-1.0-701.0-0.0","0","0","79389","","null","","","null","77","","","","","","","","","","","","","","","",""
"","ITI","","html-keyboard-response","504","648034","0.0-1.0-702.0","0","0","79389","","null","","","null","77","","","","","","","","","","","","","","","NaN",""
"","S1","","html-keyboard-response","505","648295","0.0-1.0-704.0","0","0","79389","","null","","","null","78","","","","","","","","","","","","","","","",""
"","ISI","","html-keyboard-response","506","648454","0.0-1.0-705.0","0","0","79389","","null","","","null","78","NaN","","","","","","","","","","","","","","",""
"","S2","","html-keyboard-response","507","648715","0.0-1.0-706.0","0","0","79389","","null","","","null","78","","NaN","","","","","","","","","","","","","",""
"","response","","html-keyboard-response","508","649106","0.0-1.0-707.0-0.0","0","0","79389","","386","","","75","78","","","2","78","training","adjacent","BA","2","1","O.jpg","P.jpg","1","0","0","",""
"","feedback","","html-keyboard-response","509","650120","0.0-1.0-708.0-0.0","0","0","79389","","null","","","null","78","","","","","","","","","","","","","","","",""
"","time_out","","html-keyboard-response","510","652130","0.0-1.0-710.0-0.0","0","0","79389","","null","","","null","78","","","","","","","","","","","","","","","",""
"","ITI","","html-keyboard-response","511","653143","0.0-1.0-711.0","0","0","79389","","null","","","null","78","","","","","","","","","","","","","","","NaN",""
"","S1","","html-keyboard-response","512","653403","0.0-1.0-713.0","0","0","79389","","null","","","null","79","","","","","","","","","","","","","","","",""
"","ISI","","html-keyboard-response","513","653568","0.0-1.0-714.0","0","0","79389","","null","","","null","79","NaN","","","","","","","","","","","","","","",""
"","S2","","html-keyboard-response","514","653789","0.0-1.0-715.0","0","0","79389","","215","","","68","79","","d","2","79","training","adjacent","DC","4","3","Q.jpg","M.jpg","0","0","1","",""
"","feedback","","html-keyboard-response","515","654800","0.0-1.0-717.0-0.0","0","0","79389","","null","","","null","79","","","","","","","","","","","","","","","",""
"","ITI","","html-keyboard-response","516","655808","0.0-1.0-720.0","0","0","79389","","null","","","null","79","","","","","","","","","","","","","","","NaN",""
"","S1","","html-keyboard-response","517","656064","0.0-1.0-722.0","0","0","79389","","null","","","null","80","","","","","","","","","","","","","","","",""
"","ISI","","html-keyboard-response","518","656225","0.0-1.0-723.0","0","0","79389","","null","","","null","80","NaN","","","","","","","","","","","","","","",""
"","S2","","html-keyboard-response","519","656351","0.0-1.0-724.0","0","0","79389","","120","","","75","80","","k","2","80","training","adjacent","DE","4","5","Q.jpg","N.jpg","1","1","1","",""
"","feedback","","html-keyboard-response","520","657361","0.0-1.0-726.0-0.0","0","0","79389","","null","","","null","80","","","","","","","","","","","","","","","",""
"","ITI","","html-keyboard-response","521","658370","0.0-1.0-729.0","0","0","79389","","null","","","null","80","","","","","","","","","","","","","","","NaN",""
"","S1","","html-keyboard-response","522","658632","0.0-1.0-731.0","0","0","79389","","null","","","null","81","","","","","","","","","","","","","","","",""
"","ISI","","html-keyboard-response","523","658791","0.0-1.0-732.0","0","0","79389","","null","","","null","81","NaN","","","","","","","","","","","","","","",""
"","S2","","html-keyboard-response","524","659052","0.0-1.0-733.0","0","0","79389","","null","","","null","81","","NaN","","","","","","","","","","","","","",""
"","response","","html-keyboard-response","525","659415","0.0-1.0-734.0-0.0","0","0","79389","","358","","","75","81","","","2","81","training","adjacent","CD","3","4","M.jpg","Q.jpg","1","1","1","",""
"","feedback","","html-keyboard-response","526","660424","0.0-1.0-735.0-0.0","0","0","79389","","null","","","null","81","","","","","","","","","","","","","","","",""
"","ITI","","html-keyboard-response","527","661434","0.0-1.0-738.0","0","0","79389","","null","","","null","81","","","","","","","","","","","","","","","NaN",""
"","S1","","html-keyboard-response","528","661695","0.0-1.0-740.0","0","0","79389","","null","","","null","82","","","","","","","","","","","","","","","",""
"","ISI","","html-keyboard-response","529","661852","0.0-1.0-741.0","0","0","79389","","null","","","null","82","NaN","","","","","","","","","","","","","","",""
"","S2","","html-keyboard-response","530","662113","0.0-1.0-742.0","0","0","79389","","null","","","null","82","","NaN","","","","","","","","","","","","","",""
"","response","","html-keyboard-response","531","662242","0.0-1.0-743.0-0.0","0","0","79389","","125","","","75","82","","","2","82","training","adjacent","FE","6","5","L.jpg","N.jpg","1","0","0","",""
"","feedback","","html-keyboard-response","532","663252","0.0-1.0-744.0-0.0","0","0","79389","","null","","","null","82","","","","","","","","","","","","","","","",""
"","time_out","","html-keyboard-response","533","665265","0.0-1.0-746.0-0.0","0","0","79389","","null","","","null","82","","","","","","","","","","","","","","","",""
"","ITI","","html-keyboard-response","534","666272","0.0-1.0-747.0","0","0","79389","","null","","","null","82","","","","","","","","","","","","","","","NaN",""
"","S1","","html-keyboard-response","535","666535","0.0-1.0-749.0","0","0","79389","","null","","","null","83","","","","","","","","","","","","","","","",""
"","ISI","","html-keyboard-response","536","666694","0.0-1.0-750.0","0","0","79389","","null","","","null","83","NaN","","","","","","","","","","","","","","",""
"","S2","","html-keyboard-response","537","666815","0.0-1.0-751.0","0","0","79389","","116","","","68","83","","d","2","83","training","adjacent","AB","1","2","P.jpg","O.jpg","0","1","0","",""
"","feedback","","html-keyboard-response","538","667825","0.0-1.0-753.0-0.0","0","0","79389","","null","","","null","83","","","","","","","","","","","","","","","",""
"","time_out","","html-keyboard-response","539","669833","0.0-1.0-755.0-0.0","0","0","79389","","null","","","null","83","","","","","","","","","","","","","","","",""
"","ITI","","html-keyboard-response","540","670849","0.0-1.0-756.0","0","0","79389","","null","","","null","83","","","","","","","","","","","","","","","NaN",""
"","S1","","html-keyboard-response","541","671110","0.0-1.0-758.0","0","0","79389","","null","","","null","84","","","","","","","","","","","","","","","",""
"","ISI","","html-keyboard-response","542","671265","0.0-1.0-759.0","0","0","79389","","null","","","null","84","NaN","","","","","","","","","","","","","","",""
"","S2","","html-keyboard-response","543","671529","0.0-1.0-760.0","0","0","79389","","null","","","null","84","","NaN","","","","","","","","","","","","","",""
"","response","","html-keyboard-response","544","671872","0.0-1.0-761.0-0.0","0","0","79389","","339","","","75","84","","","2","84","training","adjacent","BC","2","3","O.jpg","M.jpg","1","1","1","",""
"","feedback","","html-keyboard-response","545","672879","0.0-1.0-762.0-0.0","0","0","79389","","null","","","null","84","","","","","","","","","","","","","","","",""
"","ITI","","html-keyboard-response","546","673886","0.0-1.0-765.0","0","0","79389","","null","","","null","84","","","","","","","","","","","","","","","NaN",""
"","S1","","html-keyboard-response","547","674145","0.0-1.0-767.0","0","0","79389","","null","","","null","85","","","","","","","","","","","","","","","",""
"","ISI","","html-keyboard-response","548","674300","0.0-1.0-768.0","0","0","79389","","null","","","null","85","NaN","","","","","","","","","","","","","","",""
"","S2","","html-keyboard-response","549","674558","0.0-1.0-769.0","0","0","79389","","null","","","null","85","","NaN","","","","","","","","","","","","","",""
"","response","","html-keyboard-response","550","675587","0.0-1.0-770.0-0.0","0","0","79389","","1025","","","68","85","","","2","85","training","adjacent","EF","5","6","N.jpg","L.jpg","0","1","0","",""
"","feedback","","html-keyboard-response","551","676601","0.0-1.0-771.0-0.0","0","0","79389","","null","","","null","85","","","","","","","","","","","","","","","",""
"","time_out","","html-keyboard-response","552","678615","0.0-1.0-773.0-0.0","0","0","79389","","null","","","null","85","","","","","","","","","","","","","","","",""
"","ITI","","html-keyboard-response","553","679625","0.0-1.0-774.0","0","0","79389","","null","","","null","85","","","","","","","","","","","","","","","NaN",""
"","S1","","html-keyboard-response","554","679886","0.0-1.0-776.0","0","0","79389","","null","","","null","86","","","","","","","","","","","","","","","",""
"","ISI","","html-keyboard-response","555","680050","0.0-1.0-777.0","0","0","79389","","null","","","null","86","NaN","","","","","","","","","","","","","","",""
"","S2","","html-keyboard-response","556","680311","0.0-1.0-778.0","0","0","79389","","null","","","null","86","","NaN","","","","","","","","","","","","","",""
"","response","","html-keyboard-response","557","680387","0.0-1.0-779.0-0.0","0","0","79389","","70","","","75","86","","","2","86","training","adjacent","DC","4","3","Q.jpg","M.jpg","1","0","0","",""
"","feedback","","html-keyboard-response","558","681402","0.0-1.0-780.0-0.0","0","0","79389","","null","","","null","86","","","","","","","","","","","","","","","",""
"","time_out","","html-keyboard-response","559","683414","0.0-1.0-782.0-0.0","0","0","79389","","null","","","null","86","","","","","","","","","","","","","","","",""
"","ITI","","html-keyboard-response","560","684426","0.0-1.0-783.0","0","0","79389","","null","","","null","86","","","","","","","","","","","","","","","NaN",""
"","S1","","html-keyboard-response","561","684684","0.0-1.0-785.0","0","0","79389","","null","","","null","87","","","","","","","","","","","","","","","",""
"","ISI","","html-keyboard-response","562","684851","0.0-1.0-786.0","0","0","79389","","null","","","null","87","NaN","","","","","","","","","","","","","","",""
"","S2","","html-keyboard-response","563","685112","0.0-1.0-787.0","0","0","79389","","null","","","null","87","","NaN","","","","","","","","","","","","","",""
"","response","","html-keyboard-response","564","685237","0.0-1.0-788.0-0.0","0","0","79389","","120","","","68","87","","","2","87","training","adjacent","CB","3","2","M.jpg","O.jpg","0","0","1","",""
"","feedback","","html-keyboard-response","565","686249","0.0-1.0-789.0-0.0","0","0","79389","","null","","","null","87","","","","","","","","","","","","","","","",""
"","ITI","","html-keyboard-response","566","687265","0.0-1.0-792.0","0","0","79389","","null","","","null","87","","","","","","","","","","","","","","","NaN",""
"","S1","","html-keyboard-response","567","687530","0.0-1.0-794.0","0","0","79389","","null","","","null","88","","","","","","","","","","","","","","","",""
"","ISI","","html-keyboard-response","568","687686","0.0-1.0-795.0","0","0","79389","","null","","","null","88","NaN","","","","","","","","","","","","","","",""
"","S2","","html-keyboard-response","569","687945","0.0-1.0-796.0","0","0","79389","","null","","","null","88","","NaN","","","","","","","","","","","","","",""
"","response","","html-keyboard-response","570","688419","0.0-1.0-797.0-0.0","0","0","79389","","469","","","68","88","","","2","88","training","adjacent","FG","6","7","L.jpg","R.jpg","0","1","0","",""
"","feedback","","html-keyboard-response","571","689430","0.0-1.0-798.0-0.0","0","0","79389","","null","","","null","88","","","","","","","","","","","","","","","",""
"","time_out","","html-keyboard-response","572","691441","0.0-1.0-800.0-0.0","0","0","79389","","null","","","null","88","","","","","","","","","","","","","","","",""
"","ITI","","html-keyboard-response","573","692451","0.0-1.0-801.0","0","0","79389","","null","","","null","88","","","","","","","","","","","","","","","NaN",""
"","S1","","html-keyboard-response","574","692710","0.0-1.0-803.0","0","0","79389","","null","","","null","89","","","","","","","","","","","","","","","",""
"","ISI","","html-keyboard-response","575","692864","0.0-1.0-804.0","0","0","79389","","null","","","null","89","NaN","","","","","","","","","","","","","","",""
"","S2","","html-keyboard-response","576","693119","0.0-1.0-805.0","0","0","79389","","null","","","null","89","","NaN","","","","","","","","","","","","","",""
"","response","","html-keyboard-response","577","693445","0.0-1.0-806.0-0.0","0","0","79389","","321","","","75","89","","","2","89","training","adjacent","FE","6","5","L.jpg","N.jpg","1","0","0","",""
"","feedback","","html-keyboard-response","578","694452","0.0-1.0-807.0-0.0","0","0","79389","","null","","","null","89","","","","","","","","","","","","","","","",""
"","time_out","","html-keyboard-response","579","696466","0.0-1.0-809.0-0.0","0","0","79389","","null","","","null","89","","","","","","","","","","","","","","","",""
"","ITI","","html-keyboard-response","580","697482","0.0-1.0-810.0","0","0","79389","","null","","","null","89","","","","","","","","","","","","","","","NaN",""
