"success","ttype","start_time","trial_type","trial_index","time_elapsed","internal_node_id","warning","missed_checkup","PID","view_history","rt","responses","repeat_instructions","key_press","index","keypress_isi","keypress_S2","block","trial_num","phase","group_type","pair_type","S1_stim","S2_stim","S1_img","S2_img","S1_chosen","S1_higher","accuracy","keypress_iti","total_bonus_tally"
"true","full_screen","d08052022hr1229","fullscreen","0","23831","0.0-0.0","0","0","48709","","","","","","","","","","","","","","","","","","","","","",""
"","instructions","","instructions","1","84375","0.0-1.0-0.0-0.0","0","0","48709","[{""page_index"":0,""viewing_time"":6707},{""page_index"":1,""viewing_time"":39056},{""page_index"":2,""viewing_time"":12096},{""page_index"":3,""viewing_time"":2680}]","60540","","","","","","","","","","","","","","","","","","","",""
"","comprehension_check","","survey-multi-choice","2","132070","0.0-1.0-0.0-1.0","0","0","48709","","47687","{""Q0"":""True"",""Q1"":""D"",""Q2"":""Once the second image appears and while the screen 'MAKE A CHOICE' is shown"",""Q3"":""Green mark"",""Q4"":""either D or K""}","1","","","","","","","","","","","","","","","","","",""
"","missed_instruction_checkup","","html-keyboard-response","3","134184","0.0-1.0-0.0-2.0-0.0","0","1","48709","","2109","","","32","","","","","","","","","","","","","","","","",""
"","instructions","","instructions","4","245478","0.0-1.0-0.1-0.1","0","0","48709","[{""page_index"":0,""viewing_time"":2011},{""page_index"":1,""viewing_time"":95680},{""page_index"":2,""viewing_time"":12888},{""page_index"":3,""viewing_time"":712}]","111291","","","","","","","","","","","","","","","","","","","",""
"","comprehension_check","","survey-multi-choice","5","264759","0.0-1.0-0.1-1.1","0","0","48709","","19271","{""Q0"":""True"",""Q1"":""K"",""Q2"":""Once the second image appears and while the screen 'MAKE A CHOICE' is shown"",""Q3"":""Green mark"",""Q4"":""either D or K""}","0","","","","","","","","","","","","","","","","","",""
"","start_exp","","html-keyboard-response","6","266583","0.0-1.0-1.0","0","0","48709","","1821","","","32","","","","","","","","","","","","","","","","",""
"","S1","","html-keyboard-response","7","266835","0.0-1.0-2.0","0","0","48709","","null","","","null","0","","","","","","","","","","","","","","","",""
"","ISI","","html-keyboard-response","8","268837","0.0-1.0-3.0","0","0","48709","","737","","","68","0","d","","","","","","","","","","","","","","",""
"","S2","","html-keyboard-response","9","269090","0.0-1.0-4.0","0","0","48709","","null","","","null","0","","NaN","","","","","","","","","","","","","",""
"","response","","html-keyboard-response","10","270842","0.0-1.0-5.0-0.0","0","0","48709","","null","","","null","0","","","1","0","training","adjacent","CD","3","4","L.jpg","Q.jpg","NaN","1","0","",""
"","too_slow_prompt","","html-keyboard-response","11","271845","0.0-1.0-7.0-0.0","1","0","48709","","null","","","null","","","","","","","","","","","","","","","","",""
"","time_out","","html-keyboard-response","12","273847","0.0-1.0-8.0-0.0","0","0","48709","","null","","","null","0","","","","","","","","","","","","","","","",""
"","ITI","","html-keyboard-response","13","274849","0.0-1.0-9.0","0","0","48709","","null","","","null","0","","","","","","","","","","","","","","","NaN",""
"","S1","","html-keyboard-response","14","275101","0.0-1.0-11.0","0","0","48709","","null","","","null","1","","","","","","","","","","","","","","","",""
"","ISI","","html-keyboard-response","15","277103","0.0-1.0-12.0","0","0","48709","","767","","","68","1","d","","","","","","","","","","","","","","",""
"","S2","","html-keyboard-response","16","277355","0.0-1.0-13.0","0","0","48709","","null","","","null","1","","NaN","","","","","","","","","","","","","",""
"","response","","html-keyboard-response","17","277439","0.0-1.0-14.0-0.0","0","0","48709","","81","","","68","1","","","1","1","training","adjacent","BC","2","3","P.jpg","L.jpg","0","1","0","",""
"","feedback","","html-keyboard-response","18","278441","0.0-1.0-15.0-0.0","0","0","48709","","null","","","null","1","","","","","","","","","","","","","","","",""
"","time_out","","html-keyboard-response","19","280443","0.0-1.0-17.0-0.0","0","0","48709","","null","","","null","1","","","","","","","","","","","","","","","",""
"","ITI","","html-keyboard-response","20","281445","0.0-1.0-18.0","0","0","48709","","null","","","null","1","","","","","","","","","","","","","","","NaN",""
"","S1","","html-keyboard-response","21","281697","0.0-1.0-20.0","0","0","48709","","null","","","null","2","","","","","","","","","","","","","","","",""
"","ISI","","html-keyboard-response","22","283699","0.0-1.0-21.0","0","0","48709","","627","","","75","2","k","","","","","","","","","","","","","","",""
"","S2","","html-keyboard-response","23","283951","0.0-1.0-22.0","0","0","48709","","null","","","null","2","","NaN","","","","","","","","","","","","","",""
"","response","","html-keyboard-response","24","283958","0.0-1.0-23.0-0.0","0","0","48709","","5","","","75","2","","","1","2","training","adjacent","ED","5","4","O.jpg","Q.jpg","1","0","0","",""
"","feedback","","html-keyboard-response","25","284960","0.0-1.0-24.0-0.0","0","0","48709","","null","","","null","2","","","","","","","","","","","","","","","",""
"","time_out","","html-keyboard-response","26","286962","0.0-1.0-26.0-0.0","0","0","48709","","null","","","null","2","","","","","","","","","","","","","","","",""
"","ITI","","html-keyboard-response","27","287964","0.0-1.0-27.0","0","0","48709","","null","","","null","2","","","","","","","","","","","","","","","NaN",""
"","S1","","html-keyboard-response","28","288216","0.0-1.0-29.0","0","0","48709","","null","","","null","3","","","","","","","","","","","","","","","",""
"","ISI","","html-keyboard-response","29","290218","0.0-1.0-30.0","0","0","48709","","null","","","null","3","NaN","","","","","","","","","","","","","","",""
"","S2","","html-keyboard-response","30","290470","0.0-1.0-31.0","0","0","48709","","null","","","null","3","","NaN","","","","","","","","","","","","","",""
"","response","","html-keyboard-response","31","290735","0.0-1.0-32.0-0.0","0","0","48709","","263","","","68","3","","","1","3","training","adjacent","AB","1","2","M.jpg","P.jpg","0","1","0","",""
"","feedback","","html-keyboard-response","32","291737","0.0-1.0-33.0-0.0","0","0","48709","","null","","","null","3","","","","","","","","","","","","","","","",""
"","time_out","","html-keyboard-response","33","293739","0.0-1.0-35.0-0.0","0","0","48709","","null","","","null","3","","","","","","","","","","","","","","","",""
"","ITI","","html-keyboard-response","34","294741","0.0-1.0-36.0","0","0","48709","","null","","","null","3","","","","","","","","","","","","","","","NaN",""
"","S1","","html-keyboard-response","35","294993","0.0-1.0-38.0","0","0","48709","","null","","","null","4","","","","","","","","","","","","","","","",""
"","ISI","","html-keyboard-response","36","296995","0.0-1.0-39.0","0","0","48709","","null","","","null","4","NaN","","","","","","","","","","","","","","",""
"","S2","","html-keyboard-response","37","297247","0.0-1.0-40.0","0","0","48709","","null","","","null","4","","NaN","","","","","","","","","","","","","",""
"","response","","html-keyboard-response","38","297543","0.0-1.0-41.0-0.0","0","0","48709","","293","","","75","4","","","1","4","training","adjacent","FE","6","5","N.jpg","O.jpg","1","0","0","",""
"","feedback","","html-keyboard-response","39","298544","0.0-1.0-42.0-0.0","0","0","48709","","null","","","null","4","","","","","","","","","","","","","","","",""
"","time_out","","html-keyboard-response","40","300546","0.0-1.0-44.0-0.0","0","0","48709","","null","","","null","4","","","","","","","","","","","","","","","",""
"","ITI","","html-keyboard-response","41","301547","0.0-1.0-45.0","0","0","48709","","null","","","null","4","","","","","","","","","","","","","","","NaN",""
"","S1","","html-keyboard-response","42","301799","0.0-1.0-47.0","0","0","48709","","null","","","null","5","","","","","","","","","","","","","","","",""
"","ISI","","html-keyboard-response","43","303800","0.0-1.0-48.0","0","0","48709","","null","","","null","5","NaN","","","","","","","","","","","","","","",""
"","S2","","html-keyboard-response","44","304052","0.0-1.0-49.0","0","0","48709","","null","","","null","5","","NaN","","","","","","","","","","","","","",""
"","response","","html-keyboard-response","45","304343","0.0-1.0-50.0-0.0","0","0","48709","","288","","","68","5","","","1","5","training","adjacent","ED","5","4","O.jpg","Q.jpg","0","0","1","",""
"","feedback","","html-keyboard-response","46","305345","0.0-1.0-51.0-0.0","0","0","48709","","null","","","null","5","","","","","","","","","","","","","","","",""
"","ITI","","html-keyboard-response","47","306347","0.0-1.0-54.0","0","0","48709","","null","","","null","5","","","","","","","","","","","","","","","NaN",""
"","S1","","html-keyboard-response","48","306599","0.0-1.0-56.0","0","0","48709","","null","","","null","6","","","","","","","","","","","","","","","",""
"","ISI","","html-keyboard-response","49","308600","0.0-1.0-57.0","0","0","48709","","null","","","null","6","NaN","","","","","","","","","","","","","","",""
"","S2","","html-keyboard-response","50","308852","0.0-1.0-58.0","0","0","48709","","null","","","null","6","","NaN","","","","","","","","","","","","","",""
"","response","","html-keyboard-response","51","309287","0.0-1.0-59.0-0.0","0","0","48709","","432","","","75","6","","","1","6","training","adjacent","BA","2","1","P.jpg","M.jpg","1","0","0","",""
"","feedback","","html-keyboard-response","52","310289","0.0-1.0-60.0-0.0","0","0","48709","","null","","","null","6","","","","","","","","","","","","","","","",""
"","time_out","","html-keyboard-response","53","312291","0.0-1.0-62.0-0.0","0","0","48709","","null","","","null","6","","","","","","","","","","","","","","","",""
"","ITI","","html-keyboard-response","54","313292","0.0-1.0-63.0","0","0","48709","","null","","","null","6","","","","","","","","","","","","","","","NaN",""
"","S1","","html-keyboard-response","55","313544","0.0-1.0-65.0","0","0","48709","","null","","","null","7","","","","","","","","","","","","","","","",""
"","ISI","","html-keyboard-response","56","315545","0.0-1.0-66.0","0","0","48709","","null","","","null","7","NaN","","","","","","","","","","","","","","",""
"","S2","","html-keyboard-response","57","315797","0.0-1.0-67.0","0","0","48709","","null","","","null","7","","NaN","","","","","","","","","","","","","",""
"","response","","html-keyboard-response","58","316071","0.0-1.0-68.0-0.0","0","0","48709","","271","","","68","7","","","1","7","training","adjacent","ED","5","4","O.jpg","Q.jpg","0","0","1","",""
"","feedback","","html-keyboard-response","59","317073","0.0-1.0-69.0-0.0","0","0","48709","","null","","","null","7","","","","","","","","","","","","","","","",""
"","ITI","","html-keyboard-response","60","318075","0.0-1.0-72.0","0","0","48709","","null","","","null","7","","","","","","","","","","","","","","","NaN",""
"","S1","","html-keyboard-response","61","318327","0.0-1.0-74.0","0","0","48709","","null","","","null","8","","","","","","","","","","","","","","","",""
"","ISI","","html-keyboard-response","62","320328","0.0-1.0-75.0","0","0","48709","","null","","","null","8","NaN","","","","","","","","","","","","","","",""
"","S2","","html-keyboard-response","63","320580","0.0-1.0-76.0","0","0","48709","","null","","","null","8","","NaN","","","","","","","","","","","","","",""
"","response","","html-keyboard-response","64","320990","0.0-1.0-77.0-0.0","0","0","48709","","408","","","68","8","","","1","8","training","adjacent","FE","6","5","N.jpg","O.jpg","0","0","1","",""
"","feedback","","html-keyboard-response","65","321992","0.0-1.0-78.0-0.0","0","0","48709","","null","","","null","8","","","","","","","","","","","","","","","",""
"","ITI","","html-keyboard-response","66","322994","0.0-1.0-81.0","0","0","48709","","null","","","null","8","","","","","","","","","","","","","","","NaN",""
"","S1","","html-keyboard-response","67","323246","0.0-1.0-83.0","0","0","48709","","null","","","null","9","","","","","","","","","","","","","","","",""
"","ISI","","html-keyboard-response","68","325248","0.0-1.0-84.0","0","0","48709","","null","","","null","9","NaN","","","","","","","","","","","","","","",""
"","S2","","html-keyboard-response","69","325500","0.0-1.0-85.0","0","0","48709","","null","","","null","9","","NaN","","","","","","","","","","","","","",""
"","response","","html-keyboard-response","70","325975","0.0-1.0-86.0-0.0","0","0","48709","","472","","","68","9","","","1","9","training","adjacent","AB","1","2","M.jpg","P.jpg","0","1","0","",""
"","feedback","","html-keyboard-response","71","326977","0.0-1.0-87.0-0.0","0","0","48709","","null","","","null","9","","","","","","","","","","","","","","","",""
"","time_out","","html-keyboard-response","72","328979","0.0-1.0-89.0-0.0","0","0","48709","","null","","","null","9","","","","","","","","","","","","","","","",""
"","ITI","","html-keyboard-response","73","329981","0.0-1.0-90.0","0","0","48709","","null","","","null","9","","","","","","","","","","","","","","","NaN",""
"","S1","","html-keyboard-response","74","330233","0.0-1.0-92.0","0","0","48709","","null","","","null","10","","","","","","","","","","","","","","","",""
"","ISI","","html-keyboard-response","75","332234","0.0-1.0-93.0","0","0","48709","","null","","","null","10","NaN","","","","","","","","","","","","","","",""
"","S2","","html-keyboard-response","76","332486","0.0-1.0-94.0","0","0","48709","","null","","","null","10","","NaN","","","","","","","","","","","","","",""
"","response","","html-keyboard-response","77","332927","0.0-1.0-95.0-0.0","0","0","48709","","438","","","68","10","","","1","10","training","adjacent","DE","4","5","Q.jpg","O.jpg","0","1","0","",""
"","feedback","","html-keyboard-response","78","333929","0.0-1.0-96.0-0.0","0","0","48709","","null","","","null","10","","","","","","","","","","","","","","","",""
"","time_out","","html-keyboard-response","79","335931","0.0-1.0-98.0-0.0","0","0","48709","","null","","","null","10","","","","","","","","","","","","","","","",""
"","ITI","","html-keyboard-response","80","336932","0.0-1.0-99.0","0","0","48709","","null","","","null","10","","","","","","","","","","","","","","","NaN",""
"","S1","","html-keyboard-response","81","337184","0.0-1.0-101.0","0","0","48709","","null","","","null","11","","","","","","","","","","","","","","","",""
"","ISI","","html-keyboard-response","82","339185","0.0-1.0-102.0","0","0","48709","","null","","","null","11","NaN","","","","","","","","","","","","","","",""
"","S2","","html-keyboard-response","83","339437","0.0-1.0-103.0","0","0","48709","","null","","","null","11","","NaN","","","","","","","","","","","","","",""
"","response","","html-keyboard-response","84","339622","0.0-1.0-104.0-0.0","0","0","48709","","183","","","75","11","","","1","11","training","adjacent","BA","2","1","P.jpg","M.jpg","1","0","0","",""
"","feedback","","html-keyboard-response","85","340624","0.0-1.0-105.0-0.0","0","0","48709","","null","","","null","11","","","","","","","","","","","","","","","",""
"","time_out","","html-keyboard-response","86","342626","0.0-1.0-107.0-0.0","0","0","48709","","null","","","null","11","","","","","","","","","","","","","","","",""
"","ITI","","html-keyboard-response","87","343628","0.0-1.0-108.0","0","0","48709","","null","","","null","11","","","","","","","","","","","","","","","NaN",""
"","S1","","html-keyboard-response","88","343880","0.0-1.0-110.0","0","0","48709","","null","","","null","12","","","","","","","","","","","","","","","",""
"","ISI","","html-keyboard-response","89","345881","0.0-1.0-111.0","0","0","48709","","null","","","null","12","NaN","","","","","","","","","","","","","","",""
"","S2","","html-keyboard-response","90","346133","0.0-1.0-112.0","0","0","48709","","null","","","null","12","","NaN","","","","","","","","","","","","","",""
"","response","","html-keyboard-response","91","346447","0.0-1.0-113.0-0.0","0","0","48709","","312","","","68","12","","","1","12","training","adjacent","FG","6","7","N.jpg","R.jpg","0","1","0","",""
"","feedback","","html-keyboard-response","92","347449","0.0-1.0-114.0-0.0","0","0","48709","","null","","","null","12","","","","","","","","","","","","","","","",""
"","time_out","","html-keyboard-response","93","349451","0.0-1.0-116.0-0.0","0","0","48709","","null","","","null","12","","","","","","","","","","","","","","","",""
"","ITI","","html-keyboard-response","94","350453","0.0-1.0-117.0","0","0","48709","","null","","","null","12","","","","","","","","","","","","","","","NaN",""
"","S1","","html-keyboard-response","95","350705","0.0-1.0-119.0","0","0","48709","","null","","","null","13","","","","","","","","","","","","","","","",""
"","ISI","","html-keyboard-response","96","352706","0.0-1.0-120.0","0","0","48709","","null","","","null","13","NaN","","","","","","","","","","","","","","",""
"","S2","","html-keyboard-response","97","352958","0.0-1.0-121.0","0","0","48709","","null","","","null","13","","NaN","","","","","","","","","","","","","",""
"","response","","html-keyboard-response","98","352998","0.0-1.0-122.0-0.0","0","0","48709","","38","","","75","13","","","1","13","training","adjacent","FG","6","7","N.jpg","R.jpg","1","1","1","",""
"","feedback","","html-keyboard-response","99","354000","0.0-1.0-123.0-0.0","0","0","48709","","null","","","null","13","","","","","","","","","","","","","","","",""
"","ITI","","html-keyboard-response","100","355002","0.0-1.0-126.0","0","0","48709","","null","","","null","13","","","","","","","","","","","","","","","NaN",""
"","S1","","html-keyboard-response","101","355254","0.0-1.0-128.0","0","0","48709","","null","","","null","14","","","","","","","","","","","","","","","",""
"","ISI","","html-keyboard-response","102","357255","0.0-1.0-129.0","0","0","48709","","null","","","null","14","NaN","","","","","","","","","","","","","","",""
"","S2","","html-keyboard-response","103","357507","0.0-1.0-130.0","0","0","48709","","null","","","null","14","","NaN","","","","","","","","","","","","","",""
"","response","","html-keyboard-response","104","357574","0.0-1.0-131.0-0.0","0","0","48709","","65","","","75","14","","","1","14","training","adjacent","EF","5","6","O.jpg","N.jpg","1","1","1","",""
"","feedback","","html-keyboard-response","105","358576","0.0-1.0-132.0-0.0","0","0","48709","","null","","","null","14","","","","","","","","","","","","","","","",""
"","ITI","","html-keyboard-response","106","359578","0.0-1.0-135.0","0","0","48709","","null","","","null","14","","","","","","","","","","","","","","","NaN",""
"","S1","","html-keyboard-response","107","359830","0.0-1.0-137.0","0","0","48709","","null","","","null","15","","","","","","","","","","","","","","","",""
"","ISI","","html-keyboard-response","108","361832","0.0-1.0-138.0","0","0","48709","","null","","","null","15","NaN","","","","","","","","","","","","","","",""
"","S2","","html-keyboard-response","109","362084","0.0-1.0-139.0","0","0","48709","","null","","","null","15","","NaN","","","","","","","","","","","","","",""
"","response","","html-keyboard-response","110","362103","0.0-1.0-140.0-0.0","0","0","48709","","16","","","68","15","","","1","15","training","adjacent","BC","2","3","P.jpg","L.jpg","0","1","0","",""
"","feedback","","html-keyboard-response","111","363105","0.0-1.0-141.0-0.0","0","0","48709","","null","","","null","15","","","","","","","","","","","","","","","",""
"","time_out","","html-keyboard-response","112","365107","0.0-1.0-143.0-0.0","0","0","48709","","null","","","null","15","","","","","","","","","","","","","","","",""
"","ITI","","html-keyboard-response","113","366110","0.0-1.0-144.0","0","0","48709","","null","","","null","15","","","","","","","","","","","","","","","NaN",""
"","S1","","html-keyboard-response","114","366362","0.0-1.0-146.0","0","0","48709","","null","","","null","16","","","","","","","","","","","","","","","",""
"","ISI","","html-keyboard-response","115","368363","0.0-1.0-147.0","0","0","48709","","99","","","75","16","k","","","","","","","","","","","","","","",""
"","S2","","html-keyboard-response","116","368615","0.0-1.0-148.0","0","0","48709","","249","","","75","16","","k","1","16","training","adjacent","BA","2","1","P.jpg","M.jpg","1","0","0","",""
"","feedback","","html-keyboard-response","117","369617","0.0-1.0-150.0-0.0","0","0","48709","","null","","","null","16","","","","","","","","","","","","","","","",""
"","time_out","","html-keyboard-response","118","371619","0.0-1.0-152.0-0.0","0","0","48709","","null","","","null","16","","","","","","","","","","","","","","","",""
"","ITI","","html-keyboard-response","119","372621","0.0-1.0-153.0","0","0","48709","","null","","","null","16","","","","","","","","","","","","","","","NaN",""
"","S1","","html-keyboard-response","120","372873","0.0-1.0-155.0","0","0","48709","","null","","","null","17","","","","","","","","","","","","","","","",""
"","ISI","","html-keyboard-response","121","374875","0.0-1.0-156.0","0","0","48709","","null","","","null","17","NaN","","","","","","","","","","","","","","",""
"","S2","","html-keyboard-response","122","375127","0.0-1.0-157.0","0","0","48709","","null","","","null","17","","NaN","","","","","","","","","","","","","",""
"","response","","html-keyboard-response","123","375422","0.0-1.0-158.0-0.0","0","0","48709","","293","","","68","17","","","1","17","training","adjacent","GF","7","6","R.jpg","N.jpg","0","0","1","",""
"","feedback","","html-keyboard-response","124","376424","0.0-1.0-159.0-0.0","0","0","48709","","null","","","null","17","","","","","","","","","","","","","","","",""
"","ITI","","html-keyboard-response","125","377427","0.0-1.0-162.0","0","0","48709","","null","","","null","17","","","","","","","","","","","","","","","NaN",""
"","S1","","html-keyboard-response","126","377679","0.0-1.0-164.0","0","0","48709","","null","","","null","18","","","","","","","","","","","","","","","",""
"","ISI","","html-keyboard-response","127","379680","0.0-1.0-165.0","0","0","48709","","null","","","null","18","NaN","","","","","","","","","","","","","","",""
"","S2","","html-keyboard-response","128","379932","0.0-1.0-166.0","0","0","48709","","null","","","null","18","","NaN","","","","","","","","","","","","","",""
"","response","","html-keyboard-response","129","380439","0.0-1.0-167.0-0.0","0","0","48709","","505","","","75","18","","","1","18","training","adjacent","BC","2","3","P.jpg","L.jpg","1","1","1","",""
"","feedback","","html-keyboard-response","130","381441","0.0-1.0-168.0-0.0","0","0","48709","","null","","","null","18","","","","","","","","","","","","","","","",""
"","ITI","","html-keyboard-response","131","382443","0.0-1.0-171.0","0","0","48709","","null","","","null","18","","","","","","","","","","","","","","","NaN",""
"","S1","","html-keyboard-response","132","382695","0.0-1.0-173.0","0","0","48709","","null","","","null","19","","","","","","","","","","","","","","","",""
"","ISI","","html-keyboard-response","133","384696","0.0-1.0-174.0","0","0","48709","","null","","","null","19","NaN","","","","","","","","","","","","","","",""
"","S2","","html-keyboard-response","134","384948","0.0-1.0-175.0","0","0","48709","","null","","","null","19","","NaN","","","","","","","","","","","","","",""
"","response","","html-keyboard-response","135","385215","0.0-1.0-176.0-0.0","0","0","48709","","264","","","75","19","","","1","19","training","adjacent","GF","7","6","R.jpg","N.jpg","1","0","0","",""
"","feedback","","html-keyboard-response","136","386216","0.0-1.0-177.0-0.0","0","0","48709","","null","","","null","19","","","","","","","","","","","","","","","",""
"","time_out","","html-keyboard-response","137","388218","0.0-1.0-179.0-0.0","0","0","48709","","null","","","null","19","","","","","","","","","","","","","","","",""
"","ITI","","html-keyboard-response","138","389220","0.0-1.0-180.0","0","0","48709","","null","","","null","19","","","","","","","","","","","","","","","NaN",""
"","S1","","html-keyboard-response","139","389472","0.0-1.0-182.0","0","0","48709","","null","","","null","20","","","","","","","","","","","","","","","",""
"","ISI","","html-keyboard-response","140","391473","0.0-1.0-183.0","0","0","48709","","null","","","null","20","NaN","","","","","","","","","","","","","","",""
"","S2","","html-keyboard-response","141","391725","0.0-1.0-184.0","0","0","48709","","null","","","null","20","","NaN","","","","","","","","","","","","","",""
"","response","","html-keyboard-response","142","391734","0.0-1.0-185.0-0.0","0","0","48709","","7","","","68","20","","","1","20","training","adjacent","FG","6","7","N.jpg","R.jpg","0","1","0","",""
"","feedback","","html-keyboard-response","143","392736","0.0-1.0-186.0-0.0","0","0","48709","","null","","","null","20","","","","","","","","","","","","","","","",""
"","time_out","","html-keyboard-response","144","394738","0.0-1.0-188.0-0.0","0","0","48709","","null","","","null","20","","","","","","","","","","","","","","","",""
"","ITI","","html-keyboard-response","145","395740","0.0-1.0-189.0","0","0","48709","","null","","","null","20","","","","","","","","","","","","","","","NaN",""
"","S1","","html-keyboard-response","146","395992","0.0-1.0-191.0","0","0","48709","","null","","","null","21","","","","","","","","","","","","","","","",""
"","ISI","","html-keyboard-response","147","397993","0.0-1.0-192.0","0","0","48709","","null","","","null","21","NaN","","","","","","","","","","","","","","",""
"","S2","","html-keyboard-response","148","398245","0.0-1.0-193.0","0","0","48709","","null","","","null","21","","NaN","","","","","","","","","","","","","",""
"","response","","html-keyboard-response","149","398271","0.0-1.0-194.0-0.0","0","0","48709","","23","","","75","21","","","1","21","training","adjacent","EF","5","6","O.jpg","N.jpg","1","1","1","",""
"","feedback","","html-keyboard-response","150","399273","0.0-1.0-195.0-0.0","0","0","48709","","null","","","null","21","","","","","","","","","","","","","","","",""
"","ITI","","html-keyboard-response","151","400275","0.0-1.0-198.0","0","0","48709","","null","","","null","21","","","","","","","","","","","","","","","NaN",""
"","S1","","html-keyboard-response","152","400527","0.0-1.0-200.0","0","0","48709","","null","","","null","22","","","","","","","","","","","","","","","",""
"","ISI","","html-keyboard-response","153","402528","0.0-1.0-201.0","0","0","48709","","null","","","null","22","NaN","","","","","","","","","","","","","","",""
"","S2","","html-keyboard-response","154","402780","0.0-1.0-202.0","0","0","48709","","null","","","null","22","","NaN","","","","","","","","","","","","","",""
"","response","","html-keyboard-response","155","402855","0.0-1.0-203.0-0.0","0","0","48709","","72","","","75","22","","","1","22","training","adjacent","CD","3","4","L.jpg","Q.jpg","1","1","1","",""
"","feedback","","html-keyboard-response","156","403857","0.0-1.0-204.0-0.0","0","0","48709","","null","","","null","22","","","","","","","","","","","","","","","",""
"","ITI","","html-keyboard-response","157","404859","0.0-1.0-207.0","0","0","48709","","null","","","null","22","","","","","","","","","","","","","","","NaN",""
"","S1","","html-keyboard-response","158","405111","0.0-1.0-209.0","0","0","48709","","null","","","null","23","","","","","","","","","","","","","","","",""
"","ISI","","html-keyboard-response","159","407112","0.0-1.0-210.0","0","0","48709","","null","","","null","23","NaN","","","","","","","","","","","","","","",""
"","S2","","html-keyboard-response","160","407364","0.0-1.0-211.0","0","0","48709","","null","","","null","23","","NaN","","","","","","","","","","","","","",""
"","response","","html-keyboard-response","161","407406","0.0-1.0-212.0-0.0","0","0","48709","","40","","","75","23","","","1","23","training","adjacent","FE","6","5","N.jpg","O.jpg","1","0","0","",""
"","feedback","","html-keyboard-response","162","408408","0.0-1.0-213.0-0.0","0","0","48709","","null","","","null","23","","","","","","","","","","","","","","","",""
"","time_out","","html-keyboard-response","163","410411","0.0-1.0-215.0-0.0","0","0","48709","","null","","","null","23","","","","","","","","","","","","","","","",""
"","ITI","","html-keyboard-response","164","411413","0.0-1.0-216.0","0","0","48709","","null","","","null","23","","","","","","","","","","","","","","","NaN",""
"","S1","","html-keyboard-response","165","411665","0.0-1.0-218.0","0","0","48709","","null","","","null","24","","","","","","","","","","","","","","","",""
"","ISI","","html-keyboard-response","166","413666","0.0-1.0-219.0","0","0","48709","","null","","","null","24","NaN","","","","","","","","","","","","","","",""
"","S2","","html-keyboard-response","167","413918","0.0-1.0-220.0","0","0","48709","","null","","","null","24","","NaN","","","","","","","","","","","","","",""
"","response","","html-keyboard-response","168","414319","0.0-1.0-221.0-0.0","0","0","48709","","399","","","68","24","","","1","24","training","adjacent","DE","4","5","Q.jpg","O.jpg","0","1","0","",""
"","feedback","","html-keyboard-response","169","415321","0.0-1.0-222.0-0.0","0","0","48709","","null","","","null","24","","","","","","","","","","","","","","","",""
"","time_out","","html-keyboard-response","170","417323","0.0-1.0-224.0-0.0","0","0","48709","","null","","","null","24","","","","","","","","","","","","","","","",""
"","ITI","","html-keyboard-response","171","418325","0.0-1.0-225.0","0","0","48709","","null","","","null","24","","","","","","","","","","","","","","","NaN",""
"","S1","","html-keyboard-response","172","418577","0.0-1.0-227.0","0","0","48709","","null","","","null","25","","","","","","","","","","","","","","","",""
"","ISI","","html-keyboard-response","173","420578","0.0-1.0-228.0","0","0","48709","","null","","","null","25","NaN","","","","","","","","","","","","","","",""
"","S2","","html-keyboard-response","174","420830","0.0-1.0-229.0","0","0","48709","","null","","","null","25","","NaN","","","","","","","","","","","","","",""
"","response","","html-keyboard-response","175","420935","0.0-1.0-230.0-0.0","0","0","48709","","102","","","75","25","","","1","25","training","adjacent","CB","3","2","L.jpg","P.jpg","1","0","0","",""
"","feedback","","html-keyboard-response","176","421937","0.0-1.0-231.0-0.0","0","0","48709","","null","","","null","25","","","","","","","","","","","","","","","",""
"","time_out","","html-keyboard-response","177","423939","0.0-1.0-233.0-0.0","0","0","48709","","null","","","null","25","","","","","","","","","","","","","","","",""
"","ITI","","html-keyboard-response","178","424941","0.0-1.0-234.0","0","0","48709","","null","","","null","25","","","","","","","","","","","","","","","NaN",""
"","S1","","html-keyboard-response","179","425193","0.0-1.0-236.0","0","0","48709","","null","","","null","26","","","","","","","","","","","","","","","",""
"","ISI","","html-keyboard-response","180","427194","0.0-1.0-237.0","0","0","48709","","null","","","null","26","NaN","","","","","","","","","","","","","","",""
"","S2","","html-keyboard-response","181","427446","0.0-1.0-238.0","0","0","48709","","null","","","null","26","","NaN","","","","","","","","","","","","","",""
"","response","","html-keyboard-response","182","427510","0.0-1.0-239.0-0.0","0","0","48709","","62","","","68","26","","","1","26","training","adjacent","EF","5","6","O.jpg","N.jpg","0","1","0","",""
"","feedback","","html-keyboard-response","183","428512","0.0-1.0-240.0-0.0","0","0","48709","","null","","","null","26","","","","","","","","","","","","","","","",""
"","time_out","","html-keyboard-response","184","430514","0.0-1.0-242.0-0.0","0","0","48709","","null","","","null","26","","","","","","","","","","","","","","","",""
"","ITI","","html-keyboard-response","185","431516","0.0-1.0-243.0","0","0","48709","","null","","","null","26","","","","","","","","","","","","","","","NaN",""
"","S1","","html-keyboard-response","186","431768","0.0-1.0-245.0","0","0","48709","","null","","","null","27","","","","","","","","","","","","","","","",""
"","ISI","","html-keyboard-response","187","433770","0.0-1.0-246.0","0","0","48709","","null","","","null","27","NaN","","","","","","","","","","","","","","",""
"","S2","","html-keyboard-response","188","434022","0.0-1.0-247.0","0","0","48709","","null","","","null","27","","NaN","","","","","","","","","","","","","",""
"","response","","html-keyboard-response","189","434079","0.0-1.0-248.0-0.0","0","0","48709","","54","","","75","27","","","1","27","training","adjacent","CD","3","4","L.jpg","Q.jpg","1","1","1","",""
"","feedback","","html-keyboard-response","190","435081","0.0-1.0-249.0-0.0","0","0","48709","","null","","","null","27","","","","","","","","","","","","","","","",""
"","ITI","","html-keyboard-response","191","436083","0.0-1.0-252.0","0","0","48709","","null","","","null","27","","","","","","","","","","","","","","","NaN",""
"","S1","","html-keyboard-response","192","436335","0.0-1.0-254.0","0","0","48709","","null","","","null","28","","","","","","","","","","","","","","","",""
"","ISI","","html-keyboard-response","193","438337","0.0-1.0-255.0","0","0","48709","","null","","","null","28","NaN","","","","","","","","","","","","","","",""
"","S2","","html-keyboard-response","194","438589","0.0-1.0-256.0","0","0","48709","","null","","","null","28","","NaN","","","","","","","","","","","","","",""
"","response","","html-keyboard-response","195","439487","0.0-1.0-257.0-0.0","0","0","48709","","895","","","75","28","","","1","28","training","adjacent","FG","6","7","N.jpg","R.jpg","1","1","1","",""
"","feedback","","html-keyboard-response","196","440489","0.0-1.0-258.0-0.0","0","0","48709","","null","","","null","28","","","","","","","","","","","","","","","",""
"","ITI","","html-keyboard-response","197","441491","0.0-1.0-261.0","0","0","48709","","null","","","null","28","","","","","","","","","","","","","","","NaN",""
"","S1","","html-keyboard-response","198","441743","0.0-1.0-263.0","0","0","48709","","null","","","null","29","","","","","","","","","","","","","","","",""
"","ISI","","html-keyboard-response","199","443744","0.0-1.0-264.0","0","0","48709","","null","","","null","29","NaN","","","","","","","","","","","","","","",""
"","S2","","html-keyboard-response","200","443996","0.0-1.0-265.0","0","0","48709","","null","","","null","29","","NaN","","","","","","","","","","","","","",""
"","response","","html-keyboard-response","201","444534","0.0-1.0-266.0-0.0","0","0","48709","","536","","","75","29","","","1","29","training","adjacent","GF","7","6","R.jpg","N.jpg","1","0","0","",""
"","feedback","","html-keyboard-response","202","445536","0.0-1.0-267.0-0.0","0","0","48709","","null","","","null","29","","","","","","","","","","","","","","","",""
"","time_out","","html-keyboard-response","203","447539","0.0-1.0-269.0-0.0","0","0","48709","","null","","","null","29","","","","","","","","","","","","","","","",""
"","ITI","","html-keyboard-response","204","448541","0.0-1.0-270.0","0","0","48709","","null","","","null","29","","","","","","","","","","","","","","","NaN",""
"","S1","","html-keyboard-response","205","448793","0.0-1.0-272.0","0","0","48709","","null","","","null","30","","","","","","","","","","","","","","","",""
"","ISI","","html-keyboard-response","206","450795","0.0-1.0-273.0","0","0","48709","","null","","","null","30","NaN","","","","","","","","","","","","","","",""
"","S2","","html-keyboard-response","207","451047","0.0-1.0-274.0","0","0","48709","","null","","","null","30","","NaN","","","","","","","","","","","","","",""
"","response","","html-keyboard-response","208","451567","0.0-1.0-275.0-0.0","0","0","48709","","518","","","68","30","","","1","30","training","adjacent","AB","1","2","M.jpg","P.jpg","0","1","0","",""
"","feedback","","html-keyboard-response","209","452569","0.0-1.0-276.0-0.0","0","0","48709","","null","","","null","30","","","","","","","","","","","","","","","",""
"","time_out","","html-keyboard-response","210","454571","0.0-1.0-278.0-0.0","0","0","48709","","null","","","null","30","","","","","","","","","","","","","","","",""
"","ITI","","html-keyboard-response","211","455573","0.0-1.0-279.0","0","0","48709","","null","","","null","30","","","","","","","","","","","","","","","NaN",""
"","S1","","html-keyboard-response","212","455825","0.0-1.0-281.0","0","0","48709","","null","","","null","31","","","","","","","","","","","","","","","",""
"","ISI","","html-keyboard-response","213","457827","0.0-1.0-282.0","0","0","48709","","null","","","null","31","NaN","","","","","","","","","","","","","","",""
"","S2","","html-keyboard-response","214","458079","0.0-1.0-283.0","0","0","48709","","null","","","null","31","","NaN","","","","","","","","","","","","","",""
"","response","","html-keyboard-response","215","458174","0.0-1.0-284.0-0.0","0","0","48709","","93","","","75","31","","","1","31","training","adjacent","CB","3","2","L.jpg","P.jpg","1","0","0","",""
"","feedback","","html-keyboard-response","216","459176","0.0-1.0-285.0-0.0","0","0","48709","","null","","","null","31","","","","","","","","","","","","","","","",""
"","time_out","","html-keyboard-response","217","461178","0.0-1.0-287.0-0.0","0","0","48709","","null","","","null","31","","","","","","","","","","","","","","","",""
"","ITI","","html-keyboard-response","218","462180","0.0-1.0-288.0","0","0","48709","","null","","","null","31","","","","","","","","","","","","","","","NaN",""
"","S1","","html-keyboard-response","219","462432","0.0-1.0-290.0","0","0","48709","","null","","","null","32","","","","","","","","","","","","","","","",""
"","ISI","","html-keyboard-response","220","464434","0.0-1.0-291.0","0","0","48709","","null","","","null","32","NaN","","","","","","","","","","","","","","",""
"","S2","","html-keyboard-response","221","464686","0.0-1.0-292.0","0","0","48709","","null","","","null","32","","NaN","","","","","","","","","","","","","",""
"","response","","html-keyboard-response","222","464951","0.0-1.0-293.0-0.0","0","0","48709","","263","","","68","32","","","1","32","training","adjacent","DC","4","3","Q.jpg","L.jpg","0","0","1","",""
"","feedback","","html-keyboard-response","223","465953","0.0-1.0-294.0-0.0","0","0","48709","","null","","","null","32","","","","","","","","","","","","","","","",""
"","ITI","","html-keyboard-response","224","466955","0.0-1.0-297.0","0","0","48709","","null","","","null","32","","","","","","","","","","","","","","","NaN",""
"","S1","","html-keyboard-response","225","467207","0.0-1.0-299.0","0","0","48709","","null","","","null","33","","","","","","","","","","","","","","","",""
"","ISI","","html-keyboard-response","226","469209","0.0-1.0-300.0","0","0","48709","","null","","","null","33","NaN","","","","","","","","","","","","","","",""
"","S2","","html-keyboard-response","227","469461","0.0-1.0-301.0","0","0","48709","","null","","","null","33","","NaN","","","","","","","","","","","","","",""
"","response","","html-keyboard-response","228","469871","0.0-1.0-302.0-0.0","0","0","48709","","407","","","75","33","","","1","33","training","adjacent","DC","4","3","Q.jpg","L.jpg","1","0","0","",""
"","feedback","","html-keyboard-response","229","470873","0.0-1.0-303.0-0.0","0","0","48709","","null","","","null","33","","","","","","","","","","","","","","","",""
"","time_out","","html-keyboard-response","230","472875","0.0-1.0-305.0-0.0","0","0","48709","","null","","","null","33","","","","","","","","","","","","","","","",""
"","ITI","","html-keyboard-response","231","473877","0.0-1.0-306.0","0","0","48709","","null","","","null","33","","","","","","","","","","","","","","","NaN",""
"","S1","","html-keyboard-response","232","474129","0.0-1.0-308.0","0","0","48709","","null","","","null","34","","","","","","","","","","","","","","","",""
"","ISI","","html-keyboard-response","233","476131","0.0-1.0-309.0","0","0","48709","","324","","","68","34","d","","","","","","","","","","","","","","",""
"","S2","","html-keyboard-response","234","476383","0.0-1.0-310.0","0","0","48709","","249","","","68","34","","d","1","34","training","adjacent","CD","3","4","L.jpg","Q.jpg","0","1","0","",""
"","feedback","","html-keyboard-response","235","477385","0.0-1.0-312.0-0.0","0","0","48709","","null","","","null","34","","","","","","","","","","","","","","","",""
"","time_out","","html-keyboard-response","236","479387","0.0-1.0-314.0-0.0","0","0","48709","","null","","","null","34","","","","","","","","","","","","","","","",""
"","ITI","","html-keyboard-response","237","480389","0.0-1.0-315.0","0","0","48709","","null","","","null","34","","","","","","","","","","","","","","","NaN",""
"","S1","","html-keyboard-response","238","480641","0.0-1.0-317.0","0","0","48709","","null","","","null","35","","","","","","","","","","","","","","","",""
"","ISI","","html-keyboard-response","239","482643","0.0-1.0-318.0","0","0","48709","","null","","","null","35","NaN","","","","","","","","","","","","","","",""
"","S2","","html-keyboard-response","240","482895","0.0-1.0-319.0","0","0","48709","","null","","","null","35","","NaN","","","","","","","","","","","","","",""
"","response","","html-keyboard-response","241","483055","0.0-1.0-320.0-0.0","0","0","48709","","157","","","75","35","","","1","35","training","adjacent","BC","2","3","P.jpg","L.jpg","1","1","1","",""
"","feedback","","html-keyboard-response","242","484057","0.0-1.0-321.0-0.0","0","0","48709","","null","","","null","35","","","","","","","","","","","","","","","",""
"","ITI","","html-keyboard-response","243","485059","0.0-1.0-324.0","0","0","48709","","null","","","null","35","","","","","","","","","","","","","","","NaN",""
"","S1","","html-keyboard-response","244","485311","0.0-1.0-326.0","0","0","48709","","null","","","null","36","","","","","","","","","","","","","","","",""
"","ISI","","html-keyboard-response","245","487313","0.0-1.0-327.0","0","0","48709","","null","","","null","36","NaN","","","","","","","","","","","","","","",""
"","S2","","html-keyboard-response","246","487565","0.0-1.0-328.0","0","0","48709","","null","","","null","36","","NaN","","","","","","","","","","","","","",""
"","response","","html-keyboard-response","247","487663","0.0-1.0-329.0-0.0","0","0","48709","","96","","","75","36","","","1","36","training","adjacent","FE","6","5","N.jpg","O.jpg","1","0","0","",""
"","feedback","","html-keyboard-response","248","488665","0.0-1.0-330.0-0.0","0","0","48709","","null","","","null","36","","","","","","","","","","","","","","","",""
"","time_out","","html-keyboard-response","249","490667","0.0-1.0-332.0-0.0","0","0","48709","","null","","","null","36","","","","","","","","","","","","","","","",""
"","ITI","","html-keyboard-response","250","491669","0.0-1.0-333.0","0","0","48709","","null","","","null","36","","","","","","","","","","","","","","","NaN",""
"","S1","","html-keyboard-response","251","491921","0.0-1.0-335.0","0","0","48709","","null","","","null","37","","","","","","","","","","","","","","","",""
"","ISI","","html-keyboard-response","252","493923","0.0-1.0-336.0","0","0","48709","","null","","","null","37","NaN","","","","","","","","","","","","","","",""
"","S2","","html-keyboard-response","253","494175","0.0-1.0-337.0","0","0","48709","","null","","","null","37","","NaN","","","","","","","","","","","","","",""
"","response","","html-keyboard-response","254","494823","0.0-1.0-338.0-0.0","0","0","48709","","645","","","68","37","","","1","37","training","adjacent","BA","2","1","P.jpg","M.jpg","0","0","1","",""
"","feedback","","html-keyboard-response","255","495825","0.0-1.0-339.0-0.0","0","0","48709","","null","","","null","37","","","","","","","","","","","","","","","",""
"","ITI","","html-keyboard-response","256","496827","0.0-1.0-342.0","0","0","48709","","null","","","null","37","","","","","","","","","","","","","","","NaN",""
"","S1","","html-keyboard-response","257","497079","0.0-1.0-344.0","0","0","48709","","null","","","null","38","","","","","","","","","","","","","","","",""
"","ISI","","html-keyboard-response","258","499081","0.0-1.0-345.0","0","0","48709","","null","","","null","38","NaN","","","","","","","","","","","","","","",""
"","S2","","html-keyboard-response","259","499333","0.0-1.0-346.0","0","0","48709","","null","","","null","38","","NaN","","","","","","","","","","","","","",""
"","response","","html-keyboard-response","260","499944","0.0-1.0-347.0-0.0","0","0","48709","","608","","","75","38","","","1","38","training","adjacent","EF","5","6","O.jpg","N.jpg","1","1","1","",""
"","feedback","","html-keyboard-response","261","500946","0.0-1.0-348.0-0.0","0","0","48709","","null","","","null","38","","","","","","","","","","","","","","","",""
"","ITI","","html-keyboard-response","262","501948","0.0-1.0-351.0","0","0","48709","","null","","","null","38","","","","","","","","","","","","","","","NaN",""
"","S1","","html-keyboard-response","263","502200","0.0-1.0-353.0","0","0","48709","","null","","","null","39","","","","","","","","","","","","","","","",""
"","ISI","","html-keyboard-response","264","504202","0.0-1.0-354.0","0","0","48709","","null","","","null","39","NaN","","","","","","","","","","","","","","",""
"","S2","","html-keyboard-response","265","504454","0.0-1.0-355.0","0","0","48709","","null","","","null","39","","NaN","","","","","","","","","","","","","",""
"","response","","html-keyboard-response","266","505055","0.0-1.0-356.0-0.0","0","0","48709","","598","","","75","39","","","1","39","training","adjacent","DC","4","3","Q.jpg","L.jpg","1","0","0","",""
"","feedback","","html-keyboard-response","267","506057","0.0-1.0-357.0-0.0","0","0","48709","","null","","","null","39","","","","","","","","","","","","","","","",""
"","time_out","","html-keyboard-response","268","508059","0.0-1.0-359.0-0.0","0","0","48709","","null","","","null","39","","","","","","","","","","","","","","","",""
"","ITI","","html-keyboard-response","269","509061","0.0-1.0-360.0","0","0","48709","","null","","","null","39","","","","","","","","","","","","","","","NaN",""
"","S1","","html-keyboard-response","270","509313","0.0-1.0-362.0","0","0","48709","","null","","","null","40","","","","","","","","","","","","","","","",""
"","ISI","","html-keyboard-response","271","511315","0.0-1.0-363.0","0","0","48709","","null","","","null","40","NaN","","","","","","","","","","","","","","",""
"","S2","","html-keyboard-response","272","511567","0.0-1.0-364.0","0","0","48709","","null","","","null","40","","NaN","","","","","","","","","","","","","",""
"","response","","html-keyboard-response","273","511599","0.0-1.0-365.0-0.0","0","0","48709","","29","","","68","40","","","1","40","training","adjacent","DE","4","5","Q.jpg","O.jpg","0","1","0","",""
"","feedback","","html-keyboard-response","274","512601","0.0-1.0-366.0-0.0","0","0","48709","","null","","","null","40","","","","","","","","","","","","","","","",""
"","time_out","","html-keyboard-response","275","514603","0.0-1.0-368.0-0.0","0","0","48709","","null","","","null","40","","","","","","","","","","","","","","","",""
"","ITI","","html-keyboard-response","276","515605","0.0-1.0-369.0","0","0","48709","","null","","","null","40","","","","","","","","","","","","","","","NaN",""
"","S1","","html-keyboard-response","277","515857","0.0-1.0-371.0","0","0","48709","","null","","","null","41","","","","","","","","","","","","","","","",""
"","ISI","","html-keyboard-response","278","517860","0.0-1.0-372.0","0","0","48709","","null","","","null","41","NaN","","","","","","","","","","","","","","",""
"","S2","","html-keyboard-response","279","518112","0.0-1.0-373.0","0","0","48709","","null","","","null","41","","NaN","","","","","","","","","","","","","",""
"","response","","html-keyboard-response","280","518479","0.0-1.0-374.0-0.0","0","0","48709","","364","","","75","41","","","1","41","training","adjacent","DC","4","3","Q.jpg","L.jpg","1","0","0","",""
"","feedback","","html-keyboard-response","281","519481","0.0-1.0-375.0-0.0","0","0","48709","","null","","","null","41","","","","","","","","","","","","","","","",""
"","time_out","","html-keyboard-response","282","521483","0.0-1.0-377.0-0.0","0","0","48709","","null","","","null","41","","","","","","","","","","","","","","","",""
"","ITI","","html-keyboard-response","283","522485","0.0-1.0-378.0","0","0","48709","","null","","","null","41","","","","","","","","","","","","","","","NaN",""
"","S1","","html-keyboard-response","284","522737","0.0-1.0-380.0","0","0","48709","","null","","","null","42","","","","","","","","","","","","","","","",""
"","ISI","","html-keyboard-response","285","524739","0.0-1.0-381.0","0","0","48709","","null","","","null","42","NaN","","","","","","","","","","","","","","",""
"","S2","","html-keyboard-response","286","524991","0.0-1.0-382.0","0","0","48709","","null","","","null","42","","NaN","","","","","","","","","","","","","",""
"","response","","html-keyboard-response","287","525695","0.0-1.0-383.0-0.0","0","0","48709","","701","","","75","42","","","1","42","training","adjacent","CB","3","2","L.jpg","P.jpg","1","0","0","",""
"","feedback","","html-keyboard-response","288","526697","0.0-1.0-384.0-0.0","0","0","48709","","null","","","null","42","","","","","","","","","","","","","","","",""
"","time_out","","html-keyboard-response","289","528699","0.0-1.0-386.0-0.0","0","0","48709","","null","","","null","42","","","","","","","","","","","","","","","",""
"","ITI","","html-keyboard-response","290","529701","0.0-1.0-387.0","0","0","48709","","null","","","null","42","","","","","","","","","","","","","","","NaN",""
"","S1","","html-keyboard-response","291","529953","0.0-1.0-389.0","0","0","48709","","null","","","null","43","","","","","","","","","","","","","","","",""
"","ISI","","html-keyboard-response","292","531955","0.0-1.0-390.0","0","0","48709","","null","","","null","43","NaN","","","","","","","","","","","","","","",""
"","S2","","html-keyboard-response","293","532207","0.0-1.0-391.0","0","0","48709","","null","","","null","43","","NaN","","","","","","","","","","","","","",""
"","response","","html-keyboard-response","294","532742","0.0-1.0-392.0-0.0","0","0","48709","","533","","","68","43","","","1","43","training","adjacent","ED","5","4","O.jpg","Q.jpg","0","0","1","",""
"","feedback","","html-keyboard-response","295","533744","0.0-1.0-393.0-0.0","0","0","48709","","null","","","null","43","","","","","","","","","","","","","","","",""
"","ITI","","html-keyboard-response","296","534746","0.0-1.0-396.0","0","0","48709","","null","","","null","43","","","","","","","","","","","","","","","NaN",""
"","S1","","html-keyboard-response","297","534998","0.0-1.0-398.0","0","0","48709","","null","","","null","44","","","","","","","","","","","","","","","",""
"","ISI","","html-keyboard-response","298","537000","0.0-1.0-399.0","0","0","48709","","null","","","null","44","NaN","","","","","","","","","","","","","","",""
"","S2","","html-keyboard-response","299","537252","0.0-1.0-400.0","0","0","48709","","null","","","null","44","","NaN","","","","","","","","","","","","","",""
"","response","","html-keyboard-response","300","537855","0.0-1.0-401.0-0.0","0","0","48709","","601","","","68","44","","","1","44","training","adjacent","DE","4","5","Q.jpg","O.jpg","0","1","0","",""
"","feedback","","html-keyboard-response","301","538857","0.0-1.0-402.0-0.0","0","0","48709","","null","","","null","44","","","","","","","","","","","","","","","",""
"","time_out","","html-keyboard-response","302","540859","0.0-1.0-404.0-0.0","0","0","48709","","null","","","null","44","","","","","","","","","","","","","","","",""
"","ITI","","html-keyboard-response","303","541861","0.0-1.0-405.0","0","0","48709","","null","","","null","44","","","","","","","","","","","","","","","NaN",""
"","S1","","html-keyboard-response","304","542113","0.0-1.0-407.0","0","0","48709","","null","","","null","45","","","","","","","","","","","","","","","",""
"","ISI","","html-keyboard-response","305","544115","0.0-1.0-408.0","0","0","48709","","null","","","null","45","NaN","","","","","","","","","","","","","","",""
"","S2","","html-keyboard-response","306","544367","0.0-1.0-409.0","0","0","48709","","null","","","null","45","","NaN","","","","","","","","","","","","","",""
"","response","","html-keyboard-response","307","544983","0.0-1.0-410.0-0.0","0","0","48709","","613","","","75","45","","","1","45","training","adjacent","CB","3","2","L.jpg","P.jpg","1","0","0","",""
"","feedback","","html-keyboard-response","308","545985","0.0-1.0-411.0-0.0","0","0","48709","","null","","","null","45","","","","","","","","","","","","","","","",""
"","time_out","","html-keyboard-response","309","547987","0.0-1.0-413.0-0.0","0","0","48709","","null","","","null","45","","","","","","","","","","","","","","","",""
"","ITI","","html-keyboard-response","310","548989","0.0-1.0-414.0","0","0","48709","","null","","","null","45","","","","","","","","","","","","","","","NaN",""
"","S1","","html-keyboard-response","311","549241","0.0-1.0-416.0","0","0","48709","","null","","","null","46","","","","","","","","","","","","","","","",""
"","ISI","","html-keyboard-response","312","551243","0.0-1.0-417.0","0","0","48709","","null","","","null","46","NaN","","","","","","","","","","","","","","",""
"","S2","","html-keyboard-response","313","551495","0.0-1.0-418.0","0","0","48709","","null","","","null","46","","NaN","","","","","","","","","","","","","",""
"","response","","html-keyboard-response","314","551855","0.0-1.0-419.0-0.0","0","0","48709","","357","","","68","46","","","1","46","training","adjacent","AB","1","2","M.jpg","P.jpg","0","1","0","",""
"","feedback","","html-keyboard-response","315","552857","0.0-1.0-420.0-0.0","0","0","48709","","null","","","null","46","","","","","","","","","","","","","","","",""
"","time_out","","html-keyboard-response","316","554859","0.0-1.0-422.0-0.0","0","0","48709","","null","","","null","46","","","","","","","","","","","","","","","",""
"","ITI","","html-keyboard-response","317","555861","0.0-1.0-423.0","0","0","48709","","null","","","null","46","","","","","","","","","","","","","","","NaN",""
"","S1","","html-keyboard-response","318","556113","0.0-1.0-425.0","0","0","48709","","null","","","null","47","","","","","","","","","","","","","","","",""
"","ISI","","html-keyboard-response","319","558115","0.0-1.0-426.0","0","0","48709","","null","","","null","47","NaN","","","","","","","","","","","","","","",""
"","S2","","html-keyboard-response","320","558367","0.0-1.0-427.0","0","0","48709","","null","","","null","47","","NaN","","","","","","","","","","","","","",""
"","response","","html-keyboard-response","321","558807","0.0-1.0-428.0-0.0","0","0","48709","","437","","","75","47","","","1","47","training","adjacent","GF","7","6","R.jpg","N.jpg","1","0","0","",""
"","feedback","","html-keyboard-response","322","559809","0.0-1.0-429.0-0.0","0","0","48709","","null","","","null","47","","","","","","","","","","","","","","","",""
"","time_out","","html-keyboard-response","323","561811","0.0-1.0-431.0-0.0","0","0","48709","","null","","","null","47","","","","","","","","","","","","","","","",""
"","ITI","","html-keyboard-response","324","562813","0.0-1.0-432.0","0","0","48709","","null","","","null","47","","","","","","","","","","","","","","","NaN",""
"","block_over","","html-keyboard-response","325","575951","0.0-1.0-433.0-0.0","0","0","48709","","13134","","","32","47","","","","","","","","","","","","","","","",""
"","S1","","html-keyboard-response","326","576203","0.0-1.0-434.0","0","0","48709","","null","","","null","48","","","","","","","","","","","","","","","",""
"","ISI","","html-keyboard-response","327","578205","0.0-1.0-435.0","0","0","48709","","null","","","null","48","NaN","","","","","","","","","","","","","","",""
"","S2","","html-keyboard-response","328","578457","0.0-1.0-436.0","0","0","48709","","null","","","null","48","","NaN","","","","","","","","","","","","","",""
"","response","","html-keyboard-response","329","579279","0.0-1.0-437.0-0.0","0","0","48709","","819","","","68","48","","","2","48","training","adjacent","FE","6","5","N.jpg","O.jpg","0","0","1","",""
"","feedback","","html-keyboard-response","330","580281","0.0-1.0-438.0-0.0","0","0","48709","","null","","","null","48","","","","","","","","","","","","","","","",""
"","ITI","","html-keyboard-response","331","581283","0.0-1.0-441.0","0","0","48709","","null","","","null","48","","","","","","","","","","","","","","","NaN",""
"","S1","","html-keyboard-response","332","581535","0.0-1.0-443.0","0","0","48709","","null","","","null","49","","","","","","","","","","","","","","","",""
"","ISI","","html-keyboard-response","333","583537","0.0-1.0-444.0","0","0","48709","","null","","","null","49","NaN","","","","","","","","","","","","","","",""
"","S2","","html-keyboard-response","334","583789","0.0-1.0-445.0","0","0","48709","","null","","","null","49","","NaN","","","","","","","","","","","","","",""
"","response","","html-keyboard-response","335","584270","0.0-1.0-446.0-0.0","0","0","48709","","479","","","68","49","","","2","49","training","adjacent","AB","1","2","M.jpg","P.jpg","0","1","0","",""
"","feedback","","html-keyboard-response","336","585272","0.0-1.0-447.0-0.0","0","0","48709","","null","","","null","49","","","","","","","","","","","","","","","",""
"","time_out","","html-keyboard-response","337","587275","0.0-1.0-449.0-0.0","0","0","48709","","null","","","null","49","","","","","","","","","","","","","","","",""
"","ITI","","html-keyboard-response","338","588277","0.0-1.0-450.0","0","0","48709","","null","","","null","49","","","","","","","","","","","","","","","NaN",""
"","S1","","html-keyboard-response","339","588529","0.0-1.0-452.0","0","0","48709","","null","","","null","50","","","","","","","","","","","","","","","",""
"","ISI","","html-keyboard-response","340","590531","0.0-1.0-453.0","0","0","48709","","null","","","null","50","NaN","","","","","","","","","","","","","","",""
"","S2","","html-keyboard-response","341","590783","0.0-1.0-454.0","0","0","48709","","null","","","null","50","","NaN","","","","","","","","","","","","","",""
"","response","","html-keyboard-response","342","591959","0.0-1.0-455.0-0.0","0","0","48709","","1173","","","75","50","","","2","50","training","adjacent","BC","2","3","P.jpg","L.jpg","1","1","1","",""
"","feedback","","html-keyboard-response","343","592961","0.0-1.0-456.0-0.0","0","0","48709","","null","","","null","50","","","","","","","","","","","","","","","",""
"","ITI","","html-keyboard-response","344","593963","0.0-1.0-459.0","0","0","48709","","null","","","null","50","","","","","","","","","","","","","","","NaN",""
"","S1","","html-keyboard-response","345","594215","0.0-1.0-461.0","0","0","48709","","null","","","null","51","","","","","","","","","","","","","","","",""
"","ISI","","html-keyboard-response","346","596217","0.0-1.0-462.0","0","0","48709","","null","","","null","51","NaN","","","","","","","","","","","","","","",""
"","S2","","html-keyboard-response","347","596469","0.0-1.0-463.0","0","0","48709","","null","","","null","51","","NaN","","","","","","","","","","","","","",""
"","response","","html-keyboard-response","348","597054","0.0-1.0-464.0-0.0","0","0","48709","","583","","","75","51","","","2","51","training","adjacent","EF","5","6","O.jpg","N.jpg","1","1","1","",""
"","feedback","","html-keyboard-response","349","598057","0.0-1.0-465.0-0.0","0","0","48709","","null","","","null","51","","","","","","","","","","","","","","","",""
"","ITI","","html-keyboard-response","350","599059","0.0-1.0-468.0","0","0","48709","","null","","","null","51","","","","","","","","","","","","","","","NaN",""
"","S1","","html-keyboard-response","351","599311","0.0-1.0-470.0","0","0","48709","","null","","","null","52","","","","","","","","","","","","","","","",""
"","ISI","","html-keyboard-response","352","601313","0.0-1.0-471.0","0","0","48709","","null","","","null","52","NaN","","","","","","","","","","","","","","",""
"","S2","","html-keyboard-response","353","601565","0.0-1.0-472.0","0","0","48709","","null","","","null","52","","NaN","","","","","","","","","","","","","",""
"","response","","html-keyboard-response","354","601630","0.0-1.0-473.0-0.0","0","0","48709","","63","","","68","52","","","2","52","training","adjacent","CB","3","2","L.jpg","P.jpg","0","0","1","",""
"","feedback","","html-keyboard-response","355","602633","0.0-1.0-474.0-0.0","0","0","48709","","null","","","null","52","","","","","","","","","","","","","","","",""
"","ITI","","html-keyboard-response","356","603635","0.0-1.0-477.0","0","0","48709","","null","","","null","52","","","","","","","","","","","","","","","NaN",""
"","S1","","html-keyboard-response","357","603887","0.0-1.0-479.0","0","0","48709","","null","","","null","53","","","","","","","","","","","","","","","",""
"","ISI","","html-keyboard-response","358","605890","0.0-1.0-480.0","0","0","48709","","null","","","null","53","NaN","","","","","","","","","","","","","","",""
"","S2","","html-keyboard-response","359","606142","0.0-1.0-481.0","0","0","48709","","null","","","null","53","","NaN","","","","","","","","","","","","","",""
"","response","","html-keyboard-response","360","606335","0.0-1.0-482.0-0.0","0","0","48709","","190","","","75","53","","","2","53","training","adjacent","BA","2","1","P.jpg","M.jpg","1","0","0","",""
"","feedback","","html-keyboard-response","361","607337","0.0-1.0-483.0-0.0","0","0","48709","","null","","","null","53","","","","","","","","","","","","","","","",""
"","time_out","","html-keyboard-response","362","609340","0.0-1.0-485.0-0.0","0","0","48709","","null","","","null","53","","","","","","","","","","","","","","","",""
"","ITI","","html-keyboard-response","363","610342","0.0-1.0-486.0","0","0","48709","","null","","","null","53","","","","","","","","","","","","","","","NaN",""
"","S1","","html-keyboard-response","364","610594","0.0-1.0-488.0","0","0","48709","","null","","","null","54","","","","","","","","","","","","","","","",""
"","ISI","","html-keyboard-response","365","612596","0.0-1.0-489.0","0","0","48709","","null","","","null","54","NaN","","","","","","","","","","","","","","",""
"","S2","","html-keyboard-response","366","612848","0.0-1.0-490.0","0","0","48709","","null","","","null","54","","NaN","","","","","","","","","","","","","",""
"","response","","html-keyboard-response","367","612935","0.0-1.0-491.0-0.0","0","0","48709","","84","","","68","54","","","2","54","training","adjacent","ED","5","4","O.jpg","Q.jpg","0","0","1","",""
"","feedback","","html-keyboard-response","368","613937","0.0-1.0-492.0-0.0","0","0","48709","","null","","","null","54","","","","","","","","","","","","","","","",""
"","ITI","","html-keyboard-response","369","614939","0.0-1.0-495.0","0","0","48709","","null","","","null","54","","","","","","","","","","","","","","","NaN",""
"","S1","","html-keyboard-response","370","615191","0.0-1.0-497.0","0","0","48709","","null","","","null","55","","","","","","","","","","","","","","","",""
"","ISI","","html-keyboard-response","371","617193","0.0-1.0-498.0","0","0","48709","","null","","","null","55","NaN","","","","","","","","","","","","","","",""
"","S2","","html-keyboard-response","372","617445","0.0-1.0-499.0","0","0","48709","","null","","","null","55","","NaN","","","","","","","","","","","","","",""
"","response","","html-keyboard-response","373","618142","0.0-1.0-500.0-0.0","0","0","48709","","695","","","75","55","","","2","55","training","adjacent","GF","7","6","R.jpg","N.jpg","1","0","0","",""
"","feedback","","html-keyboard-response","374","619145","0.0-1.0-501.0-0.0","0","0","48709","","null","","","null","55","","","","","","","","","","","","","","","",""
"","time_out","","html-keyboard-response","375","621147","0.0-1.0-503.0-0.0","0","0","48709","","null","","","null","55","","","","","","","","","","","","","","","",""
"","ITI","","html-keyboard-response","376","622149","0.0-1.0-504.0","0","0","48709","","null","","","null","55","","","","","","","","","","","","","","","NaN",""
"","S1","","html-keyboard-response","377","622401","0.0-1.0-506.0","0","0","48709","","null","","","null","56","","","","","","","","","","","","","","","",""
"","ISI","","html-keyboard-response","378","624403","0.0-1.0-507.0","0","0","48709","","null","","","null","56","NaN","","","","","","","","","","","","","","",""
"","S2","","html-keyboard-response","379","624655","0.0-1.0-508.0","0","0","48709","","null","","","null","56","","NaN","","","","","","","","","","","","","",""
"","response","","html-keyboard-response","380","624719","0.0-1.0-509.0-0.0","0","0","48709","","62","","","75","56","","","2","56","training","adjacent","BA","2","1","P.jpg","M.jpg","1","0","0","",""
"","feedback","","html-keyboard-response","381","625722","0.0-1.0-510.0-0.0","0","0","48709","","null","","","null","56","","","","","","","","","","","","","","","",""
"","time_out","","html-keyboard-response","382","627724","0.0-1.0-512.0-0.0","0","0","48709","","null","","","null","56","","","","","","","","","","","","","","","",""
"","ITI","","html-keyboard-response","383","628726","0.0-1.0-513.0","0","0","48709","","null","","","null","56","","","","","","","","","","","","","","","NaN",""
"","S1","","html-keyboard-response","384","628978","0.0-1.0-515.0","0","0","48709","","null","","","null","57","","","","","","","","","","","","","","","",""
"","ISI","","html-keyboard-response","385","630980","0.0-1.0-516.0","0","0","48709","","null","","","null","57","NaN","","","","","","","","","","","","","","",""
"","S2","","html-keyboard-response","386","631215","0.0-1.0-517.0","0","0","48709","","232","","","68","57","","d","2","57","training","adjacent","DC","4","3","Q.jpg","L.jpg","0","0","1","",""
"","feedback","","html-keyboard-response","387","632217","0.0-1.0-519.0-0.0","0","0","48709","","null","","","null","57","","","","","","","","","","","","","","","",""
"","ITI","","html-keyboard-response","388","633219","0.0-1.0-522.0","0","0","48709","","null","","","null","57","","","","","","","","","","","","","","","NaN",""
"","S1","","html-keyboard-response","389","633471","0.0-1.0-524.0","0","0","48709","","null","","","null","58","","","","","","","","","","","","","","","",""
"","ISI","","html-keyboard-response","390","635473","0.0-1.0-525.0","0","0","48709","","null","","","null","58","NaN","","","","","","","","","","","","","","",""
"","S2","","html-keyboard-response","391","635725","0.0-1.0-526.0","0","0","48709","","null","","","null","58","","NaN","","","","","","","","","","","","","",""
"","response","","html-keyboard-response","392","635743","0.0-1.0-527.0-0.0","0","0","48709","","15","","","75","58","","","2","58","training","adjacent","ED","5","4","O.jpg","Q.jpg","1","0","0","",""
"","feedback","","html-keyboard-response","393","636745","0.0-1.0-528.0-0.0","0","0","48709","","null","","","null","58","","","","","","","","","","","","","","","",""
"","time_out","","html-keyboard-response","394","638747","0.0-1.0-530.0-0.0","0","0","48709","","null","","","null","58","","","","","","","","","","","","","","","",""
"","ITI","","html-keyboard-response","395","639750","0.0-1.0-531.0","0","0","48709","","null","","","null","58","","","","","","","","","","","","","","","NaN",""
"","S1","","html-keyboard-response","396","640002","0.0-1.0-533.0","0","0","48709","","null","","","null","59","","","","","","","","","","","","","","","",""
"","ISI","","html-keyboard-response","397","642004","0.0-1.0-534.0","0","0","48709","","null","","","null","59","NaN","","","","","","","","","","","","","","",""
"","S2","","html-keyboard-response","398","642256","0.0-1.0-535.0","0","0","48709","","null","","","null","59","","NaN","","","","","","","","","","","","","",""
"","response","","html-keyboard-response","399","642335","0.0-1.0-536.0-0.0","0","0","48709","","76","","","75","59","","","2","59","training","adjacent","ED","5","4","O.jpg","Q.jpg","1","0","0","",""
"","feedback","","html-keyboard-response","400","643337","0.0-1.0-537.0-0.0","0","0","48709","","null","","","null","59","","","","","","","","","","","","","","","",""
"","time_out","","html-keyboard-response","401","645339","0.0-1.0-539.0-0.0","0","0","48709","","null","","","null","59","","","","","","","","","","","","","","","",""
"","ITI","","html-keyboard-response","402","646341","0.0-1.0-540.0","0","0","48709","","null","","","null","59","","","","","","","","","","","","","","","NaN",""
"","S1","","html-keyboard-response","403","646593","0.0-1.0-542.0","0","0","48709","","null","","","null","60","","","","","","","","","","","","","","","",""
"","ISI","","html-keyboard-response","404","648595","0.0-1.0-543.0","0","0","48709","","null","","","null","60","NaN","","","","","","","","","","","","","","",""
"","S2","","html-keyboard-response","405","648847","0.0-1.0-544.0","0","0","48709","","null","","","null","60","","NaN","","","","","","","","","","","","","",""
"","response","","html-keyboard-response","406","649023","0.0-1.0-545.0-0.0","0","0","48709","","173","","","68","60","","","2","60","training","adjacent","CD","3","4","L.jpg","Q.jpg","0","1","0","",""
"","feedback","","html-keyboard-response","407","650025","0.0-1.0-546.0-0.0","0","0","48709","","null","","","null","60","","","","","","","","","","","","","","","",""
"","time_out","","html-keyboard-response","408","652027","0.0-1.0-548.0-0.0","0","0","48709","","null","","","null","60","","","","","","","","","","","","","","","",""
"","ITI","","html-keyboard-response","409","653029","0.0-1.0-549.0","0","0","48709","","null","","","null","60","","","","","","","","","","","","","","","NaN",""
"","S1","","html-keyboard-response","410","653281","0.0-1.0-551.0","0","0","48709","","null","","","null","61","","","","","","","","","","","","","","","",""
"","ISI","","html-keyboard-response","411","655283","0.0-1.0-552.0","0","0","48709","","323","","","68","61","d","","","","","","","","","","","","","","",""
"","S2","","html-keyboard-response","412","655535","0.0-1.0-553.0","0","0","48709","","null","","","null","61","","NaN","","","","","","","","","","","","","",""
"","response","","html-keyboard-response","413","655582","0.0-1.0-554.0-0.0","0","0","48709","","45","","","68","61","","","2","61","training","adjacent","FG","6","7","N.jpg","R.jpg","0","1","0","",""
"","feedback","","html-keyboard-response","414","656586","0.0-1.0-555.0-0.0","0","0","48709","","null","","","null","61","","","","","","","","","","","","","","","",""
"","time_out","","html-keyboard-response","415","658589","0.0-1.0-557.0-0.0","0","0","48709","","null","","","null","61","","","","","","","","","","","","","","","",""
"","ITI","","html-keyboard-response","416","659591","0.0-1.0-558.0","0","0","48709","","null","","","null","61","","","","","","","","","","","","","","","NaN",""
"","S1","","html-keyboard-response","417","659843","0.0-1.0-560.0","0","0","48709","","null","","","null","62","","","","","","","","","","","","","","","",""
"","ISI","","html-keyboard-response","418","661845","0.0-1.0-561.0","0","0","48709","","null","","","null","62","NaN","","","","","","","","","","","","","","",""
"","S2","","html-keyboard-response","419","662097","0.0-1.0-562.0","0","0","48709","","null","","","null","62","","NaN","","","","","","","","","","","","","",""
"","response","","html-keyboard-response","420","662168","0.0-1.0-563.0-0.0","0","0","48709","","69","","","75","62","","","2","62","training","adjacent","FE","6","5","N.jpg","O.jpg","1","0","0","",""
"","feedback","","html-keyboard-response","421","663170","0.0-1.0-564.0-0.0","0","0","48709","","null","","","null","62","","","","","","","","","","","","","","","",""
"","time_out","","html-keyboard-response","422","665172","0.0-1.0-566.0-0.0","0","0","48709","","null","","","null","62","","","","","","","","","","","","","","","",""
"","ITI","","html-keyboard-response","423","666174","0.0-1.0-567.0","0","0","48709","","null","","","null","62","","","","","","","","","","","","","","","NaN",""
"","S1","","html-keyboard-response","424","666426","0.0-1.0-569.0","0","0","48709","","null","","","null","63","","","","","","","","","","","","","","","",""
"","ISI","","html-keyboard-response","425","668428","0.0-1.0-570.0","0","0","48709","","null","","","null","63","NaN","","","","","","","","","","","","","","",""
"","S2","","html-keyboard-response","426","668680","0.0-1.0-571.0","0","0","48709","","null","","","null","63","","NaN","","","","","","","","","","","","","",""
"","response","","html-keyboard-response","427","668768","0.0-1.0-572.0-0.0","0","0","48709","","85","","","75","63","","","2","63","training","adjacent","CB","3","2","L.jpg","P.jpg","1","0","0","",""
"","feedback","","html-keyboard-response","428","669770","0.0-1.0-573.0-0.0","0","0","48709","","null","","","null","63","","","","","","","","","","","","","","","",""
"","time_out","","html-keyboard-response","429","671772","0.0-1.0-575.0-0.0","0","0","48709","","null","","","null","63","","","","","","","","","","","","","","","",""
"","ITI","","html-keyboard-response","430","672774","0.0-1.0-576.0","0","0","48709","","null","","","null","63","","","","","","","","","","","","","","","NaN",""
"","S1","","html-keyboard-response","431","673026","0.0-1.0-578.0","0","0","48709","","null","","","null","64","","","","","","","","","","","","","","","",""
"","ISI","","html-keyboard-response","432","675029","0.0-1.0-579.0","0","0","48709","","null","","","null","64","NaN","","","","","","","","","","","","","","",""
"","S2","","html-keyboard-response","433","675280","0.0-1.0-580.0","0","0","48709","","249","","","68","64","","d","2","64","training","adjacent","CD","3","4","L.jpg","Q.jpg","0","1","0","",""
"","feedback","","html-keyboard-response","434","676283","0.0-1.0-582.0-0.0","0","0","48709","","null","","","null","64","","","","","","","","","","","","","","","",""
"","time_out","","html-keyboard-response","435","678285","0.0-1.0-584.0-0.0","0","0","48709","","null","","","null","64","","","","","","","","","","","","","","","",""
"","ITI","","html-keyboard-response","436","679287","0.0-1.0-585.0","0","0","48709","","null","","","null","64","","","","","","","","","","","","","","","NaN",""
"","S1","","html-keyboard-response","437","679539","0.0-1.0-587.0","0","0","48709","","null","","","null","65","","","","","","","","","","","","","","","",""
"","ISI","","html-keyboard-response","438","681541","0.0-1.0-588.0","0","0","48709","","null","","","null","65","NaN","","","","","","","","","","","","","","",""
"","S2","","html-keyboard-response","439","681592","0.0-1.0-589.0","0","0","48709","","48","","","68","65","","d","2","65","training","adjacent","BC","2","3","P.jpg","L.jpg","0","1","0","",""
"","feedback","","html-keyboard-response","440","682594","0.0-1.0-591.0-0.0","0","0","48709","","null","","","null","65","","","","","","","","","","","","","","","",""
"","time_out","","html-keyboard-response","441","684597","0.0-1.0-593.0-0.0","0","0","48709","","null","","","null","65","","","","","","","","","","","","","","","",""
"","ITI","","html-keyboard-response","442","685599","0.0-1.0-594.0","0","0","48709","","null","","","null","65","","","","","","","","","","","","","","","NaN",""
"","S1","","html-keyboard-response","443","685851","0.0-1.0-596.0","0","0","48709","","null","","","null","66","","","","","","","","","","","","","","","",""
"","ISI","","html-keyboard-response","444","687853","0.0-1.0-597.0","0","0","48709","","338","","","75","66","k","","","","","","","","","","","","","","",""
"","S2","","html-keyboard-response","445","688105","0.0-1.0-598.0","0","0","48709","","null","","","null","66","","NaN","","","","","","","","","","","","","",""
"","response","","html-keyboard-response","446","688111","0.0-1.0-599.0-0.0","0","0","48709","","4","","","68","66","","","2","66","training","adjacent","DE","4","5","Q.jpg","O.jpg","0","1","0","",""
"","feedback","","html-keyboard-response","447","689114","0.0-1.0-600.0-0.0","0","0","48709","","null","","","null","66","","","","","","","","","","","","","","","",""
"","time_out","","html-keyboard-response","448","691116","0.0-1.0-602.0-0.0","0","0","48709","","null","","","null","66","","","","","","","","","","","","","","","",""
"","ITI","","html-keyboard-response","449","692118","0.0-1.0-603.0","0","0","48709","","null","","","null","66","","","","","","","","","","","","","","","NaN",""
"","S1","","html-keyboard-response","450","692370","0.0-1.0-605.0","0","0","48709","","null","","","null","67","","","","","","","","","","","","","","","",""
"","ISI","","html-keyboard-response","451","694372","0.0-1.0-606.0","0","0","48709","","null","","","null","67","NaN","","","","","","","","","","","","","","",""
"","S2","","html-keyboard-response","452","694624","0.0-1.0-607.0","0","0","48709","","null","","","null","67","","NaN","","","","","","","","","","","","","",""
"","response","","html-keyboard-response","453","694656","0.0-1.0-608.0-0.0","0","0","48709","","29","","","75","67","","","2","67","training","adjacent","DE","4","5","Q.jpg","O.jpg","1","1","1","",""
"","feedback","","html-keyboard-response","454","695658","0.0-1.0-609.0-0.0","0","0","48709","","null","","","null","67","","","","","","","","","","","","","","","",""
"","ITI","","html-keyboard-response","455","696660","0.0-1.0-612.0","0","0","48709","","null","","","null","67","","","","","","","","","","","","","","","NaN",""
"","S1","","html-keyboard-response","456","696912","0.0-1.0-614.0","0","0","48709","","null","","","null","68","","","","","","","","","","","","","","","",""
"","ISI","","html-keyboard-response","457","698914","0.0-1.0-615.0","0","0","48709","","null","","","null","68","NaN","","","","","","","","","","","","","","",""
"","S2","","html-keyboard-response","458","699166","0.0-1.0-616.0","0","0","48709","","null","","","null","68","","NaN","","","","","","","","","","","","","",""
"","response","","html-keyboard-response","459","699624","0.0-1.0-617.0-0.0","0","0","48709","","455","","","75","68","","","2","68","training","adjacent","FG","6","7","N.jpg","R.jpg","1","1","1","",""
"","feedback","","html-keyboard-response","460","700626","0.0-1.0-618.0-0.0","0","0","48709","","null","","","null","68","","","","","","","","","","","","","","","",""
"","ITI","","html-keyboard-response","461","701628","0.0-1.0-621.0","0","0","48709","","null","","","null","68","","","","","","","","","","","","","","","NaN",""
"","S1","","html-keyboard-response","462","701880","0.0-1.0-623.0","0","0","48709","","null","","","null","69","","","","","","","","","","","","","","","",""
"","ISI","","html-keyboard-response","463","703882","0.0-1.0-624.0","0","0","48709","","525","","","75","69","k","","","","","","","","","","","","","","",""
"","S2","","html-keyboard-response","464","704127","0.0-1.0-625.0","0","0","48709","","243","","","68","69","","d","2","69","training","adjacent","AB","1","2","M.jpg","P.jpg","0","1","0","",""
"","feedback","","html-keyboard-response","465","705130","0.0-1.0-627.0-0.0","0","0","48709","","null","","","null","69","","","","","","","","","","","","","","","",""
"","time_out","","html-keyboard-response","466","707132","0.0-1.0-629.0-0.0","0","0","48709","","null","","","null","69","","","","","","","","","","","","","","","",""
"","ITI","","html-keyboard-response","467","708134","0.0-1.0-630.0","0","0","48709","","null","","","null","69","","","","","","","","","","","","","","","NaN",""
"","S1","","html-keyboard-response","468","708386","0.0-1.0-632.0","0","0","48709","","null","","","null","70","","","","","","","","","","","","","","","",""
"","ISI","","html-keyboard-response","469","710388","0.0-1.0-633.0","0","0","48709","","null","","","null","70","NaN","","","","","","","","","","","","","","",""
"","S2","","html-keyboard-response","470","710640","0.0-1.0-634.0","0","0","48709","","null","","","null","70","","NaN","","","","","","","","","","","","","",""
"","response","","html-keyboard-response","471","710816","0.0-1.0-635.0-0.0","0","0","48709","","174","","","75","70","","","2","70","training","adjacent","AB","1","2","M.jpg","P.jpg","1","1","1","",""
"","feedback","","html-keyboard-response","472","711819","0.0-1.0-636.0-0.0","0","0","48709","","null","","","null","70","","","","","","","","","","","","","","","",""
"","ITI","","html-keyboard-response","473","712821","0.0-1.0-639.0","0","0","48709","","null","","","null","70","","","","","","","","","","","","","","","NaN",""
"","S1","","html-keyboard-response","474","713073","0.0-1.0-641.0","0","0","48709","","null","","","null","71","","","","","","","","","","","","","","","",""
"","ISI","","html-keyboard-response","475","715075","0.0-1.0-642.0","0","0","48709","","null","","","null","71","NaN","","","","","","","","","","","","","","",""
"","S2","","html-keyboard-response","476","715327","0.0-1.0-643.0","0","0","48709","","null","","","null","71","","NaN","","","","","","","","","","","","","",""
"","response","","html-keyboard-response","477","716919","0.0-1.0-644.0-0.0","0","0","48709","","1589","","","75","71","","","2","71","training","adjacent","FG","6","7","N.jpg","R.jpg","1","1","1","",""
"","feedback","","html-keyboard-response","478","717921","0.0-1.0-645.0-0.0","0","0","48709","","null","","","null","71","","","","","","","","","","","","","","","",""
"","ITI","","html-keyboard-response","479","718923","0.0-1.0-648.0","0","0","48709","","null","","","null","71","","","","","","","","","","","","","","","NaN",""
"","S1","","html-keyboard-response","480","719175","0.0-1.0-650.0","0","0","48709","","null","","","null","72","","","","","","","","","","","","","","","",""
"","ISI","","html-keyboard-response","481","721177","0.0-1.0-651.0","0","0","48709","","null","","","null","72","NaN","","","","","","","","","","","","","","",""
"","S2","","html-keyboard-response","482","721429","0.0-1.0-652.0","0","0","48709","","null","","","null","72","","NaN","","","","","","","","","","","","","",""
"","response","","html-keyboard-response","483","721887","0.0-1.0-653.0-0.0","0","0","48709","","455","","","68","72","","","2","72","training","adjacent","DC","4","3","Q.jpg","L.jpg","0","0","1","",""
"","feedback","","html-keyboard-response","484","722889","0.0-1.0-654.0-0.0","0","0","48709","","null","","","null","72","","","","","","","","","","","","","","","",""
"","ITI","","html-keyboard-response","485","723891","0.0-1.0-657.0","0","0","48709","","null","","","null","72","","","","","","","","","","","","","","","NaN",""
"","S1","","html-keyboard-response","486","724143","0.0-1.0-659.0","0","0","48709","","null","","","null","73","","","","","","","","","","","","","","","",""
"","ISI","","html-keyboard-response","487","726145","0.0-1.0-660.0","0","0","48709","","null","","","null","73","NaN","","","","","","","","","","","","","","",""
"","S2","","html-keyboard-response","488","726397","0.0-1.0-661.0","0","0","48709","","null","","","null","73","","NaN","","","","","","","","","","","","","",""
"","response","","html-keyboard-response","489","726670","0.0-1.0-662.0-0.0","0","0","48709","","270","","","75","73","","","2","73","training","adjacent","GF","7","6","R.jpg","N.jpg","1","0","0","",""
"","feedback","","html-keyboard-response","490","727672","0.0-1.0-663.0-0.0","0","0","48709","","null","","","null","73","","","","","","","","","","","","","","","",""
"","time_out","","html-keyboard-response","491","729674","0.0-1.0-665.0-0.0","0","0","48709","","null","","","null","73","","","","","","","","","","","","","","","",""
"","ITI","","html-keyboard-response","492","730676","0.0-1.0-666.0","0","0","48709","","null","","","null","73","","","","","","","","","","","","","","","NaN",""
"","S1","","html-keyboard-response","493","730928","0.0-1.0-668.0","0","0","48709","","null","","","null","74","","","","","","","","","","","","","","","",""
"","ISI","","html-keyboard-response","494","732930","0.0-1.0-669.0","0","0","48709","","null","","","null","74","NaN","","","","","","","","","","","","","","",""
"","S2","","html-keyboard-response","495","733182","0.0-1.0-670.0","0","0","48709","","null","","","null","74","","NaN","","","","","","","","","","","","","",""
"","response","","html-keyboard-response","496","733463","0.0-1.0-671.0-0.0","0","0","48709","","278","","","68","74","","","2","74","training","adjacent","DC","4","3","Q.jpg","L.jpg","0","0","1","",""
"","feedback","","html-keyboard-response","497","734465","0.0-1.0-672.0-0.0","0","0","48709","","null","","","null","74","","","","","","","","","","","","","","","",""
"","ITI","","html-keyboard-response","498","735468","0.0-1.0-675.0","0","0","48709","","null","","","null","74","","","","","","","","","","","","","","","NaN",""
"","S1","","html-keyboard-response","499","735720","0.0-1.0-677.0","0","0","48709","","null","","","null","75","","","","","","","","","","","","","","","",""
"","ISI","","html-keyboard-response","500","737722","0.0-1.0-678.0","0","0","48709","","null","","","null","75","NaN","","","","","","","","","","","","","","",""
"","S2","","html-keyboard-response","501","737974","0.0-1.0-679.0","0","0","48709","","null","","","null","75","","NaN","","","","","","","","","","","","","",""
"","response","","html-keyboard-response","502","738974","0.0-1.0-680.0-0.0","0","0","48709","","998","","","75","75","","","2","75","training","adjacent","DE","4","5","Q.jpg","O.jpg","1","1","1","",""
"","feedback","","html-keyboard-response","503","739977","0.0-1.0-681.0-0.0","0","0","48709","","null","","","null","75","","","","","","","","","","","","","","","",""
"","ITI","","html-keyboard-response","504","740979","0.0-1.0-684.0","0","0","48709","","null","","","null","75","","","","","","","","","","","","","","","NaN",""
"","S1","","html-keyboard-response","505","741231","0.0-1.0-686.0","0","0","48709","","null","","","null","76","","","","","","","","","","","","","","","",""
"","ISI","","html-keyboard-response","506","743233","0.0-1.0-687.0","0","0","48709","","null","","","null","76","NaN","","","","","","","","","","","","","","",""
"","S2","","html-keyboard-response","507","743485","0.0-1.0-688.0","0","0","48709","","null","","","null","76","","NaN","","","","","","","","","","","","","",""
"","response","","html-keyboard-response","508","743942","0.0-1.0-689.0-0.0","0","0","48709","","455","","","75","76","","","2","76","training","adjacent","CB","3","2","L.jpg","P.jpg","1","0","0","",""
"","feedback","","html-keyboard-response","509","744945","0.0-1.0-690.0-0.0","0","0","48709","","null","","","null","76","","","","","","","","","","","","","","","",""
"","time_out","","html-keyboard-response","510","746947","0.0-1.0-692.0-0.0","0","0","48709","","null","","","null","76","","","","","","","","","","","","","","","",""
"","ITI","","html-keyboard-response","511","747949","0.0-1.0-693.0","0","0","48709","","null","","","null","76","","","","","","","","","","","","","","","NaN",""
"","S1","","html-keyboard-response","512","748201","0.0-1.0-695.0","0","0","48709","","null","","","null","77","","","","","","","","","","","","","","","",""
"","ISI","","html-keyboard-response","513","750203","0.0-1.0-696.0","0","0","48709","","null","","","null","77","NaN","","","","","","","","","","","","","","",""
"","S2","","html-keyboard-response","514","750455","0.0-1.0-697.0","0","0","48709","","null","","","null","77","","NaN","","","","","","","","","","","","","",""
"","response","","html-keyboard-response","515","750535","0.0-1.0-698.0-0.0","0","0","48709","","77","","","68","77","","","2","77","training","adjacent","DC","4","3","Q.jpg","L.jpg","0","0","1","",""
"","feedback","","html-keyboard-response","516","751537","0.0-1.0-699.0-0.0","0","0","48709","","null","","","null","77","","","","","","","","","","","","","","","",""
"","ITI","","html-keyboard-response","517","752539","0.0-1.0-702.0","0","0","48709","","null","","","null","77","","","","","","","","","","","","","","","NaN",""
"","S1","","html-keyboard-response","518","752791","0.0-1.0-704.0","0","0","48709","","null","","","null","78","","","","","","","","","","","","","","","",""
"","ISI","","html-keyboard-response","519","754793","0.0-1.0-705.0","0","0","48709","","null","","","null","78","NaN","","","","","","","","","","","","","","",""
"","S2","","html-keyboard-response","520","755045","0.0-1.0-706.0","0","0","48709","","null","","","null","78","","NaN","","","","","","","","","","","","","",""
"","response","","html-keyboard-response","521","755711","0.0-1.0-707.0-0.0","0","0","48709","","663","","","68","78","","","2","78","training","adjacent","FE","6","5","N.jpg","O.jpg","0","0","1","",""
"","feedback","","html-keyboard-response","522","756714","0.0-1.0-708.0-0.0","0","0","48709","","null","","","null","78","","","","","","","","","","","","","","","",""
"","ITI","","html-keyboard-response","523","757716","0.0-1.0-711.0","0","0","48709","","null","","","null","78","","","","","","","","","","","","","","","NaN",""
"","S1","","html-keyboard-response","524","757968","0.0-1.0-713.0","0","0","48709","","null","","","null","79","","","","","","","","","","","","","","","",""
"","ISI","","html-keyboard-response","525","759970","0.0-1.0-714.0","0","0","48709","","null","","","null","79","NaN","","","","","","","","","","","","","","",""
"","S2","","html-keyboard-response","526","760222","0.0-1.0-715.0","0","0","48709","","null","","","null","79","","NaN","","","","","","","","","","","","","",""
"","response","","html-keyboard-response","527","760950","0.0-1.0-716.0-0.0","0","0","48709","","726","","","68","79","","","2","79","training","adjacent","DE","4","5","Q.jpg","O.jpg","0","1","0","",""
"","feedback","","html-keyboard-response","528","761953","0.0-1.0-717.0-0.0","0","0","48709","","null","","","null","79","","","","","","","","","","","","","","","",""
"","time_out","","html-keyboard-response","529","763955","0.0-1.0-719.0-0.0","0","0","48709","","null","","","null","79","","","","","","","","","","","","","","","",""
"","ITI","","html-keyboard-response","530","764957","0.0-1.0-720.0","0","0","48709","","null","","","null","79","","","","","","","","","","","","","","","NaN",""
"","S1","","html-keyboard-response","531","765209","0.0-1.0-722.0","0","0","48709","","null","","","null","80","","","","","","","","","","","","","","","",""
"","ISI","","html-keyboard-response","532","767211","0.0-1.0-723.0","0","0","48709","","395","","","75","80","k","","","","","","","","","","","","","","",""
"","S2","","html-keyboard-response","533","767463","0.0-1.0-724.0","0","0","48709","","null","","","null","80","","NaN","","","","","","","","","","","","","",""
"","response","","html-keyboard-response","534","767679","0.0-1.0-725.0-0.0","0","0","48709","","214","","","75","80","","","2","80","training","adjacent","BC","2","3","P.jpg","L.jpg","1","1","1","",""
"","feedback","","html-keyboard-response","535","768681","0.0-1.0-726.0-0.0","0","0","48709","","null","","","null","80","","","","","","","","","","","","","","","",""
"","ITI","","html-keyboard-response","536","769683","0.0-1.0-729.0","0","0","48709","","null","","","null","80","","","","","","","","","","","","","","","NaN",""
"","S1","","html-keyboard-response","537","769935","0.0-1.0-731.0","0","0","48709","","null","","","null","81","","","","","","","","","","","","","","","",""
"","ISI","","html-keyboard-response","538","771937","0.0-1.0-732.0","0","0","48709","","null","","","null","81","NaN","","","","","","","","","","","","","","",""
"","S2","","html-keyboard-response","539","772189","0.0-1.0-733.0","0","0","48709","","null","","","null","81","","NaN","","","","","","","","","","","","","",""
"","response","","html-keyboard-response","540","772726","0.0-1.0-734.0-0.0","0","0","48709","","535","","","75","81","","","2","81","training","adjacent","CB","3","2","L.jpg","P.jpg","1","0","0","",""
"","feedback","","html-keyboard-response","541","773729","0.0-1.0-735.0-0.0","0","0","48709","","null","","","null","81","","","","","","","","","","","","","","","",""
"","time_out","","html-keyboard-response","542","775731","0.0-1.0-737.0-0.0","0","0","48709","","null","","","null","81","","","","","","","","","","","","","","","",""
"","ITI","","html-keyboard-response","543","776733","0.0-1.0-738.0","0","0","48709","","null","","","null","81","","","","","","","","","","","","","","","NaN",""
"","S1","","html-keyboard-response","544","776985","0.0-1.0-740.0","0","0","48709","","null","","","null","82","","","","","","","","","","","","","","","",""
"","ISI","","html-keyboard-response","545","778987","0.0-1.0-741.0","0","0","48709","","707","","","68","82","d","","","","","","","","","","","","","","",""
"","S2","","html-keyboard-response","546","779240","0.0-1.0-742.0","0","0","48709","","null","","","null","82","","NaN","","","","","","","","","","","","","",""
"","response","","html-keyboard-response","547","779295","0.0-1.0-743.0-0.0","0","0","48709","","52","","","75","82","","","2","82","training","adjacent","EF","5","6","O.jpg","N.jpg","1","1","1","",""
"","feedback","","html-keyboard-response","548","780298","0.0-1.0-744.0-0.0","0","0","48709","","null","","","null","82","","","","","","","","","","","","","","","",""
"","ITI","","html-keyboard-response","549","781300","0.0-1.0-747.0","0","0","48709","","null","","","null","82","","","","","","","","","","","","","","","NaN",""
"","S1","","html-keyboard-response","550","781552","0.0-1.0-749.0","0","0","48709","","null","","","null","83","","","","","","","","","","","","","","","",""
"","ISI","","html-keyboard-response","551","783554","0.0-1.0-750.0","0","0","48709","","null","","","null","83","NaN","","","","","","","","","","","","","","",""
"","S2","","html-keyboard-response","552","783806","0.0-1.0-751.0","0","0","48709","","null","","","null","83","","NaN","","","","","","","","","","","","","",""
"","response","","html-keyboard-response","553","784367","0.0-1.0-752.0-0.0","0","0","48709","","558","","","68","83","","","2","83","training","adjacent","BA","2","1","P.jpg","M.jpg","0","0","1","",""
"","feedback","","html-keyboard-response","554","785369","0.0-1.0-753.0-0.0","0","0","48709","","null","","","null","83","","","","","","","","","","","","","","","",""
"","ITI","","html-keyboard-response","555","786371","0.0-1.0-756.0","0","0","48709","","null","","","null","83","","","","","","","","","","","","","","","NaN",""
"","S1","","html-keyboard-response","556","786623","0.0-1.0-758.0","0","0","48709","","null","","","null","84","","","","","","","","","","","","","","","",""
"","ISI","","html-keyboard-response","557","788625","0.0-1.0-759.0","0","0","48709","","null","","","null","84","NaN","","","","","","","","","","","","","","",""
"","S2","","html-keyboard-response","558","788877","0.0-1.0-760.0","0","0","48709","","null","","","null","84","","NaN","","","","","","","","","","","","","",""
"","response","","html-keyboard-response","559","789663","0.0-1.0-761.0-0.0","0","0","48709","","783","","","68","84","","","2","84","training","adjacent","GF","7","6","R.jpg","N.jpg","0","0","1","",""
"","feedback","","html-keyboard-response","560","790665","0.0-1.0-762.0-0.0","0","0","48709","","null","","","null","84","","","","","","","","","","","","","","","",""
"","ITI","","html-keyboard-response","561","791668","0.0-1.0-765.0","0","0","48709","","null","","","null","84","","","","","","","","","","","","","","","NaN",""
"","S1","","html-keyboard-response","562","791920","0.0-1.0-767.0","0","0","48709","","null","","","null","85","","","","","","","","","","","","","","","",""
"","ISI","","html-keyboard-response","563","793922","0.0-1.0-768.0","0","0","48709","","null","","","null","85","NaN","","","","","","","","","","","","","","",""
"","S2","","html-keyboard-response","564","794174","0.0-1.0-769.0","0","0","48709","","null","","","null","85","","NaN","","","","","","","","","","","","","",""
"","response","","html-keyboard-response","565","794934","0.0-1.0-770.0-0.0","0","0","48709","","758","","","75","85","","","2","85","training","adjacent","BC","2","3","P.jpg","L.jpg","1","1","1","",""
"","feedback","","html-keyboard-response","566","795937","0.0-1.0-771.0-0.0","0","0","48709","","null","","","null","85","","","","","","","","","","","","","","","",""
"","ITI","","html-keyboard-response","567","796940","0.0-1.0-774.0","0","0","48709","","null","","","null","85","","","","","","","","","","","","","","","NaN",""
"","S1","","html-keyboard-response","568","797192","0.0-1.0-776.0","0","0","48709","","null","","","null","86","","","","","","","","","","","","","","","",""
"","ISI","","html-keyboard-response","569","799194","0.0-1.0-777.0","0","0","48709","","null","","","null","86","NaN","","","","","","","","","","","","","","",""
"","S2","","html-keyboard-response","570","799446","0.0-1.0-778.0","0","0","48709","","null","","","null","86","","NaN","","","","","","","","","","","","","",""
"","response","","html-keyboard-response","571","800039","0.0-1.0-779.0-0.0","0","0","48709","","591","","","75","86","","","2","86","training","adjacent","FG","6","7","N.jpg","R.jpg","1","1","1","",""
"","feedback","","html-keyboard-response","572","801042","0.0-1.0-780.0-0.0","0","0","48709","","null","","","null","86","","","","","","","","","","","","","","","",""
"","ITI","","html-keyboard-response","573","802044","0.0-1.0-783.0","0","0","48709","","null","","","null","86","","","","","","","","","","","","","","","NaN",""
"","S1","","html-keyboard-response","574","802296","0.0-1.0-785.0","0","0","48709","","null","","","null","87","","","","","","","","","","","","","","","",""
"","ISI","","html-keyboard-response","575","804298","0.0-1.0-786.0","0","0","48709","","null","","","null","87","NaN","","","","","","","","","","","","","","",""
"","S2","","html-keyboard-response","576","804550","0.0-1.0-787.0","0","0","48709","","null","","","null","87","","NaN","","","","","","","","","","","","","",""
"","response","","html-keyboard-response","577","805023","0.0-1.0-788.0-0.0","0","0","48709","","470","","","68","87","","","2","87","training","adjacent","FE","6","5","N.jpg","O.jpg","0","0","1","",""
"","feedback","","html-keyboard-response","578","806025","0.0-1.0-789.0-0.0","0","0","48709","","null","","","null","87","","","","","","","","","","","","","","","",""
"","ITI","","html-keyboard-response","579","807027","0.0-1.0-792.0","0","0","48709","","null","","","null","87","","","","","","","","","","","","","","","NaN",""
"","S1","","html-keyboard-response","580","807279","0.0-1.0-794.0","0","0","48709","","null","","","null","88","","","","","","","","","","","","","","","",""
"","ISI","","html-keyboard-response","581","809281","0.0-1.0-795.0","0","0","48709","","null","","","null","88","NaN","","","","","","","","","","","","","","",""
