"success","ttype","start_time","trial_type","trial_index","time_elapsed","internal_node_id","warning","missed_checkup","PID","view_history","rt","responses","repeat_instructions","key_press","index","keypress_isi","keypress_S2","block","trial_num","phase","group_type","pair_type","S1_stim","S2_stim","S1_img","S2_img","S1_chosen","S1_higher","accuracy","keypress_iti","total_bonus_tally"
"true","full_screen","d03042023hr1627","fullscreen","0","3361","0.0-0.0","0","0","30677","","","","","","","","","","","","","","","","","","","","","",""
"","instructions","","instructions","1","36691","0.0-1.0-0.0-0.0","0","0","30677","[{""page_index"":0,""viewing_time"":18241},{""page_index"":1,""viewing_time"":8271},{""page_index"":2,""viewing_time"":4510},{""page_index"":3,""viewing_time"":2306}]","33328","","","","","","","","","","","","","","","","","","","",""
"","comprehension_check","","survey-multi-choice","2","51185","0.0-1.0-0.0-1.0","0","0","30677","","14485","{""Q0"":""True"",""Q1"":""K"",""Q2"":""Only while the second image is shown"",""Q3"":""Green mark"",""Q4"":""either D or K""}","1","","","","","","","","","","","","","","","","","",""
"","missed_instruction_checkup","","html-keyboard-response","3","53150","0.0-1.0-0.0-2.0-0.0","0","1","30677","","1962","","","32","","","","","","","","","","","","","","","","",""
"","instructions","","instructions","4","80258","0.0-1.0-0.1-0.1","0","0","30677","[{""page_index"":0,""viewing_time"":5159},{""page_index"":1,""viewing_time"":10953},{""page_index"":2,""viewing_time"":9325},{""page_index"":3,""viewing_time"":1669}]","27106","","","","","","","","","","","","","","","","","","","",""
"","comprehension_check","","survey-multi-choice","5","105319","0.0-1.0-0.1-1.1","0","0","30677","","25055","{""Q0"":""True"",""Q1"":""D"",""Q2"":""Only when the screen 'MAKE A CHOICE' is shown"",""Q3"":""Green mark"",""Q4"":""either D or K""}","1","","","","","","","","","","","","","","","","","",""
"","missed_instruction_checkup","","html-keyboard-response","6","158749","0.0-1.0-0.1-2.1-0.1","0","1","30677","","53428","","","32","","","","","","","","","","","","","","","","",""
"","instructions","","instructions","7","177776","0.0-1.0-0.2-0.2","0","0","30677","[{""page_index"":0,""viewing_time"":13600},{""page_index"":1,""viewing_time"":2920},{""page_index"":2,""viewing_time"":1414},{""page_index"":3,""viewing_time"":1091}]","19026","","","","","","","","","","","","","","","","","","","",""
"","comprehension_check","","survey-multi-choice","8","195645","0.0-1.0-0.2-1.2","0","0","30677","","17865","{""Q0"":""True"",""Q1"":""K"",""Q2"":""Only when the screen 'MAKE A CHOICE' is shown"",""Q3"":""Green mark"",""Q4"":""either D or K""}","1","","","","","","","","","","","","","","","","","",""
"","missed_instruction_checkup","","html-keyboard-response","9","197881","0.0-1.0-0.2-2.2-0.2","0","1","30677","","2234","","","32","","","","","","","","","","","","","","","","",""
"","instructions","","instructions","10","225463","0.0-1.0-0.3-0.3","0","0","30677","[{""page_index"":0,""viewing_time"":5616},{""page_index"":1,""viewing_time"":15484},{""page_index"":2,""viewing_time"":5576},{""page_index"":3,""viewing_time"":905}]","27582","","","","","","","","","","","","","","","","","","","",""
"","comprehension_check","","survey-multi-choice","11","235145","0.0-1.0-0.3-1.3","0","0","30677","","9676","{""Q0"":""True"",""Q1"":""K"",""Q2"":""Once the second image appears and while the screen 'MAKE A CHOICE' is shown"",""Q3"":""Green mark"",""Q4"":""either D or K""}","0","","","","","","","","","","","","","","","","","",""
"","start_exp","","html-keyboard-response","12","237058","0.0-1.0-1.0","0","0","30677","","1912","","","32","","","","","","","","","","","","","","","","",""
"","S1","","html-keyboard-response","13","237312","0.0-1.0-2.0","0","0","30677","","null","","","null","0","","","","","","","","","","","","","","","",""
"","ISI","","html-keyboard-response","14","237819","0.0-1.0-3.0","0","0","30677","","null","","","null","0","NaN","","","","","","","","","","","","","","",""
"","S2","","html-keyboard-response","15","238072","0.0-1.0-4.0","0","0","30677","","null","","","null","0","","NaN","","","","","","","","","","","","","",""
"","response","","html-keyboard-response","16","239827","0.0-1.0-5.0-0.0","0","0","30677","","null","","","null","0","","","1","0","training","adjacent","DE","4","5","O.jpg","R.jpg","NaN","1","0","",""
"","too_slow_prompt","","html-keyboard-response","17","240829","0.0-1.0-7.0-0.0","1","0","30677","","null","","","null","","","","","","","","","","","","","","","","",""
"","time_out","","html-keyboard-response","18","242836","0.0-1.0-8.0-0.0","0","0","30677","","null","","","null","0","","","","","","","","","","","","","","","",""
"","ITI","","html-keyboard-response","19","243857","0.0-1.0-9.0","0","0","30677","","473","","","75","0","","","","","","","","","","","","","","","k",""
"","S1","","html-keyboard-response","20","244116","0.0-1.0-11.0","0","0","30677","","null","","","null","1","","","","","","","","","","","","","","","",""
"","ISI","","html-keyboard-response","21","244617","0.0-1.0-12.0","0","0","30677","","347","","","75","1","k","","","","","","","","","","","","","","",""
"","S2","","html-keyboard-response","22","244807","0.0-1.0-13.0","0","0","30677","","188","","","75","1","","k","1","1","training","adjacent","AB","1","2","Q.jpg","P.jpg","1","1","1","",""
"","feedback","","html-keyboard-response","23","245867","0.0-1.0-15.0-0.0","0","0","30677","","null","","","null","1","","","","","","","","","","","","","","","",""
"","ITI","","html-keyboard-response","24","246871","0.0-1.0-18.0","0","0","30677","","18","","","75","1","","","","","","","","","","","","","","","k",""
"","S1","","html-keyboard-response","25","247126","0.0-1.0-20.0","0","0","30677","","null","","","null","2","","","","","","","","","","","","","","","",""
"","ISI","","html-keyboard-response","26","247629","0.0-1.0-21.0","0","0","30677","","null","","","null","2","NaN","","","","","","","","","","","","","","",""
"","S2","","html-keyboard-response","27","247897","0.0-1.0-22.0","0","0","30677","","null","","","null","2","","NaN","","","","","","","","","","","","","",""
"","response","","html-keyboard-response","28","247936","0.0-1.0-23.0-0.0","0","0","30677","","37","","","68","2","","","1","2","training","adjacent","FE","6","5","N.jpg","R.jpg","0","0","1","",""
"","feedback","","html-keyboard-response","29","248944","0.0-1.0-24.0-0.0","0","0","30677","","null","","","null","2","","","","","","","","","","","","","","","",""
"","ITI","","html-keyboard-response","30","249982","0.0-1.0-27.0","0","0","30677","","458","","","75","2","","","","","","","","","","","","","","","k",""
"","S1","","html-keyboard-response","31","250240","0.0-1.0-29.0","0","0","30677","","null","","","null","3","","","","","","","","","","","","","","","",""
"","ISI","","html-keyboard-response","32","250749","0.0-1.0-30.0","0","0","30677","","49","","","75","3","k","","","","","","","","","","","","","","",""
"","S2","","html-keyboard-response","33","250931","0.0-1.0-31.0","0","0","30677","","180","","","75","3","","k","1","3","training","adjacent","GF","7","6","L.jpg","N.jpg","1","0","0","",""
"","feedback","","html-keyboard-response","34","251945","0.0-1.0-33.0-0.0","0","0","30677","","null","","","null","3","","","","","","","","","","","","","","","",""
"","time_out","","html-keyboard-response","35","253950","0.0-1.0-35.0-0.0","0","0","30677","","null","","","null","3","","","","","","","","","","","","","","","",""
"","ITI","","html-keyboard-response","36","254953","0.0-1.0-36.0","0","0","30677","","24","","","75","3","","","","","","","","","","","","","","","k",""
"","S1","","html-keyboard-response","37","255210","0.0-1.0-38.0","0","0","30677","","null","","","null","4","","","","","","","","","","","","","","","",""
"","ISI","","html-keyboard-response","38","255713","0.0-1.0-39.0","0","0","30677","","446","","","68","4","d","","","","","","","","","","","","","","",""
"","S2","","html-keyboard-response","39","255718","0.0-1.0-40.0","0","0","30677","","4","","","75","4","","k","1","4","training","adjacent","CD","3","4","M.jpg","O.jpg","1","1","1","",""
"","feedback","","html-keyboard-response","40","256722","0.0-1.0-42.0-0.0","0","0","30677","","null","","","null","4","","","","","","","","","","","","","","","",""
"","ITI","","html-keyboard-response","41","257724","0.0-1.0-45.0","0","0","30677","","519","","","75","4","","","","","","","","","","","","","","","k",""
"","S1","","html-keyboard-response","42","257980","0.0-1.0-47.0","0","0","30677","","null","","","null","5","","","","","","","","","","","","","","","",""
"","ISI","","html-keyboard-response","43","258486","0.0-1.0-48.0","0","0","30677","","158","","","75","5","k","","","","","","","","","","","","","","",""
"","S2","","html-keyboard-response","44","258667","0.0-1.0-49.0","0","0","30677","","176","","","75","5","","k","1","5","training","adjacent","DC","4","3","O.jpg","M.jpg","1","0","0","",""
"","feedback","","html-keyboard-response","45","259669","0.0-1.0-51.0-0.0","0","0","30677","","null","","","null","5","","","","","","","","","","","","","","","",""
"","time_out","","html-keyboard-response","46","261671","0.0-1.0-53.0-0.0","0","0","30677","","null","","","null","5","","","","","","","","","","","","","","","",""
"","ITI","","html-keyboard-response","47","262675","0.0-1.0-54.0","0","0","30677","","49","","","75","5","","","","","","","","","","","","","","","k",""
"","S1","","html-keyboard-response","48","262931","0.0-1.0-56.0","0","0","30677","","null","","","null","6","","","","","","","","","","","","","","","",""
"","ISI","","html-keyboard-response","49","263437","0.0-1.0-57.0","0","0","30677","","320","","","68","6","d","","","","","","","","","","","","","","",""
"","S2","","html-keyboard-response","50","263450","0.0-1.0-58.0","0","0","30677","","12","","","75","6","","k","1","6","training","adjacent","CD","3","4","M.jpg","O.jpg","1","1","1","",""
"","feedback","","html-keyboard-response","51","264451","0.0-1.0-60.0-0.0","0","0","30677","","null","","","null","6","","","","","","","","","","","","","","","",""
"","ITI","","html-keyboard-response","52","265455","0.0-1.0-63.0","0","0","30677","","452","","","75","6","","","","","","","","","","","","","","","k",""
"","S1","","html-keyboard-response","53","265708","0.0-1.0-65.0","0","0","30677","","null","","","null","7","","","","","","","","","","","","","","","",""
"","ISI","","html-keyboard-response","54","266210","0.0-1.0-66.0","0","0","30677","","436","","","75","7","k","","","","","","","","","","","","","","",""
"","S2","","html-keyboard-response","55","266373","0.0-1.0-67.0","0","0","30677","","161","","","75","7","","k","1","7","training","adjacent","CB","3","2","M.jpg","P.jpg","1","0","0","",""
"","feedback","","html-keyboard-response","56","267385","0.0-1.0-69.0-0.0","0","0","30677","","null","","","null","7","","","","","","","","","","","","","","","",""
"","time_out","","html-keyboard-response","57","269389","0.0-1.0-71.0-0.0","0","0","30677","","null","","","null","7","","","","","","","","","","","","","","","",""
"","ITI","","html-keyboard-response","58","270391","0.0-1.0-72.0","0","0","30677","","470","","","75","7","","","","","","","","","","","","","","","k",""
"","S1","","html-keyboard-response","59","270647","0.0-1.0-74.0","0","0","30677","","null","","","null","8","","","","","","","","","","","","","","","",""
"","ISI","","html-keyboard-response","60","271157","0.0-1.0-75.0","0","0","30677","","152","","","75","8","k","","","","","","","","","","","","","","",""
"","S2","","html-keyboard-response","61","271389","0.0-1.0-76.0","0","0","30677","","230","","","75","8","","k","1","8","training","adjacent","FG","6","7","N.jpg","L.jpg","1","1","1","",""
"","feedback","","html-keyboard-response","62","272408","0.0-1.0-78.0-0.0","0","0","30677","","null","","","null","8","","","","","","","","","","","","","","","",""
"","ITI","","html-keyboard-response","63","273417","0.0-1.0-81.0","0","0","30677","","330","","","68","8","","","","","","","","","","","","","","","d",""
"","S1","","html-keyboard-response","64","273767","0.0-1.0-83.0","0","0","30677","","null","","","null","9","","","","","","","","","","","","","","","",""
"","ISI","","html-keyboard-response","65","274271","0.0-1.0-84.0","0","0","30677","","7","","","75","9","k","","","","","","","","","","","","","","",""
"","S2","","html-keyboard-response","66","274525","0.0-1.0-85.0","0","0","30677","","251","","","68","9","","d","1","9","training","adjacent","DE","4","5","O.jpg","R.jpg","0","1","0","",""
"","feedback","","html-keyboard-response","67","275527","0.0-1.0-87.0-0.0","0","0","30677","","null","","","null","9","","","","","","","","","","","","","","","",""
"","time_out","","html-keyboard-response","68","277528","0.0-1.0-89.0-0.0","0","0","30677","","null","","","null","9","","","","","","","","","","","","","","","",""
"","ITI","","html-keyboard-response","69","278535","0.0-1.0-90.0","0","0","30677","","104","","","68","9","","","","","","","","","","","","","","","d",""
"","S1","","html-keyboard-response","70","278785","0.0-1.0-92.0","0","0","30677","","null","","","null","10","","","","","","","","","","","","","","","",""
"","ISI","","html-keyboard-response","71","279287","0.0-1.0-93.0","0","0","30677","","444","","","75","10","k","","","","","","","","","","","","","","",""
"","S2","","html-keyboard-response","72","279430","0.0-1.0-94.0","0","0","30677","","142","","","68","10","","d","1","10","training","adjacent","BA","2","1","P.jpg","Q.jpg","0","0","1","",""
"","feedback","","html-keyboard-response","73","280435","0.0-1.0-96.0-0.0","0","0","30677","","null","","","null","10","","","","","","","","","","","","","","","",""
"","ITI","","html-keyboard-response","74","281442","0.0-1.0-99.0","0","0","30677","","53","","","68","10","","","","","","","","","","","","","","","d",""
"","S1","","html-keyboard-response","75","281694","0.0-1.0-101.0","0","0","30677","","null","","","null","11","","","","","","","","","","","","","","","",""
"","ISI","","html-keyboard-response","76","282196","0.0-1.0-102.0","0","0","30677","","null","","","null","11","NaN","","","","","","","","","","","","","","",""
"","S2","","html-keyboard-response","77","282222","0.0-1.0-103.0","0","0","30677","","25","","","68","11","","d","1","11","training","adjacent","EF","5","6","R.jpg","N.jpg","0","1","0","",""
"","feedback","","html-keyboard-response","78","283227","0.0-1.0-105.0-0.0","0","0","30677","","null","","","null","11","","","","","","","","","","","","","","","",""
"","time_out","","html-keyboard-response","79","285230","0.0-1.0-107.0-0.0","0","0","30677","","null","","","null","11","","","","","","","","","","","","","","","",""
"","ITI","","html-keyboard-response","80","286235","0.0-1.0-108.0","0","0","30677","","425","","","75","11","","","","","","","","","","","","","","","k",""
"","S1","","html-keyboard-response","81","286488","0.0-1.0-110.0","0","0","30677","","null","","","null","12","","","","","","","","","","","","","","","",""
"","ISI","","html-keyboard-response","82","286988","0.0-1.0-111.0","0","0","30677","","null","","","null","12","NaN","","","","","","","","","","","","","","",""
"","S2","","html-keyboard-response","83","287239","0.0-1.0-112.0","0","0","30677","","null","","","null","12","","NaN","","","","","","","","","","","","","",""
"","response","","html-keyboard-response","84","287413","0.0-1.0-113.0-0.0","0","0","30677","","172","","","75","12","","","1","12","training","adjacent","GF","7","6","L.jpg","N.jpg","1","0","0","",""
"","feedback","","html-keyboard-response","85","288418","0.0-1.0-114.0-0.0","0","0","30677","","null","","","null","12","","","","","","","","","","","","","","","",""
"","time_out","","html-keyboard-response","86","290424","0.0-1.0-116.0-0.0","0","0","30677","","null","","","null","12","","","","","","","","","","","","","","","",""
"","ITI","","html-keyboard-response","87","291427","0.0-1.0-117.0","0","0","30677","","857","","","68","12","","","","","","","","","","","","","","","d",""
"","S1","","html-keyboard-response","88","291681","0.0-1.0-119.0","0","0","30677","","null","","","null","13","","","","","","","","","","","","","","","",""
"","ISI","","html-keyboard-response","89","292185","0.0-1.0-120.0","0","0","30677","","75","","","68","13","d","","","","","","","","","","","","","","",""
"","S2","","html-keyboard-response","90","292204","0.0-1.0-121.0","0","0","30677","","17","","","68","13","","d","1","13","training","adjacent","BA","2","1","P.jpg","Q.jpg","0","0","1","",""
"","feedback","","html-keyboard-response","91","293338","0.0-1.0-123.0-0.0","0","0","30677","","null","","","null","13","","","","","","","","","","","","","","","",""
"","ITI","","html-keyboard-response","92","294341","0.0-1.0-126.0","0","0","30677","","4","","","68","13","","","","","","","","","","","","","","","d",""
"","S1","","html-keyboard-response","93","294595","0.0-1.0-128.0","0","0","30677","","null","","","null","14","","","","","","","","","","","","","","","",""
"","ISI","","html-keyboard-response","94","295109","0.0-1.0-129.0","0","0","30677","","null","","","null","14","NaN","","","","","","","","","","","","","","",""
"","S2","","html-keyboard-response","95","295167","0.0-1.0-130.0","0","0","30677","","57","","","68","14","","d","1","14","training","adjacent","BC","2","3","P.jpg","M.jpg","0","1","0","",""
"","feedback","","html-keyboard-response","96","296177","0.0-1.0-132.0-0.0","0","0","30677","","null","","","null","14","","","","","","","","","","","","","","","",""
"","time_out","","html-keyboard-response","97","298181","0.0-1.0-134.0-0.0","0","0","30677","","null","","","null","14","","","","","","","","","","","","","","","",""
"","ITI","","html-keyboard-response","98","299184","0.0-1.0-135.0","0","0","30677","","550","","","75","14","","","","","","","","","","","","","","","k",""
"","S1","","html-keyboard-response","99","299437","0.0-1.0-137.0","0","0","30677","","null","","","null","15","","","","","","","","","","","","","","","",""
"","ISI","","html-keyboard-response","100","299942","0.0-1.0-138.0","0","0","30677","","152","","","68","15","d","","","","","","","","","","","","","","",""
"","S2","","html-keyboard-response","101","299956","0.0-1.0-139.0","0","0","30677","","13","","","68","15","","d","1","15","training","adjacent","DE","4","5","O.jpg","R.jpg","0","1","0","",""
"","feedback","","html-keyboard-response","102","301002","0.0-1.0-141.0-0.0","0","0","30677","","null","","","null","15","","","","","","","","","","","","","","","",""
"","time_out","","html-keyboard-response","103","303009","0.0-1.0-143.0-0.0","0","0","30677","","null","","","null","15","","","","","","","","","","","","","","","",""
"","ITI","","html-keyboard-response","104","304010","0.0-1.0-144.0","0","0","30677","","73","","","75","15","","","","","","","","","","","","","","","k",""
"","S1","","html-keyboard-response","105","304264","0.0-1.0-146.0","0","0","30677","","null","","","null","16","","","","","","","","","","","","","","","",""
"","ISI","","html-keyboard-response","106","304770","0.0-1.0-147.0","0","0","30677","","127","","","68","16","d","","","","","","","","","","","","","","",""
"","S2","","html-keyboard-response","107","304940","0.0-1.0-148.0","0","0","30677","","168","","","75","16","","k","1","16","training","adjacent","ED","5","4","R.jpg","O.jpg","1","0","0","",""
"","feedback","","html-keyboard-response","108","305946","0.0-1.0-150.0-0.0","0","0","30677","","null","","","null","16","","","","","","","","","","","","","","","",""
"","time_out","","html-keyboard-response","109","307948","0.0-1.0-152.0-0.0","0","0","30677","","null","","","null","16","","","","","","","","","","","","","","","",""
"","ITI","","html-keyboard-response","110","309014","0.0-1.0-153.0","0","0","30677","","59","","","68","16","","","","","","","","","","","","","","","d",""
"","S1","","html-keyboard-response","111","309267","0.0-1.0-155.0","0","0","30677","","null","","","null","17","","","","","","","","","","","","","","","",""
"","ISI","","html-keyboard-response","112","309769","0.0-1.0-156.0","0","0","30677","","415","","","75","17","k","","","","","","","","","","","","","","",""
"","S2","","html-keyboard-response","113","310021","0.0-1.0-157.0","0","0","30677","","null","","","null","17","","NaN","","","","","","","","","","","","","",""
"","response","","html-keyboard-response","114","310186","0.0-1.0-158.0-0.0","0","0","30677","","164","","","68","17","","","1","17","training","adjacent","BA","2","1","P.jpg","Q.jpg","0","0","1","",""
"","feedback","","html-keyboard-response","115","311193","0.0-1.0-159.0-0.0","0","0","30677","","null","","","null","17","","","","","","","","","","","","","","","",""
"","ITI","","html-keyboard-response","116","312194","0.0-1.0-162.0","0","0","30677","","88","","","75","17","","","","","","","","","","","","","","","k",""
"","S1","","html-keyboard-response","117","312444","0.0-1.0-164.0","0","0","30677","","null","","","null","18","","","","","","","","","","","","","","","",""
"","ISI","","html-keyboard-response","118","312990","0.0-1.0-165.0","0","0","30677","","101","","","75","18","k","","","","","","","","","","","","","","",""
"","S2","","html-keyboard-response","119","313104","0.0-1.0-166.0","0","0","30677","","110","","","68","18","","d","1","18","training","adjacent","EF","5","6","R.jpg","N.jpg","0","1","0","",""
"","feedback","","html-keyboard-response","120","314105","0.0-1.0-168.0-0.0","0","0","30677","","null","","","null","18","","","","","","","","","","","","","","","",""
"","time_out","","html-keyboard-response","121","316108","0.0-1.0-170.0-0.0","0","0","30677","","null","","","null","18","","","","","","","","","","","","","","","",""
"","ITI","","html-keyboard-response","122","317110","0.0-1.0-171.0","0","0","30677","","382","","","68","18","","","","","","","","","","","","","","","d",""
"","S1","","html-keyboard-response","123","317363","0.0-1.0-173.0","0","0","30677","","null","","","null","19","","","","","","","","","","","","","","","",""
"","ISI","","html-keyboard-response","124","317867","0.0-1.0-174.0","0","0","30677","","6","","","68","19","d","","","","","","","","","","","","","","",""
"","S2","","html-keyboard-response","125","318120","0.0-1.0-175.0","0","0","30677","","null","","","null","19","","NaN","","","","","","","","","","","","","",""
"","response","","html-keyboard-response","126","318231","0.0-1.0-176.0-0.0","0","0","30677","","110","","","75","19","","","1","19","training","adjacent","AB","1","2","Q.jpg","P.jpg","1","1","1","",""
"","feedback","","html-keyboard-response","127","319235","0.0-1.0-177.0-0.0","0","0","30677","","null","","","null","19","","","","","","","","","","","","","","","",""
"","ITI","","html-keyboard-response","128","320240","0.0-1.0-180.0","0","0","30677","","69","","","68","19","","","","","","","","","","","","","","","d",""
"","S1","","html-keyboard-response","129","320494","0.0-1.0-182.0","0","0","30677","","null","","","null","20","","","","","","","","","","","","","","","",""
"","ISI","","html-keyboard-response","130","321003","0.0-1.0-183.0","0","0","30677","","null","","","null","20","NaN","","","","","","","","","","","","","","",""
"","S2","","html-keyboard-response","131","321056","0.0-1.0-184.0","0","0","30677","","50","","","68","20","","d","1","20","training","adjacent","BA","2","1","P.jpg","Q.jpg","0","0","1","",""
"","feedback","","html-keyboard-response","132","322061","0.0-1.0-186.0-0.0","0","0","30677","","null","","","null","20","","","","","","","","","","","","","","","",""
"","ITI","","html-keyboard-response","133","323064","0.0-1.0-189.0","0","0","30677","","101","","","75","20","","","","","","","","","","","","","","","k",""
"","S1","","html-keyboard-response","134","323317","0.0-1.0-191.0","0","0","30677","","null","","","null","21","","","","","","","","","","","","","","","",""
"","ISI","","html-keyboard-response","135","323825","0.0-1.0-192.0","0","0","30677","","145","","","75","21","k","","","","","","","","","","","","","","",""
"","S2","","html-keyboard-response","136","323869","0.0-1.0-193.0","0","0","30677","","42","","","75","21","","k","1","21","training","adjacent","FE","6","5","N.jpg","R.jpg","1","0","0","",""
"","feedback","","html-keyboard-response","137","324875","0.0-1.0-195.0-0.0","0","0","30677","","null","","","null","21","","","","","","","","","","","","","","","",""
"","time_out","","html-keyboard-response","138","327036","0.0-1.0-197.0-0.0","0","0","30677","","null","","","null","21","","","","","","","","","","","","","","","",""
"","ITI","","html-keyboard-response","139","328038","0.0-1.0-198.0","0","0","30677","","6","","","75","21","","","","","","","","","","","","","","","k",""
"","S1","","html-keyboard-response","140","328298","0.0-1.0-200.0","0","0","30677","","null","","","null","22","","","","","","","","","","","","","","","",""
"","ISI","","html-keyboard-response","141","328843","0.0-1.0-201.0","0","0","30677","","8","","","75","22","k","","","","","","","","","","","","","","",""
"","S2","","html-keyboard-response","142","329096","0.0-1.0-202.0","0","0","30677","","null","","","null","22","","NaN","","","","","","","","","","","","","",""
"","response","","html-keyboard-response","143","329237","0.0-1.0-203.0-0.0","0","0","30677","","141","","","68","22","","","1","22","training","adjacent","EF","5","6","R.jpg","N.jpg","0","1","0","",""
"","feedback","","html-keyboard-response","144","330248","0.0-1.0-204.0-0.0","0","0","30677","","null","","","null","22","","","","","","","","","","","","","","","",""
"","time_out","","html-keyboard-response","145","332254","0.0-1.0-206.0-0.0","0","0","30677","","null","","","null","22","","","","","","","","","","","","","","","",""
"","ITI","","html-keyboard-response","146","333257","0.0-1.0-207.0","0","0","30677","","127","","","68","22","","","","","","","","","","","","","","","d",""
"","S1","","html-keyboard-response","147","333511","0.0-1.0-209.0","0","0","30677","","null","","","null","23","","","","","","","","","","","","","","","",""
"","ISI","","html-keyboard-response","148","334013","0.0-1.0-210.0","0","0","30677","","null","","","null","23","NaN","","","","","","","","","","","","","","",""
"","S2","","html-keyboard-response","149","334272","0.0-1.0-211.0","0","0","30677","","null","","","null","23","","NaN","","","","","","","","","","","","","",""
"","response","","html-keyboard-response","150","335028","0.0-1.0-212.0-0.0","0","0","30677","","754","","","68","23","","","1","23","training","adjacent","CD","3","4","M.jpg","O.jpg","0","1","0","",""
"","feedback","","html-keyboard-response","151","336035","0.0-1.0-213.0-0.0","0","0","30677","","null","","","null","23","","","","","","","","","","","","","","","",""
"","time_out","","html-keyboard-response","152","338037","0.0-1.0-215.0-0.0","0","0","30677","","null","","","null","23","","","","","","","","","","","","","","","",""
"","ITI","","html-keyboard-response","153","339042","0.0-1.0-216.0","0","0","30677","","75","","","75","23","","","","","","","","","","","","","","","k",""
"","S1","","html-keyboard-response","154","339293","0.0-1.0-218.0","0","0","30677","","null","","","null","24","","","","","","","","","","","","","","","",""
"","ISI","","html-keyboard-response","155","339806","0.0-1.0-219.0","0","0","30677","","162","","","68","24","d","","","","","","","","","","","","","","",""
"","S2","","html-keyboard-response","156","339866","0.0-1.0-220.0","0","0","30677","","57","","","68","24","","d","1","24","training","adjacent","DC","4","3","O.jpg","M.jpg","0","0","1","",""
"","feedback","","html-keyboard-response","157","340869","0.0-1.0-222.0-0.0","0","0","30677","","null","","","null","24","","","","","","","","","","","","","","","",""
"","ITI","","html-keyboard-response","158","341874","0.0-1.0-225.0","0","0","30677","","550","","","75","24","","","","","","","","","","","","","","","k",""
"","S1","","html-keyboard-response","159","342125","0.0-1.0-227.0","0","0","30677","","null","","","null","25","","","","","","","","","","","","","","","",""
"","ISI","","html-keyboard-response","160","342629","0.0-1.0-228.0","0","0","30677","","271","","","68","25","d","","","","","","","","","","","","","","",""
"","S2","","html-keyboard-response","161","342881","0.0-1.0-229.0","0","0","30677","","null","","","null","25","","NaN","","","","","","","","","","","","","",""
"","response","","html-keyboard-response","162","342906","0.0-1.0-230.0-0.0","0","0","30677","","22","","","75","25","","","1","25","training","adjacent","FG","6","7","N.jpg","L.jpg","1","1","1","",""
"","feedback","","html-keyboard-response","163","343911","0.0-1.0-231.0-0.0","0","0","30677","","null","","","null","25","","","","","","","","","","","","","","","",""
"","ITI","","html-keyboard-response","164","344976","0.0-1.0-234.0","0","0","30677","","61","","","75","25","","","","","","","","","","","","","","","k",""
"","S1","","html-keyboard-response","165","345240","0.0-1.0-236.0","0","0","30677","","null","","","null","26","","","","","","","","","","","","","","","",""
"","ISI","","html-keyboard-response","166","345741","0.0-1.0-237.0","0","0","30677","","null","","","null","26","NaN","","","","","","","","","","","","","","",""
"","S2","","html-keyboard-response","167","345996","0.0-1.0-238.0","0","0","30677","","null","","","null","26","","NaN","","","","","","","","","","","","","",""
"","response","","html-keyboard-response","168","346266","0.0-1.0-239.0-0.0","0","0","30677","","265","","","68","26","","","1","26","training","adjacent","GF","7","6","L.jpg","N.jpg","0","0","1","",""
"","feedback","","html-keyboard-response","169","347273","0.0-1.0-240.0-0.0","0","0","30677","","null","","","null","26","","","","","","","","","","","","","","","",""
"","ITI","","html-keyboard-response","170","348278","0.0-1.0-243.0","0","0","30677","","544","","","75","26","","","","","","","","","","","","","","","k",""
"","S1","","html-keyboard-response","171","348529","0.0-1.0-245.0","0","0","30677","","null","","","null","27","","","","","","","","","","","","","","","",""
"","ISI","","html-keyboard-response","172","349034","0.0-1.0-246.0","0","0","30677","","298","","","68","27","d","","","","","","","","","","","","","","",""
"","S2","","html-keyboard-response","173","349287","0.0-1.0-247.0","0","0","30677","","null","","","null","27","","NaN","","","","","","","","","","","","","",""
"","response","","html-keyboard-response","174","349574","0.0-1.0-248.0-0.0","0","0","30677","","286","","","75","27","","","1","27","training","adjacent","CB","3","2","M.jpg","P.jpg","1","0","0","",""
"","feedback","","html-keyboard-response","175","350584","0.0-1.0-249.0-0.0","0","0","30677","","null","","","null","27","","","","","","","","","","","","","","","",""
"","time_out","","html-keyboard-response","176","352589","0.0-1.0-251.0-0.0","0","0","30677","","null","","","null","27","","","","","","","","","","","","","","","",""
"","ITI","","html-keyboard-response","177","353592","0.0-1.0-252.0","0","0","30677","","51","","","75","27","","","","","","","","","","","","","","","k",""
"","S1","","html-keyboard-response","178","353845","0.0-1.0-254.0","0","0","30677","","null","","","null","28","","","","","","","","","","","","","","","",""
"","ISI","","html-keyboard-response","179","354346","0.0-1.0-255.0","0","0","30677","","84","","","68","28","d","","","","","","","","","","","","","","",""
"","S2","","html-keyboard-response","180","354595","0.0-1.0-256.0","0","0","30677","","247","","","75","28","","k","1","28","training","adjacent","DC","4","3","O.jpg","M.jpg","1","0","0","",""
"","feedback","","html-keyboard-response","181","355598","0.0-1.0-258.0-0.0","0","0","30677","","null","","","null","28","","","","","","","","","","","","","","","",""
"","time_out","","html-keyboard-response","182","357600","0.0-1.0-260.0-0.0","0","0","30677","","null","","","null","28","","","","","","","","","","","","","","","",""
"","ITI","","html-keyboard-response","183","358604","0.0-1.0-261.0","0","0","30677","","71","","","68","28","","","","","","","","","","","","","","","d",""
"","S1","","html-keyboard-response","184","358870","0.0-1.0-263.0","0","0","30677","","null","","","null","29","","","","","","","","","","","","","","","",""
"","ISI","","html-keyboard-response","185","359370","0.0-1.0-264.0","0","0","30677","","60","","","68","29","d","","","","","","","","","","","","","","",""
"","S2","","html-keyboard-response","186","359379","0.0-1.0-265.0","0","0","30677","","8","","","75","29","","k","1","29","training","adjacent","CB","3","2","M.jpg","P.jpg","1","0","0","",""
"","feedback","","html-keyboard-response","187","360380","0.0-1.0-267.0-0.0","0","0","30677","","null","","","null","29","","","","","","","","","","","","","","","",""
"","time_out","","html-keyboard-response","188","362382","0.0-1.0-269.0-0.0","0","0","30677","","null","","","null","29","","","","","","","","","","","","","","","",""
"","ITI","","html-keyboard-response","189","363388","0.0-1.0-270.0","0","0","30677","","830","","","75","29","","","","","","","","","","","","","","","k",""
"","S1","","html-keyboard-response","190","363643","0.0-1.0-272.0","0","0","30677","","null","","","null","30","","","","","","","","","","","","","","","",""
"","ISI","","html-keyboard-response","191","364152","0.0-1.0-273.0","0","0","30677","","192","","","75","30","k","","","","","","","","","","","","","","",""
"","S2","","html-keyboard-response","192","364405","0.0-1.0-274.0","0","0","30677","","null","","","null","30","","NaN","","","","","","","","","","","","","",""
"","response","","html-keyboard-response","193","365157","0.0-1.0-275.0-0.0","0","0","30677","","751","","","68","30","","","1","30","training","adjacent","CB","3","2","M.jpg","P.jpg","0","0","1","",""
"","feedback","","html-keyboard-response","194","366161","0.0-1.0-276.0-0.0","0","0","30677","","null","","","null","30","","","","","","","","","","","","","","","",""
"","ITI","","html-keyboard-response","195","367167","0.0-1.0-279.0","0","0","30677","","403","","","75","30","","","","","","","","","","","","","","","k",""
"","S1","","html-keyboard-response","196","367422","0.0-1.0-281.0","0","0","30677","","null","","","null","31","","","","","","","","","","","","","","","",""
"","ISI","","html-keyboard-response","197","367923","0.0-1.0-282.0","0","0","30677","","23","","","75","31","k","","","","","","","","","","","","","","",""
"","S2","","html-keyboard-response","198","368003","0.0-1.0-283.0","0","0","30677","","79","","","68","31","","d","1","31","training","adjacent","BC","2","3","P.jpg","M.jpg","0","1","0","",""
"","feedback","","html-keyboard-response","199","369004","0.0-1.0-285.0-0.0","0","0","30677","","null","","","null","31","","","","","","","","","","","","","","","",""
"","time_out","","html-keyboard-response","200","371010","0.0-1.0-287.0-0.0","0","0","30677","","null","","","null","31","","","","","","","","","","","","","","","",""
"","ITI","","html-keyboard-response","201","372012","0.0-1.0-288.0","0","0","30677","","5","","","75","31","","","","","","","","","","","","","","","k",""
"","S1","","html-keyboard-response","202","372263","0.0-1.0-290.0","0","0","30677","","null","","","null","32","","","","","","","","","","","","","","","",""
"","ISI","","html-keyboard-response","203","372773","0.0-1.0-291.0","0","0","30677","","null","","","null","32","NaN","","","","","","","","","","","","","","",""
"","S2","","html-keyboard-response","204","373025","0.0-1.0-292.0","0","0","30677","","null","","","null","32","","NaN","","","","","","","","","","","","","",""
"","response","","html-keyboard-response","205","373209","0.0-1.0-293.0-0.0","0","0","30677","","182","","","68","32","","","1","32","training","adjacent","BC","2","3","P.jpg","M.jpg","0","1","0","",""
"","feedback","","html-keyboard-response","206","374215","0.0-1.0-294.0-0.0","0","0","30677","","null","","","null","32","","","","","","","","","","","","","","","",""
"","time_out","","html-keyboard-response","207","376222","0.0-1.0-296.0-0.0","0","0","30677","","null","","","null","32","","","","","","","","","","","","","","","",""
"","ITI","","html-keyboard-response","208","377224","0.0-1.0-297.0","0","0","30677","","90","","","75","32","","","","","","","","","","","","","","","k",""
"","S1","","html-keyboard-response","209","377476","0.0-1.0-299.0","0","0","30677","","null","","","null","33","","","","","","","","","","","","","","","",""
"","ISI","","html-keyboard-response","210","377985","0.0-1.0-300.0","0","0","30677","","144","","","75","33","k","","","","","","","","","","","","","","",""
"","S2","","html-keyboard-response","211","378075","0.0-1.0-301.0","0","0","30677","","88","","","68","33","","d","1","33","training","adjacent","FG","6","7","N.jpg","L.jpg","0","1","0","",""
"","feedback","","html-keyboard-response","212","379209","0.0-1.0-303.0-0.0","0","0","30677","","null","","","null","33","","","","","","","","","","","","","","","",""
"","time_out","","html-keyboard-response","213","381209","0.0-1.0-305.0-0.0","0","0","30677","","null","","","null","33","","","","","","","","","","","","","","","",""
"","ITI","","html-keyboard-response","214","382211","0.0-1.0-306.0","0","0","30677","","110","","","75","33","","","","","","","","","","","","","","","k",""
"","S1","","html-keyboard-response","215","382468","0.0-1.0-308.0","0","0","30677","","null","","","null","34","","","","","","","","","","","","","","","",""
"","ISI","","html-keyboard-response","216","382979","0.0-1.0-309.0","0","0","30677","","327","","","75","34","k","","","","","","","","","","","","","","",""
"","S2","","html-keyboard-response","217","383128","0.0-1.0-310.0","0","0","30677","","140","","","75","34","","k","1","34","training","adjacent","AB","1","2","Q.jpg","P.jpg","1","1","1","",""
"","feedback","","html-keyboard-response","218","384129","0.0-1.0-312.0-0.0","0","0","30677","","null","","","null","34","","","","","","","","","","","","","","","",""
"","ITI","","html-keyboard-response","219","385129","0.0-1.0-315.0","0","0","30677","","67","","","68","34","","","","","","","","","","","","","","","d",""
"","S1","","html-keyboard-response","220","385384","0.0-1.0-317.0","0","0","30677","","null","","","null","35","","","","","","","","","","","","","","","",""
"","ISI","","html-keyboard-response","221","385886","0.0-1.0-318.0","0","0","30677","","137","","","68","35","d","","","","","","","","","","","","","","",""
"","S2","","html-keyboard-response","222","386051","0.0-1.0-319.0","0","0","30677","","164","","","68","35","","d","1","35","training","adjacent","AB","1","2","Q.jpg","P.jpg","0","1","0","",""
"","feedback","","html-keyboard-response","223","387056","0.0-1.0-321.0-0.0","0","0","30677","","null","","","null","35","","","","","","","","","","","","","","","",""
"","time_out","","html-keyboard-response","224","389062","0.0-1.0-323.0-0.0","0","0","30677","","null","","","null","35","","","","","","","","","","","","","","","",""
"","ITI","","html-keyboard-response","225","390066","0.0-1.0-324.0","0","0","30677","","95","","","75","35","","","","","","","","","","","","","","","k",""
"","S1","","html-keyboard-response","226","390318","0.0-1.0-326.0","0","0","30677","","null","","","null","36","","","","","","","","","","","","","","","",""
"","ISI","","html-keyboard-response","227","390823","0.0-1.0-327.0","0","0","30677","","45","","","75","36","k","","","","","","","","","","","","","","",""
"","S2","","html-keyboard-response","228","390928","0.0-1.0-328.0","0","0","30677","","103","","","68","36","","d","1","36","training","adjacent","DC","4","3","O.jpg","M.jpg","0","0","1","",""
"","feedback","","html-keyboard-response","229","391929","0.0-1.0-330.0-0.0","0","0","30677","","null","","","null","36","","","","","","","","","","","","","","","",""
"","ITI","","html-keyboard-response","230","392936","0.0-1.0-333.0","0","0","30677","","190","","","68","36","","","","","","","","","","","","","","","d",""
"","S1","","html-keyboard-response","231","393188","0.0-1.0-335.0","0","0","30677","","null","","","null","37","","","","","","","","","","","","","","","",""
"","ISI","","html-keyboard-response","232","393690","0.0-1.0-336.0","0","0","30677","","491","","","75","37","k","","","","","","","","","","","","","","",""
"","S2","","html-keyboard-response","233","393816","0.0-1.0-337.0","0","0","30677","","124","","","68","37","","d","1","37","training","adjacent","ED","5","4","R.jpg","O.jpg","0","0","1","",""
"","feedback","","html-keyboard-response","234","394834","0.0-1.0-339.0-0.0","0","0","30677","","null","","","null","37","","","","","","","","","","","","","","","",""
"","ITI","","html-keyboard-response","235","395837","0.0-1.0-342.0","0","0","30677","","163","","","75","37","","","","","","","","","","","","","","","k",""
"","S1","","html-keyboard-response","236","396089","0.0-1.0-344.0","0","0","30677","","null","","","null","38","","","","","","","","","","","","","","","",""
"","ISI","","html-keyboard-response","237","396592","0.0-1.0-345.0","0","0","30677","","108","","","68","38","d","","","","","","","","","","","","","","",""
"","S2","","html-keyboard-response","238","396682","0.0-1.0-346.0","0","0","30677","","89","","","68","38","","d","1","38","training","adjacent","CD","3","4","M.jpg","O.jpg","0","1","0","",""
"","feedback","","html-keyboard-response","239","397688","0.0-1.0-348.0-0.0","0","0","30677","","null","","","null","38","","","","","","","","","","","","","","","",""
"","time_out","","html-keyboard-response","240","399689","0.0-1.0-350.0-0.0","0","0","30677","","null","","","null","38","","","","","","","","","","","","","","","",""
"","ITI","","html-keyboard-response","241","400692","0.0-1.0-351.0","0","0","30677","","354","","","75","38","","","","","","","","","","","","","","","k",""
"","S1","","html-keyboard-response","242","400948","0.0-1.0-353.0","0","0","30677","","null","","","null","39","","","","","","","","","","","","","","","",""
"","ISI","","html-keyboard-response","243","401451","0.0-1.0-354.0","0","0","30677","","100","","","75","39","k","","","","","","","","","","","","","","",""
"","S2","","html-keyboard-response","244","401709","0.0-1.0-355.0","0","0","30677","","null","","","null","39","","NaN","","","","","","","","","","","","","",""
"","response","","html-keyboard-response","245","401890","0.0-1.0-356.0-0.0","0","0","30677","","177","","","75","39","","","1","39","training","adjacent","DE","4","5","O.jpg","R.jpg","1","1","1","",""
"","feedback","","html-keyboard-response","246","402905","0.0-1.0-357.0-0.0","0","0","30677","","null","","","null","39","","","","","","","","","","","","","","","",""
"","ITI","","html-keyboard-response","247","403911","0.0-1.0-360.0","0","0","30677","","82","","","75","39","","","","","","","","","","","","","","","k",""
"","S1","","html-keyboard-response","248","404164","0.0-1.0-362.0","0","0","30677","","null","","","null","40","","","","","","","","","","","","","","","",""
"","ISI","","html-keyboard-response","249","404670","0.0-1.0-363.0","0","0","30677","","null","","","null","40","NaN","","","","","","","","","","","","","","",""
"","S2","","html-keyboard-response","250","404898","0.0-1.0-364.0","0","0","30677","","226","","","75","40","","k","1","40","training","adjacent","ED","5","4","R.jpg","O.jpg","1","0","0","",""
"","feedback","","html-keyboard-response","251","405904","0.0-1.0-366.0-0.0","0","0","30677","","null","","","null","40","","","","","","","","","","","","","","","",""
"","time_out","","html-keyboard-response","252","407910","0.0-1.0-368.0-0.0","0","0","30677","","null","","","null","40","","","","","","","","","","","","","","","",""
"","ITI","","html-keyboard-response","253","408914","0.0-1.0-369.0","0","0","30677","","47","","","68","40","","","","","","","","","","","","","","","d",""
"","S1","","html-keyboard-response","254","409168","0.0-1.0-371.0","0","0","30677","","null","","","null","41","","","","","","","","","","","","","","","",""
"","ISI","","html-keyboard-response","255","409676","0.0-1.0-372.0","0","0","30677","","122","","","68","41","d","","","","","","","","","","","","","","",""
"","S2","","html-keyboard-response","256","409772","0.0-1.0-373.0","0","0","30677","","94","","","75","41","","k","1","41","training","adjacent","ED","5","4","R.jpg","O.jpg","1","0","0","",""
"","feedback","","html-keyboard-response","257","410772","0.0-1.0-375.0-0.0","0","0","30677","","null","","","null","41","","","","","","","","","","","","","","","",""
"","time_out","","html-keyboard-response","258","412805","0.0-1.0-377.0-0.0","0","0","30677","","null","","","null","41","","","","","","","","","","","","","","","",""
"","ITI","","html-keyboard-response","259","413810","0.0-1.0-378.0","0","0","30677","","202","","","75","41","","","","","","","","","","","","","","","k",""
"","S1","","html-keyboard-response","260","414068","0.0-1.0-380.0","0","0","30677","","null","","","null","42","","","","","","","","","","","","","","","",""
"","ISI","","html-keyboard-response","261","414575","0.0-1.0-381.0","0","0","30677","","24","","","68","42","d","","","","","","","","","","","","","","",""
"","S2","","html-keyboard-response","262","414589","0.0-1.0-382.0","0","0","30677","","11","","","75","42","","k","1","42","training","adjacent","GF","7","6","L.jpg","N.jpg","1","0","0","",""
"","feedback","","html-keyboard-response","263","415595","0.0-1.0-384.0-0.0","0","0","30677","","null","","","null","42","","","","","","","","","","","","","","","",""
"","time_out","","html-keyboard-response","264","417597","0.0-1.0-386.0-0.0","0","0","30677","","null","","","null","42","","","","","","","","","","","","","","","",""
"","ITI","","html-keyboard-response","265","418600","0.0-1.0-387.0","0","0","30677","","201","","","75","42","","","","","","","","","","","","","","","k",""
"","S1","","html-keyboard-response","266","418899","0.0-1.0-389.0","0","0","30677","","null","","","null","43","","","","","","","","","","","","","","","",""
"","ISI","","html-keyboard-response","267","419407","0.0-1.0-390.0","0","0","30677","","75","","","75","43","k","","","","","","","","","","","","","","",""
"","S2","","html-keyboard-response","268","419551","0.0-1.0-391.0","0","0","30677","","142","","","68","43","","d","1","43","training","adjacent","FE","6","5","N.jpg","R.jpg","0","0","1","",""
"","feedback","","html-keyboard-response","269","420558","0.0-1.0-393.0-0.0","0","0","30677","","null","","","null","43","","","","","","","","","","","","","","","",""
"","ITI","","html-keyboard-response","270","421560","0.0-1.0-396.0","0","0","30677","","129","","","68","43","","","","","","","","","","","","","","","d",""
"","S1","","html-keyboard-response","271","421818","0.0-1.0-398.0","0","0","30677","","null","","","null","44","","","","","","","","","","","","","","","",""
"","ISI","","html-keyboard-response","272","422324","0.0-1.0-399.0","0","0","30677","","63","","","75","44","k","","","","","","","","","","","","","","",""
"","S2","","html-keyboard-response","273","422361","0.0-1.0-400.0","0","0","30677","","30","","","75","44","","k","1","44","training","adjacent","FE","6","5","N.jpg","R.jpg","1","0","0","",""
"","feedback","","html-keyboard-response","274","423365","0.0-1.0-402.0-0.0","0","0","30677","","null","","","null","44","","","","","","","","","","","","","","","",""
"","time_out","","html-keyboard-response","275","425366","0.0-1.0-404.0-0.0","0","0","30677","","null","","","null","44","","","","","","","","","","","","","","","",""
"","ITI","","html-keyboard-response","276","426368","0.0-1.0-405.0","0","0","30677","","1","","","68","44","","","","","","","","","","","","","","","d",""
"","S1","","html-keyboard-response","277","426620","0.0-1.0-407.0","0","0","30677","","null","","","null","45","","","","","","","","","","","","","","","",""
"","ISI","","html-keyboard-response","278","427122","0.0-1.0-408.0","0","0","30677","","45","","","75","45","k","","","","","","","","","","","","","","",""
"","S2","","html-keyboard-response","279","427214","0.0-1.0-409.0","0","0","30677","","90","","","68","45","","d","1","45","training","adjacent","BC","2","3","P.jpg","M.jpg","0","1","0","",""
"","feedback","","html-keyboard-response","280","428217","0.0-1.0-411.0-0.0","0","0","30677","","null","","","null","45","","","","","","","","","","","","","","","",""
"","time_out","","html-keyboard-response","281","430220","0.0-1.0-413.0-0.0","0","0","30677","","null","","","null","45","","","","","","","","","","","","","","","",""
"","ITI","","html-keyboard-response","282","431223","0.0-1.0-414.0","0","0","30677","","69","","","75","45","","","","","","","","","","","","","","","k",""
"","S1","","html-keyboard-response","283","431477","0.0-1.0-416.0","0","0","30677","","null","","","null","46","","","","","","","","","","","","","","","",""
"","ISI","","html-keyboard-response","284","431980","0.0-1.0-417.0","0","0","30677","","195","","","75","46","k","","","","","","","","","","","","","","",""
"","S2","","html-keyboard-response","285","432040","0.0-1.0-418.0","0","0","30677","","59","","","75","46","","k","1","46","training","adjacent","EF","5","6","R.jpg","N.jpg","1","1","1","",""
"","feedback","","html-keyboard-response","286","433042","0.0-1.0-420.0-0.0","0","0","30677","","null","","","null","46","","","","","","","","","","","","","","","",""
"","ITI","","html-keyboard-response","287","434043","0.0-1.0-423.0","0","0","30677","","1","","","68","46","","","","","","","","","","","","","","","d",""
"","S1","","html-keyboard-response","288","434295","0.0-1.0-425.0","0","0","30677","","null","","","null","47","","","","","","","","","","","","","","","",""
"","ISI","","html-keyboard-response","289","434824","0.0-1.0-426.0","0","0","30677","","180","","","68","47","d","","","","","","","","","","","","","","",""
"","S2","","html-keyboard-response","290","434872","0.0-1.0-427.0","0","0","30677","","46","","","68","47","","d","1","47","training","adjacent","FG","6","7","N.jpg","L.jpg","0","1","0","",""
"","feedback","","html-keyboard-response","291","435877","0.0-1.0-429.0-0.0","0","0","30677","","null","","","null","47","","","","","","","","","","","","","","","",""
"","time_out","","html-keyboard-response","292","437879","0.0-1.0-431.0-0.0","0","0","30677","","null","","","null","47","","","","","","","","","","","","","","","",""
"","ITI","","html-keyboard-response","293","438942","0.0-1.0-432.0","0","0","30677","","202","","","68","47","","","","","","","","","","","","","","","d",""
"","block_over","","html-keyboard-response","294","1050376","0.0-1.0-433.0-0.0","0","0","30677","","611430","","","32","47","","","","","","","","","","","","","","","",""
"","S1","","html-keyboard-response","295","1050629","0.0-1.0-434.0","0","0","30677","","null","","","null","48","","","","","","","","","","","","","","","",""
"","ISI","","html-keyboard-response","296","1051163","0.0-1.0-435.0","0","0","30677","","null","","","null","48","NaN","","","","","","","","","","","","","","",""
"","S2","","html-keyboard-response","297","1051417","0.0-1.0-436.0","0","0","30677","","null","","","null","48","","NaN","","","","","","","","","","","","","",""
"","response","","html-keyboard-response","298","1053170","0.0-1.0-437.0-0.0","0","0","30677","","null","","","null","48","","","2","48","training","adjacent","DC","4","3","O.jpg","M.jpg","NaN","0","0","",""
"","too_slow_prompt","","html-keyboard-response","299","1054171","0.0-1.0-439.0-0.0","1","0","30677","","null","","","null","","","","","","","","","","","","","","","","",""
"","time_out","","html-keyboard-response","300","1056173","0.0-1.0-440.0-0.0","0","0","30677","","null","","","null","48","","","","","","","","","","","","","","","",""
"","ITI","","html-keyboard-response","301","1057181","0.0-1.0-441.0","0","0","30677","","103","","","75","48","","","","","","","","","","","","","","","k",""
"","S1","","html-keyboard-response","302","1057433","0.0-1.0-443.0","0","0","30677","","null","","","null","49","","","","","","","","","","","","","","","",""
"","ISI","","html-keyboard-response","303","1057938","0.0-1.0-444.0","0","0","30677","","37","","","68","49","d","","","","","","","","","","","","","","",""
"","S2","","html-keyboard-response","304","1057955","0.0-1.0-445.0","0","0","30677","","16","","","75","49","","k","2","49","training","adjacent","FE","6","5","N.jpg","R.jpg","1","0","0","",""
"","feedback","","html-keyboard-response","305","1058965","0.0-1.0-447.0-0.0","0","0","30677","","null","","","null","49","","","","","","","","","","","","","","","",""
"","time_out","","html-keyboard-response","306","1060967","0.0-1.0-449.0-0.0","0","0","30677","","null","","","null","49","","","","","","","","","","","","","","","",""
"","ITI","","html-keyboard-response","307","1061971","0.0-1.0-450.0","0","0","30677","","90","","","68","49","","","","","","","","","","","","","","","d",""
"","S1","","html-keyboard-response","308","1062222","0.0-1.0-452.0","0","0","30677","","null","","","null","50","","","","","","","","","","","","","","","",""
"","ISI","","html-keyboard-response","309","1062727","0.0-1.0-453.0","0","0","30677","","67","","","68","50","d","","","","","","","","","","","","","","",""
"","S2","","html-keyboard-response","310","1062998","0.0-1.0-454.0","0","0","30677","","null","","","null","50","","NaN","","","","","","","","","","","","","",""
"","response","","html-keyboard-response","311","1063017","0.0-1.0-455.0-0.0","0","0","30677","","15","","","75","50","","","2","50","training","adjacent","BA","2","1","P.jpg","Q.jpg","1","0","0","",""
"","feedback","","html-keyboard-response","312","1064023","0.0-1.0-456.0-0.0","0","0","30677","","null","","","null","50","","","","","","","","","","","","","","","",""
"","time_out","","html-keyboard-response","313","1066030","0.0-1.0-458.0-0.0","0","0","30677","","null","","","null","50","","","","","","","","","","","","","","","",""
"","ITI","","html-keyboard-response","314","1067031","0.0-1.0-459.0","0","0","30677","","422","","","75","50","","","","","","","","","","","","","","","k",""
"","S1","","html-keyboard-response","315","1067284","0.0-1.0-461.0","0","0","30677","","null","","","null","51","","","","","","","","","","","","","","","",""
"","ISI","","html-keyboard-response","316","1067786","0.0-1.0-462.0","0","0","30677","","144","","","68","51","d","","","","","","","","","","","","","","",""
"","S2","","html-keyboard-response","317","1067997","0.0-1.0-463.0","0","0","30677","","209","","","75","51","","k","2","51","training","adjacent","GF","7","6","L.jpg","N.jpg","1","0","0","",""
"","feedback","","html-keyboard-response","318","1068999","0.0-1.0-465.0-0.0","0","0","30677","","null","","","null","51","","","","","","","","","","","","","","","",""
"","time_out","","html-keyboard-response","319","1071002","0.0-1.0-467.0-0.0","0","0","30677","","null","","","null","51","","","","","","","","","","","","","","","",""
"","ITI","","html-keyboard-response","320","1072006","0.0-1.0-468.0","0","0","30677","","19","","","68","51","","","","","","","","","","","","","","","d",""
"","S1","","html-keyboard-response","321","1072259","0.0-1.0-470.0","0","0","30677","","null","","","null","52","","","","","","","","","","","","","","","",""
"","ISI","","html-keyboard-response","322","1072761","0.0-1.0-471.0","0","0","30677","","132","","","68","52","d","","","","","","","","","","","","","","",""
"","S2","","html-keyboard-response","323","1072936","0.0-1.0-472.0","0","0","30677","","172","","","68","52","","d","2","52","training","adjacent","ED","5","4","R.jpg","O.jpg","0","0","1","",""
"","feedback","","html-keyboard-response","324","1073939","0.0-1.0-474.0-0.0","0","0","30677","","null","","","null","52","","","","","","","","","","","","","","","",""
"","ITI","","html-keyboard-response","325","1074943","0.0-1.0-477.0","0","0","30677","","26","","","68","52","","","","","","","","","","","","","","","d",""
"","S1","","html-keyboard-response","326","1075200","0.0-1.0-479.0","0","0","30677","","null","","","null","53","","","","","","","","","","","","","","","",""
"","ISI","","html-keyboard-response","327","1075709","0.0-1.0-480.0","0","0","30677","","195","","","68","53","d","","","","","","","","","","","","","","",""
"","S2","","html-keyboard-response","328","1075964","0.0-1.0-481.0","0","0","30677","","null","","","null","53","","NaN","","","","","","","","","","","","","",""
"","response","","html-keyboard-response","329","1076129","0.0-1.0-482.0-0.0","0","0","30677","","163","","","68","53","","","2","53","training","adjacent","CB","3","2","M.jpg","P.jpg","0","0","1","",""
"","feedback","","html-keyboard-response","330","1077133","0.0-1.0-483.0-0.0","0","0","30677","","null","","","null","53","","","","","","","","","","","","","","","",""
"","ITI","","html-keyboard-response","331","1078134","0.0-1.0-486.0","0","0","30677","","6","","","75","53","","","","","","","","","","","","","","","k",""
"","S1","","html-keyboard-response","332","1078387","0.0-1.0-488.0","0","0","30677","","null","","","null","54","","","","","","","","","","","","","","","",""
"","ISI","","html-keyboard-response","333","1078917","0.0-1.0-489.0","0","0","30677","","210","","","68","54","d","","","","","","","","","","","","","","",""
"","S2","","html-keyboard-response","334","1079185","0.0-1.0-490.0","0","0","30677","","null","","","null","54","","NaN","","","","","","","","","","","","","",""
"","response","","html-keyboard-response","335","1079413","0.0-1.0-491.0-0.0","0","0","30677","","225","","","75","54","","","2","54","training","adjacent","FG","6","7","N.jpg","L.jpg","1","1","1","",""
"","feedback","","html-keyboard-response","336","1080417","0.0-1.0-492.0-0.0","0","0","30677","","null","","","null","54","","","","","","","","","","","","","","","",""
"","ITI","","html-keyboard-response","337","1081420","0.0-1.0-495.0","0","0","30677","","476","","","68","54","","","","","","","","","","","","","","","d",""
"","S1","","html-keyboard-response","338","1081670","0.0-1.0-497.0","0","0","30677","","null","","","null","55","","","","","","","","","","","","","","","",""
"","ISI","","html-keyboard-response","339","1082175","0.0-1.0-498.0","0","0","30677","","260","","","75","55","k","","","","","","","","","","","","","","",""
"","S2","","html-keyboard-response","340","1082429","0.0-1.0-499.0","0","0","30677","","null","","","null","55","","NaN","","","","","","","","","","","","","",""
"","response","","html-keyboard-response","341","1082659","0.0-1.0-500.0-0.0","0","0","30677","","229","","","75","55","","","2","55","training","adjacent","DC","4","3","O.jpg","M.jpg","1","0","0","",""
"","feedback","","html-keyboard-response","342","1083664","0.0-1.0-501.0-0.0","0","0","30677","","null","","","null","55","","","","","","","","","","","","","","","",""
"","time_out","","html-keyboard-response","343","1085666","0.0-1.0-503.0-0.0","0","0","30677","","null","","","null","55","","","","","","","","","","","","","","","",""
"","ITI","","html-keyboard-response","344","1086671","0.0-1.0-504.0","0","0","30677","","111","","","68","55","","","","","","","","","","","","","","","d",""
"","S1","","html-keyboard-response","345","1086931","0.0-1.0-506.0","0","0","30677","","null","","","null","56","","","","","","","","","","","","","","","",""
"","ISI","","html-keyboard-response","346","1087433","0.0-1.0-507.0","0","0","30677","","159","","","68","56","d","","","","","","","","","","","","","","",""
"","S2","","html-keyboard-response","347","1087662","0.0-1.0-508.0","0","0","30677","","228","","","68","56","","d","2","56","training","adjacent","CD","3","4","M.jpg","O.jpg","0","1","0","",""
"","feedback","","html-keyboard-response","348","1088663","0.0-1.0-510.0-0.0","0","0","30677","","null","","","null","56","","","","","","","","","","","","","","","",""
"","time_out","","html-keyboard-response","349","1090667","0.0-1.0-512.0-0.0","0","0","30677","","null","","","null","56","","","","","","","","","","","","","","","",""
"","ITI","","html-keyboard-response","350","1091678","0.0-1.0-513.0","0","0","30677","","326","","","68","56","","","","","","","","","","","","","","","d",""
"","S1","","html-keyboard-response","351","1091931","0.0-1.0-515.0","0","0","30677","","null","","","null","57","","","","","","","","","","","","","","","",""
"","ISI","","html-keyboard-response","352","1092435","0.0-1.0-516.0","0","0","30677","","138","","","68","57","d","","","","","","","","","","","","","","",""
"","S2","","html-keyboard-response","353","1092453","0.0-1.0-517.0","0","0","30677","","16","","","68","57","","d","2","57","training","adjacent","EF","5","6","R.jpg","N.jpg","0","1","0","",""
"","feedback","","html-keyboard-response","354","1093454","0.0-1.0-519.0-0.0","0","0","30677","","null","","","null","57","","","","","","","","","","","","","","","",""
"","time_out","","html-keyboard-response","355","1095458","0.0-1.0-521.0-0.0","0","0","30677","","null","","","null","57","","","","","","","","","","","","","","","",""
"","ITI","","html-keyboard-response","356","1096463","0.0-1.0-522.0","0","0","30677","","164","","","68","57","","","","","","","","","","","","","","","d",""
"","S1","","html-keyboard-response","357","1096720","0.0-1.0-524.0","0","0","30677","","null","","","null","58","","","","","","","","","","","","","","","",""
"","ISI","","html-keyboard-response","358","1097226","0.0-1.0-525.0","0","0","30677","","198","","","68","58","d","","","","","","","","","","","","","","",""
"","S2","","html-keyboard-response","359","1097420","0.0-1.0-526.0","0","0","30677","","192","","","68","58","","d","2","58","training","adjacent","DC","4","3","O.jpg","M.jpg","0","0","1","",""
"","feedback","","html-keyboard-response","360","1098422","0.0-1.0-528.0-0.0","0","0","30677","","null","","","null","58","","","","","","","","","","","","","","","",""
"","ITI","","html-keyboard-response","361","1099424","0.0-1.0-531.0","0","0","30677","","69","","","75","58","","","","","","","","","","","","","","","k",""
"","S1","","html-keyboard-response","362","1099675","0.0-1.0-533.0","0","0","30677","","null","","","null","59","","","","","","","","","","","","","","","",""
"","ISI","","html-keyboard-response","363","1100181","0.0-1.0-534.0","0","0","30677","","120","","","75","59","k","","","","","","","","","","","","","","",""
"","S2","","html-keyboard-response","364","1100317","0.0-1.0-535.0","0","0","30677","","135","","","75","59","","k","2","59","training","adjacent","BA","2","1","P.jpg","Q.jpg","1","0","0","",""
"","feedback","","html-keyboard-response","365","1101320","0.0-1.0-537.0-0.0","0","0","30677","","null","","","null","59","","","","","","","","","","","","","","","",""
"","time_out","","html-keyboard-response","366","1103324","0.0-1.0-539.0-0.0","0","0","30677","","null","","","null","59","","","","","","","","","","","","","","","",""
"","ITI","","html-keyboard-response","367","1104328","0.0-1.0-540.0","0","0","30677","","214","","","68","59","","","","","","","","","","","","","","","d",""
"","S1","","html-keyboard-response","368","1104578","0.0-1.0-542.0","0","0","30677","","null","","","null","60","","","","","","","","","","","","","","","",""
"","ISI","","html-keyboard-response","369","1105079","0.0-1.0-543.0","0","0","30677","","170","","","75","60","k","","","","","","","","","","","","","","",""
"","S2","","html-keyboard-response","370","1105280","0.0-1.0-544.0","0","0","30677","","198","","","68","60","","d","2","60","training","adjacent","BA","2","1","P.jpg","Q.jpg","0","0","1","",""
"","feedback","","html-keyboard-response","371","1106285","0.0-1.0-546.0-0.0","0","0","30677","","null","","","null","60","","","","","","","","","","","","","","","",""
"","ITI","","html-keyboard-response","372","1107288","0.0-1.0-549.0","0","0","30677","","8","","","68","60","","","","","","","","","","","","","","","d",""
"","S1","","html-keyboard-response","373","1107540","0.0-1.0-551.0","0","0","30677","","null","","","null","61","","","","","","","","","","","","","","","",""
"","ISI","","html-keyboard-response","374","1108041","0.0-1.0-552.0","0","0","30677","","71","","","75","61","k","","","","","","","","","","","","","","",""
"","S2","","html-keyboard-response","375","1108068","0.0-1.0-553.0","0","0","30677","","25","","","75","61","","k","2","61","training","adjacent","BC","2","3","P.jpg","M.jpg","1","1","1","",""
"","feedback","","html-keyboard-response","376","1109071","0.0-1.0-555.0-0.0","0","0","30677","","null","","","null","61","","","","","","","","","","","","","","","",""
"","ITI","","html-keyboard-response","377","1110074","0.0-1.0-558.0","0","0","30677","","66","","","68","61","","","","","","","","","","","","","","","d",""
"","S1","","html-keyboard-response","378","1110327","0.0-1.0-560.0","0","0","30677","","null","","","null","62","","","","","","","","","","","","","","","",""
"","ISI","","html-keyboard-response","379","1110838","0.0-1.0-561.0","0","0","30677","","315","","","68","62","d","","","","","","","","","","","","","","",""
"","S2","","html-keyboard-response","380","1111091","0.0-1.0-562.0","0","0","30677","","null","","","null","62","","NaN","","","","","","","","","","","","","",""
"","response","","html-keyboard-response","381","1111378","0.0-1.0-563.0-0.0","0","0","30677","","286","","","68","62","","","2","62","training","adjacent","AB","1","2","Q.jpg","P.jpg","0","1","0","",""
"","feedback","","html-keyboard-response","382","1112384","0.0-1.0-564.0-0.0","0","0","30677","","null","","","null","62","","","","","","","","","","","","","","","",""
"","time_out","","html-keyboard-response","383","1114391","0.0-1.0-566.0-0.0","0","0","30677","","null","","","null","62","","","","","","","","","","","","","","","",""
"","ITI","","html-keyboard-response","384","1115395","0.0-1.0-567.0","0","0","30677","","306","","","68","62","","","","","","","","","","","","","","","d",""
"","S1","","html-keyboard-response","385","1115650","0.0-1.0-569.0","0","0","30677","","null","","","null","63","","","","","","","","","","","","","","","",""
"","ISI","","html-keyboard-response","386","1116156","0.0-1.0-570.0","0","0","30677","","183","","","68","63","d","","","","","","","","","","","","","","",""
"","S2","","html-keyboard-response","387","1116382","0.0-1.0-571.0","0","0","30677","","224","","","68","63","","d","2","63","training","adjacent","BC","2","3","P.jpg","M.jpg","0","1","0","",""
"","feedback","","html-keyboard-response","388","1117388","0.0-1.0-573.0-0.0","0","0","30677","","null","","","null","63","","","","","","","","","","","","","","","",""
"","time_out","","html-keyboard-response","389","1119388","0.0-1.0-575.0-0.0","0","0","30677","","null","","","null","63","","","","","","","","","","","","","","","",""
"","ITI","","html-keyboard-response","390","1120396","0.0-1.0-576.0","0","0","30677","","227","","","75","63","","","","","","","","","","","","","","","k",""
"","S1","","html-keyboard-response","391","1120651","0.0-1.0-578.0","0","0","30677","","null","","","null","64","","","","","","","","","","","","","","","",""
"","ISI","","html-keyboard-response","392","1121157","0.0-1.0-579.0","0","0","30677","","109","","","68","64","d","","","","","","","","","","","","","","",""
"","S2","","html-keyboard-response","393","1121266","0.0-1.0-580.0","0","0","30677","","106","","","75","64","","k","2","64","training","adjacent","DE","4","5","O.jpg","R.jpg","1","1","1","",""
"","feedback","","html-keyboard-response","394","1122267","0.0-1.0-582.0-0.0","0","0","30677","","null","","","null","64","","","","","","","","","","","","","","","",""
"","ITI","","html-keyboard-response","395","1123270","0.0-1.0-585.0","0","0","30677","","224","","","68","64","","","","","","","","","","","","","","","d",""
"","S1","","html-keyboard-response","396","1123527","0.0-1.0-587.0","0","0","30677","","null","","","null","65","","","","","","","","","","","","","","","",""
"","ISI","","html-keyboard-response","397","1124030","0.0-1.0-588.0","0","0","30677","","180","","","68","65","d","","","","","","","","","","","","","","",""
"","S2","","html-keyboard-response","398","1124283","0.0-1.0-589.0","0","0","30677","","null","","","null","65","","NaN","","","","","","","","","","","","","",""
"","response","","html-keyboard-response","399","1124318","0.0-1.0-590.0-0.0","0","0","30677","","33","","","75","65","","","2","65","training","adjacent","EF","5","6","R.jpg","N.jpg","1","1","1","",""
"","feedback","","html-keyboard-response","400","1125324","0.0-1.0-591.0-0.0","0","0","30677","","null","","","null","65","","","","","","","","","","","","","","","",""
"","ITI","","html-keyboard-response","401","1126328","0.0-1.0-594.0","0","0","30677","","189","","","75","65","","","","","","","","","","","","","","","k",""
"","S1","","html-keyboard-response","402","1126581","0.0-1.0-596.0","0","0","30677","","null","","","null","66","","","","","","","","","","","","","","","",""
"","ISI","","html-keyboard-response","403","1127083","0.0-1.0-597.0","0","0","30677","","13","","","68","66","d","","","","","","","","","","","","","","",""
"","S2","","html-keyboard-response","404","1127303","0.0-1.0-598.0","0","0","30677","","218","","","75","66","","k","2","66","training","adjacent","FE","6","5","N.jpg","R.jpg","1","0","0","",""
"","feedback","","html-keyboard-response","405","1128306","0.0-1.0-600.0-0.0","0","0","30677","","null","","","null","66","","","","","","","","","","","","","","","",""
"","time_out","","html-keyboard-response","406","1130306","0.0-1.0-602.0-0.0","0","0","30677","","null","","","null","66","","","","","","","","","","","","","","","",""
"","ITI","","html-keyboard-response","407","1131309","0.0-1.0-603.0","0","0","30677","","232","","","68","66","","","","","","","","","","","","","","","d",""
"","S1","","html-keyboard-response","408","1131577","0.0-1.0-605.0","0","0","30677","","null","","","null","67","","","","","","","","","","","","","","","",""
"","ISI","","html-keyboard-response","409","1132085","0.0-1.0-606.0","0","0","30677","","418","","","68","67","d","","","","","","","","","","","","","","",""
"","S2","","html-keyboard-response","410","1132092","0.0-1.0-607.0","0","0","30677","","6","","","75","67","","k","2","67","training","adjacent","CB","3","2","M.jpg","P.jpg","1","0","0","",""
"","feedback","","html-keyboard-response","411","1133094","0.0-1.0-609.0-0.0","0","0","30677","","null","","","null","67","","","","","","","","","","","","","","","",""
"","time_out","","html-keyboard-response","412","1135096","0.0-1.0-611.0-0.0","0","0","30677","","null","","","null","67","","","","","","","","","","","","","","","",""
"","ITI","","html-keyboard-response","413","1136097","0.0-1.0-612.0","0","0","30677","","117","","","68","67","","","","","","","","","","","","","","","d",""
"","S1","","html-keyboard-response","414","1136351","0.0-1.0-614.0","0","0","30677","","null","","","null","68","","","","","","","","","","","","","","","",""
"","ISI","","html-keyboard-response","415","1136881","0.0-1.0-615.0","0","0","30677","","310","","","75","68","k","","","","","","","","","","","","","","",""
"","S2","","html-keyboard-response","416","1137016","0.0-1.0-616.0","0","0","30677","","131","","","68","68","","d","2","68","training","adjacent","CD","3","4","M.jpg","O.jpg","0","1","0","",""
"","feedback","","html-keyboard-response","417","1138018","0.0-1.0-618.0-0.0","0","0","30677","","null","","","null","68","","","","","","","","","","","","","","","",""
"","time_out","","html-keyboard-response","418","1140020","0.0-1.0-620.0-0.0","0","0","30677","","null","","","null","68","","","","","","","","","","","","","","","",""
"","ITI","","html-keyboard-response","419","1141023","0.0-1.0-621.0","0","0","30677","","352","","","68","68","","","","","","","","","","","","","","","d",""
"","S1","","html-keyboard-response","420","1141276","0.0-1.0-623.0","0","0","30677","","null","","","null","69","","","","","","","","","","","","","","","",""
"","ISI","","html-keyboard-response","421","1141777","0.0-1.0-624.0","0","0","30677","","75","","","75","69","k","","","","","","","","","","","","","","",""
"","S2","","html-keyboard-response","422","1142030","0.0-1.0-625.0","0","0","30677","","null","","","null","69","","NaN","","","","","","","","","","","","","",""
"","response","","html-keyboard-response","423","1142654","0.0-1.0-626.0-0.0","0","0","30677","","622","","","68","69","","","2","69","training","adjacent","GF","7","6","L.jpg","N.jpg","0","0","1","",""
"","feedback","","html-keyboard-response","424","1143657","0.0-1.0-627.0-0.0","0","0","30677","","null","","","null","69","","","","","","","","","","","","","","","",""
"","ITI","","html-keyboard-response","425","1144663","0.0-1.0-630.0","0","0","30677","","84","","","75","69","","","","","","","","","","","","","","","k",""
"","S1","","html-keyboard-response","426","1144916","0.0-1.0-632.0","0","0","30677","","null","","","null","70","","","","","","","","","","","","","","","",""
"","ISI","","html-keyboard-response","427","1145423","0.0-1.0-633.0","0","0","30677","","386","","","75","70","k","","","","","","","","","","","","","","",""
"","S2","","html-keyboard-response","428","1145485","0.0-1.0-634.0","0","0","30677","","61","","","68","70","","d","2","70","training","adjacent","FG","6","7","N.jpg","L.jpg","0","1","0","",""
"","feedback","","html-keyboard-response","429","1146486","0.0-1.0-636.0-0.0","0","0","30677","","null","","","null","70","","","","","","","","","","","","","","","",""
"","time_out","","html-keyboard-response","430","1148495","0.0-1.0-638.0-0.0","0","0","30677","","null","","","null","70","","","","","","","","","","","","","","","",""
"","ITI","","html-keyboard-response","431","1149502","0.0-1.0-639.0","0","0","30677","","172","","","68","70","","","","","","","","","","","","","","","d",""
"","S1","","html-keyboard-response","432","1149753","0.0-1.0-641.0","0","0","30677","","null","","","null","71","","","","","","","","","","","","","","","",""
"","ISI","","html-keyboard-response","433","1150263","0.0-1.0-642.0","0","0","30677","","123","","","68","71","d","","","","","","","","","","","","","","",""
"","S2","","html-keyboard-response","434","1150423","0.0-1.0-643.0","0","0","30677","","159","","","68","71","","d","2","71","training","adjacent","BC","2","3","P.jpg","M.jpg","0","1","0","",""
"","feedback","","html-keyboard-response","435","1151429","0.0-1.0-645.0-0.0","0","0","30677","","null","","","null","71","","","","","","","","","","","","","","","",""
"","time_out","","html-keyboard-response","436","1153430","0.0-1.0-647.0-0.0","0","0","30677","","null","","","null","71","","","","","","","","","","","","","","","",""
"","ITI","","html-keyboard-response","437","1154432","0.0-1.0-648.0","0","0","30677","","382","","","68","71","","","","","","","","","","","","","","","d",""
"","S1","","html-keyboard-response","438","1154683","0.0-1.0-650.0","0","0","30677","","null","","","null","72","","","","","","","","","","","","","","","",""
"","ISI","","html-keyboard-response","439","1155184","0.0-1.0-651.0","0","0","30677","","337","","","68","72","d","","","","","","","","","","","","","","",""
"","S2","","html-keyboard-response","440","1155377","0.0-1.0-652.0","0","0","30677","","191","","","75","72","","k","2","72","training","adjacent","FE","6","5","N.jpg","R.jpg","1","0","0","",""
"","feedback","","html-keyboard-response","441","1156378","0.0-1.0-654.0-0.0","0","0","30677","","null","","","null","72","","","","","","","","","","","","","","","",""
"","time_out","","html-keyboard-response","442","1158380","0.0-1.0-656.0-0.0","0","0","30677","","null","","","null","72","","","","","","","","","","","","","","","",""
"","ITI","","html-keyboard-response","443","1159384","0.0-1.0-657.0","0","0","30677","","597","","","68","72","","","","","","","","","","","","","","","d",""
"","S1","","html-keyboard-response","444","1159636","0.0-1.0-659.0","0","0","30677","","null","","","null","73","","","","","","","","","","","","","","","",""
"","ISI","","html-keyboard-response","445","1160137","0.0-1.0-660.0","0","0","30677","","257","","","75","73","k","","","","","","","","","","","","","","",""
"","S2","","html-keyboard-response","446","1160198","0.0-1.0-661.0","0","0","30677","","59","","","68","73","","d","2","73","training","adjacent","GF","7","6","L.jpg","N.jpg","0","0","1","",""
"","feedback","","html-keyboard-response","447","1161206","0.0-1.0-663.0-0.0","0","0","30677","","null","","","null","73","","","","","","","","","","","","","","","",""
"","ITI","","html-keyboard-response","448","1162209","0.0-1.0-666.0","0","0","30677","","74","","","68","73","","","","","","","","","","","","","","","d",""
"","S1","","html-keyboard-response","449","1162461","0.0-1.0-668.0","0","0","30677","","null","","","null","74","","","","","","","","","","","","","","","",""
"","ISI","","html-keyboard-response","450","1162965","0.0-1.0-669.0","0","0","30677","","5","","","75","74","k","","","","","","","","","","","","","","",""
"","S2","","html-keyboard-response","451","1163056","0.0-1.0-670.0","0","0","30677","","89","","","75","74","","k","2","74","training","adjacent","BA","2","1","P.jpg","Q.jpg","1","0","0","",""
"","feedback","","html-keyboard-response","452","1164062","0.0-1.0-672.0-0.0","0","0","30677","","null","","","null","74","","","","","","","","","","","","","","","",""
"","time_out","","html-keyboard-response","453","1166065","0.0-1.0-674.0-0.0","0","0","30677","","null","","","null","74","","","","","","","","","","","","","","","",""
"","ITI","","html-keyboard-response","454","1167075","0.0-1.0-675.0","0","0","30677","","182","","","68","74","","","","","","","","","","","","","","","d",""
"","S1","","html-keyboard-response","455","1167340","0.0-1.0-677.0","0","0","30677","","null","","","null","75","","","","","","","","","","","","","","","",""
"","ISI","","html-keyboard-response","456","1167843","0.0-1.0-678.0","0","0","30677","","32","","","68","75","d","","","","","","","","","","","","","","",""
"","S2","","html-keyboard-response","457","1168096","0.0-1.0-679.0","0","0","30677","","null","","","null","75","","NaN","","","","","","","","","","","","","",""
"","response","","html-keyboard-response","458","1168338","0.0-1.0-680.0-0.0","0","0","30677","","241","","","68","75","","","2","75","training","adjacent","DE","4","5","O.jpg","R.jpg","0","1","0","",""
"","feedback","","html-keyboard-response","459","1169341","0.0-1.0-681.0-0.0","0","0","30677","","null","","","null","75","","","","","","","","","","","","","","","",""
"","time_out","","html-keyboard-response","460","1171341","0.0-1.0-683.0-0.0","0","0","30677","","null","","","null","75","","","","","","","","","","","","","","","",""
"","ITI","","html-keyboard-response","461","1172342","0.0-1.0-684.0","0","0","30677","","114","","","75","75","","","","","","","","","","","","","","","k",""
"","S1","","html-keyboard-response","462","1172602","0.0-1.0-686.0","0","0","30677","","null","","","null","76","","","","","","","","","","","","","","","",""
"","ISI","","html-keyboard-response","463","1173102","0.0-1.0-687.0","0","0","30677","","239","","","68","76","d","","","","","","","","","","","","","","",""
"","S2","","html-keyboard-response","464","1173269","0.0-1.0-688.0","0","0","30677","","166","","","68","76","","d","2","76","training","adjacent","FE","6","5","N.jpg","R.jpg","0","0","1","",""
"","feedback","","html-keyboard-response","465","1174275","0.0-1.0-690.0-0.0","0","0","30677","","null","","","null","76","","","","","","","","","","","","","","","",""
"","ITI","","html-keyboard-response","466","1175275","0.0-1.0-693.0","0","0","30677","","38","","","75","76","","","","","","","","","","","","","","","k",""
"","S1","","html-keyboard-response","467","1175529","0.0-1.0-695.0","0","0","30677","","null","","","null","77","","","","","","","","","","","","","","","",""
"","ISI","","html-keyboard-response","468","1176032","0.0-1.0-696.0","0","0","30677","","121","","","68","77","d","","","","","","","","","","","","","","",""
"","S2","","html-keyboard-response","469","1176259","0.0-1.0-697.0","0","0","30677","","224","","","75","77","","k","2","77","training","adjacent","CD","3","4","M.jpg","O.jpg","1","1","1","",""
"","feedback","","html-keyboard-response","470","1177266","0.0-1.0-699.0-0.0","0","0","30677","","null","","","null","77","","","","","","","","","","","","","","","",""
"","ITI","","html-keyboard-response","471","1178272","0.0-1.0-702.0","0","0","30677","","305","","","75","77","","","","","","","","","","","","","","","k",""
"","S1","","html-keyboard-response","472","1178527","0.0-1.0-704.0","0","0","30677","","null","","","null","78","","","","","","","","","","","","","","","",""
"","ISI","","html-keyboard-response","473","1179032","0.0-1.0-705.0","0","0","30677","","230","","","68","78","d","","","","","","","","","","","","","","",""
"","S2","","html-keyboard-response","474","1179282","0.0-1.0-706.0","0","0","30677","","null","","","null","78","","NaN","","","","","","","","","","","","","",""
"","response","","html-keyboard-response","475","1179377","0.0-1.0-707.0-0.0","0","0","30677","","93","","","75","78","","","2","78","training","adjacent","DC","4","3","O.jpg","M.jpg","1","0","0","",""
"","feedback","","html-keyboard-response","476","1180379","0.0-1.0-708.0-0.0","0","0","30677","","null","","","null","78","","","","","","","","","","","","","","","",""
"","time_out","","html-keyboard-response","477","1182382","0.0-1.0-710.0-0.0","0","0","30677","","null","","","null","78","","","","","","","","","","","","","","","",""
"","ITI","","html-keyboard-response","478","1183388","0.0-1.0-711.0","0","0","30677","","505","","","75","78","","","","","","","","","","","","","","","k",""
"","S1","","html-keyboard-response","479","1183639","0.0-1.0-713.0","0","0","30677","","null","","","null","79","","","","","","","","","","","","","","","",""
"","ISI","","html-keyboard-response","480","1184141","0.0-1.0-714.0","0","0","30677","","62","","","68","79","d","","","","","","","","","","","","","","",""
"","S2","","html-keyboard-response","481","1184178","0.0-1.0-715.0","0","0","30677","","36","","","68","79","","d","2","79","training","adjacent","FG","6","7","N.jpg","L.jpg","0","1","0","",""
"","feedback","","html-keyboard-response","482","1185180","0.0-1.0-717.0-0.0","0","0","30677","","null","","","null","79","","","","","","","","","","","","","","","",""
"","time_out","","html-keyboard-response","483","1187186","0.0-1.0-719.0-0.0","0","0","30677","","null","","","null","79","","","","","","","","","","","","","","","",""
"","ITI","","html-keyboard-response","484","1188191","0.0-1.0-720.0","0","0","30677","","30","","","68","79","","","","","","","","","","","","","","","d",""
"","S1","","html-keyboard-response","485","1188446","0.0-1.0-722.0","0","0","30677","","null","","","null","80","","","","","","","","","","","","","","","",""
"","ISI","","html-keyboard-response","486","1188958","0.0-1.0-723.0","0","0","30677","","309","","","75","80","k","","","","","","","","","","","","","","",""
"","S2","","html-keyboard-response","487","1189004","0.0-1.0-724.0","0","0","30677","","46","","","68","80","","d","2","80","training","adjacent","ED","5","4","R.jpg","O.jpg","0","0","1","",""
"","feedback","","html-keyboard-response","488","1190010","0.0-1.0-726.0-0.0","0","0","30677","","null","","","null","80","","","","","","","","","","","","","","","",""
"","ITI","","html-keyboard-response","489","1191015","0.0-1.0-729.0","0","0","30677","","288","","","75","80","","","","","","","","","","","","","","","k",""
"","S1","","html-keyboard-response","490","1191269","0.0-1.0-731.0","0","0","30677","","null","","","null","81","","","","","","","","","","","","","","","",""
"","ISI","","html-keyboard-response","491","1191775","0.0-1.0-732.0","0","0","30677","","115","","","75","81","k","","","","","","","","","","","","","","",""
"","S2","","html-keyboard-response","492","1191982","0.0-1.0-733.0","0","0","30677","","205","","","75","81","","k","2","81","training","adjacent","FG","6","7","N.jpg","L.jpg","1","1","1","",""
"","feedback","","html-keyboard-response","493","1192985","0.0-1.0-735.0-0.0","0","0","30677","","null","","","null","81","","","","","","","","","","","","","","","",""
"","ITI","","html-keyboard-response","494","1193986","0.0-1.0-738.0","0","0","30677","","191","","","75","81","","","","","","","","","","","","","","","k",""
"","S1","","html-keyboard-response","495","1194244","0.0-1.0-740.0","0","0","30677","","null","","","null","82","","","","","","","","","","","","","","","",""
"","ISI","","html-keyboard-response","496","1194746","0.0-1.0-741.0","0","0","30677","","302","","","75","82","k","","","","","","","","","","","","","","",""
"","S2","","html-keyboard-response","497","1195004","0.0-1.0-742.0","0","0","30677","","null","","","null","82","","NaN","","","","","","","","","","","","","",""
"","response","","html-keyboard-response","498","1195081","0.0-1.0-743.0-0.0","0","0","30677","","75","","","68","82","","","2","82","training","adjacent","AB","1","2","Q.jpg","P.jpg","0","1","0","",""
"","feedback","","html-keyboard-response","499","1196085","0.0-1.0-744.0-0.0","0","0","30677","","null","","","null","82","","","","","","","","","","","","","","","",""
"","time_out","","html-keyboard-response","500","1198093","0.0-1.0-746.0-0.0","0","0","30677","","null","","","null","82","","","","","","","","","","","","","","","",""
"","ITI","","html-keyboard-response","501","1199100","0.0-1.0-747.0","0","0","30677","","247","","","75","82","","","","","","","","","","","","","","","k",""
"","S1","","html-keyboard-response","502","1199355","0.0-1.0-749.0","0","0","30677","","null","","","null","83","","","","","","","","","","","","","","","",""
"","ISI","","html-keyboard-response","503","1199860","0.0-1.0-750.0","0","0","30677","","12","","","75","83","k","","","","","","","","","","","","","","",""
"","S2","","html-keyboard-response","504","1199931","0.0-1.0-751.0","0","0","30677","","70","","","75","83","","k","2","83","training","adjacent","GF","7","6","L.jpg","N.jpg","1","0","0","",""
"","feedback","","html-keyboard-response","505","1200943","0.0-1.0-753.0-0.0","0","0","30677","","null","","","null","83","","","","","","","","","","","","","","","",""
"","time_out","","html-keyboard-response","506","1203119","0.0-1.0-755.0-0.0","0","0","30677","","null","","","null","83","","","","","","","","","","","","","","","",""
"","ITI","","html-keyboard-response","507","1204120","0.0-1.0-756.0","0","0","30677","","30","","","68","83","","","","","","","","","","","","","","","d",""
"","S1","","html-keyboard-response","508","1204375","0.0-1.0-758.0","0","0","30677","","null","","","null","84","","","","","","","","","","","","","","","",""
"","ISI","","html-keyboard-response","509","1204880","0.0-1.0-759.0","0","0","30677","","356","","","68","84","d","","","","","","","","","","","","","","",""
"","S2","","html-keyboard-response","510","1204949","0.0-1.0-760.0","0","0","30677","","69","","","75","84","","k","2","84","training","adjacent","ED","5","4","R.jpg","O.jpg","1","0","0","",""
"","feedback","","html-keyboard-response","511","1205951","0.0-1.0-762.0-0.0","0","0","30677","","null","","","null","84","","","","","","","","","","","","","","","",""
"","time_out","","html-keyboard-response","512","1207954","0.0-1.0-764.0-0.0","0","0","30677","","null","","","null","84","","","","","","","","","","","","","","","",""
"","ITI","","html-keyboard-response","513","1208957","0.0-1.0-765.0","0","0","30677","","101","","","68","84","","","","","","","","","","","","","","","d",""
"","S1","","html-keyboard-response","514","1209211","0.0-1.0-767.0","0","0","30677","","null","","","null","85","","","","","","","","","","","","","","","",""
"","ISI","","html-keyboard-response","515","1209713","0.0-1.0-768.0","0","0","30677","","286","","","68","85","d","","","","","","","","","","","","","","",""
"","S2","","html-keyboard-response","516","1209856","0.0-1.0-769.0","0","0","30677","","141","","","68","85","","d","2","85","training","adjacent","DE","4","5","O.jpg","R.jpg","0","1","0","",""
"","feedback","","html-keyboard-response","517","1210987","0.0-1.0-771.0-0.0","0","0","30677","","null","","","null","85","","","","","","","","","","","","","","","",""
"","time_out","","html-keyboard-response","518","1212988","0.0-1.0-773.0-0.0","0","0","30677","","null","","","null","85","","","","","","","","","","","","","","","",""
"","ITI","","html-keyboard-response","519","1213989","0.0-1.0-774.0","0","0","30677","","346","","","68","85","","","","","","","","","","","","","","","d",""
"","S1","","html-keyboard-response","520","1214242","0.0-1.0-776.0","0","0","30677","","null","","","null","86","","","","","","","","","","","","","","","",""
"","ISI","","html-keyboard-response","521","1214748","0.0-1.0-777.0","0","0","30677","","173","","","68","86","d","","","","","","","","","","","","","","",""
"","S2","","html-keyboard-response","522","1214984","0.0-1.0-778.0","0","0","30677","","234","","","68","86","","d","2","86","training","adjacent","DE","4","5","O.jpg","R.jpg","0","1","0","",""
"","feedback","","html-keyboard-response","523","1215991","0.0-1.0-780.0-0.0","0","0","30677","","null","","","null","86","","","","","","","","","","","","","","","",""
"","time_out","","html-keyboard-response","524","1217996","0.0-1.0-782.0-0.0","0","0","30677","","null","","","null","86","","","","","","","","","","","","","","","",""
"","ITI","","html-keyboard-response","525","1219000","0.0-1.0-783.0","0","0","30677","","15","","","75","86","","","","","","","","","","","","","","","k",""
"","S1","","html-keyboard-response","526","1219252","0.0-1.0-785.0","0","0","30677","","null","","","null","87","","","","","","","","","","","","","","","",""
"","ISI","","html-keyboard-response","527","1219755","0.0-1.0-786.0","0","0","30677","","381","","","68","87","d","","","","","","","","","","","","","","",""
"","S2","","html-keyboard-response","528","1219821","0.0-1.0-787.0","0","0","30677","","65","","","75","87","","k","2","87","training","adjacent","BC","2","3","P.jpg","M.jpg","1","1","1","",""
"","feedback","","html-keyboard-response","529","1220824","0.0-1.0-789.0-0.0","0","0","30677","","null","","","null","87","","","","","","","","","","","","","","","",""
"","ITI","","html-keyboard-response","530","1221829","0.0-1.0-792.0","0","0","30677","","130","","","75","87","","","","","","","","","","","","","","","k",""
"","S1","","html-keyboard-response","531","1222081","0.0-1.0-794.0","0","0","30677","","null","","","null","88","","","","","","","","","","","","","","","",""
"","ISI","","html-keyboard-response","532","1222583","0.0-1.0-795.0","0","0","30677","","242","","","68","88","d","","","","","","","","","","","","","","",""
"","S2","","html-keyboard-response","533","1222838","0.0-1.0-796.0","0","0","30677","","null","","","null","88","","NaN","","","","","","","","","","","","","",""
"","response","","html-keyboard-response","534","1222945","0.0-1.0-797.0-0.0","0","0","30677","","105","","","68","88","","","2","88","training","adjacent","AB","1","2","Q.jpg","P.jpg","0","1","0","",""
"","feedback","","html-keyboard-response","535","1223950","0.0-1.0-798.0-0.0","0","0","30677","","null","","","null","88","","","","","","","","","","","","","","","",""
"","time_out","","html-keyboard-response","536","1225958","0.0-1.0-800.0-0.0","0","0","30677","","null","","","null","88","","","","","","","","","","","","","","","",""
"","ITI","","html-keyboard-response","537","1226965","0.0-1.0-801.0","0","0","30677","","337","","","75","88","","","","","","","","","","","","","","","k",""
"","S1","","html-keyboard-response","538","1227280","0.0-1.0-803.0","0","0","30677","","null","","","null","89","","","","","","","","","","","","","","","",""
"","ISI","","html-keyboard-response","539","1227830","0.0-1.0-804.0","0","0","30677","","54","","","75","89","k","","","","","","","","","","","","","","",""
"","S2","","html-keyboard-response","540","1228084","0.0-1.0-805.0","0","0","30677","","null","","","null","89","","NaN","","","","","","","","","","","","","",""
"","response","","html-keyboard-response","541","1228233","0.0-1.0-806.0-0.0","0","0","30677","","147","","","68","89","","","2","89","training","adjacent","AB","1","2","Q.jpg","P.jpg","0","1","0","",""
"","feedback","","html-keyboard-response","542","1229237","0.0-1.0-807.0-0.0","0","0","30677","","null","","","null","89","","","","","","","","","","","","","","","",""
"","time_out","","html-keyboard-response","543","1231245","0.0-1.0-809.0-0.0","0","0","30677","","null","","","null","89","","","","","","","","","","","","","","","",""
"","ITI","","html-keyboard-response","544","1232250","0.0-1.0-810.0","0","0","30677","","84","","","75","89","","","","","","","","","","","","","","","k",""
"","S1","","html-keyboard-response","545","1232503","0.0-1.0-812.0","0","0","30677","","null","","","null","90","","","","","","","","","","","","","","","",""
"","ISI","","html-keyboard-response","546","1233008","0.0-1.0-813.0","0","0","30677","","273","","","75","90","k","","","","","","","","","","","","","","",""
"","S2","","html-keyboard-response","547","1233257","0.0-1.0-814.0","0","0","30677","","248","","","68","90","","d","2","90","training","adjacent","ED","5","4","R.jpg","O.jpg","0","0","1","",""
"","feedback","","html-keyboard-response","548","1234260","0.0-1.0-816.0-0.0","0","0","30677","","null","","","null","90","","","","","","","","","","","","","","","",""
"","ITI","","html-keyboard-response","549","1235261","0.0-1.0-819.0","0","0","30677","","153","","","68","90","","","","","","","","","","","","","","","d",""
"","S1","","html-keyboard-response","550","1235520","0.0-1.0-821.0","0","0","30677","","null","","","null","91","","","","","","","","","","","","","","","",""
"","ISI","","html-keyboard-response","551","1236028","0.0-1.0-822.0","0","0","30677","","41","","","75","91","k","","","","","","","","","","","","","","",""
"","S2","","html-keyboard-response","552","1236040","0.0-1.0-823.0","0","0","30677","","10","","","75","91","","k","2","91","training","adjacent","CD","3","4","M.jpg","O.jpg","1","1","1","",""
"","feedback","","html-keyboard-response","553","1237043","0.0-1.0-825.0-0.0","0","0","30677","","null","","","null","91","","","","","","","","","","","","","","","",""
"","ITI","","html-keyboard-response","554","1238049","0.0-1.0-828.0","0","0","30677","","59","","","75","91","","","","","","","","","","","","","","","k",""
"","S1","","html-keyboard-response","555","1238308","0.0-1.0-830.0","0","0","30677","","null","","","null","92","","","","","","","","","","","","","","","",""
"","ISI","","html-keyboard-response","556","1238815","0.0-1.0-831.0","0","0","30677","","5","","","75","92","k","","","","","","","","","","","","","","",""
"","S2","","html-keyboard-response","557","1238899","0.0-1.0-832.0","0","0","30677","","82","","","75","92","","k","2","92","training","adjacent","CB","3","2","M.jpg","P.jpg","1","0","0","",""
"","feedback","","html-keyboard-response","558","1239901","0.0-1.0-834.0-0.0","0","0","30677","","null","","","null","92","","","","","","","","","","","","","","","",""
"","time_out","","html-keyboard-response","559","1241901","0.0-1.0-836.0-0.0","0","0","30677","","null","","","null","92","","","","","","","","","","","","","","","",""
"","ITI","","html-keyboard-response","560","1242910","0.0-1.0-837.0","0","0","30677","","233","","","75","92","","","","","","","","","","","","","","","k",""
"","S1","","html-keyboard-response","561","1243164","0.0-1.0-839.0","0","0","30677","","null","","","null","93","","","","","","","","","","","","","","","",""
"","ISI","","html-keyboard-response","562","1243678","0.0-1.0-840.0","0","0","30677","","406","","","68","93","d","","","","","","","","","","","","","","",""
"","S2","","html-keyboard-response","563","1243713","0.0-1.0-841.0","0","0","30677","","33","","","75","93","","k","2","93","training","adjacent","CB","3","2","M.jpg","P.jpg","1","0","0","",""
"","feedback","","html-keyboard-response","564","1244749","0.0-1.0-843.0-0.0","0","0","30677","","null","","","null","93","","","","","","","","","","","","","","","",""
"","time_out","","html-keyboard-response","565","1246751","0.0-1.0-845.0-0.0","0","0","30677","","null","","","null","93","","","","","","","","","","","","","","","",""
"","ITI","","html-keyboard-response","566","1247756","0.0-1.0-846.0","0","0","30677","","185","","","75","93","","","","","","","","","","","","","","","k",""
"","S1","","html-keyboard-response","567","1248022","0.0-1.0-848.0","0","0","30677","","null","","","null","94","","","","","","","","","","","","","","","",""
"","ISI","","html-keyboard-response","568","1248591","0.0-1.0-849.0","0","0","30677","","239","","","68","94","d","","","","","","","","","","","","","","",""
"","S2","","html-keyboard-response","569","1248816","0.0-1.0-850.0","0","0","30677","","217","","","68","94","","d","2","94","training","adjacent","EF","5","6","R.jpg","N.jpg","0","1","0","",""
"","feedback","","html-keyboard-response","570","1249825","0.0-1.0-852.0-0.0","0","0","30677","","null","","","null","94","","","","","","","","","","","","","","","",""
"","time_out","","html-keyboard-response","571","1251828","0.0-1.0-854.0-0.0","0","0","30677","","null","","","null","94","","","","","","","","","","","","","","","",""
"","ITI","","html-keyboard-response","572","1252829","0.0-1.0-855.0","0","0","30677","","87","","","75","94","","","","","","","","","","","","","","","k",""
"","S1","","html-keyboard-response","573","1253083","0.0-1.0-857.0","0","0","30677","","null","","","null","95","","","","","","","","","","","","","","","",""
"","ISI","","html-keyboard-response","574","1253591","0.0-1.0-858.0","0","0","30677","","218","","","68","95","d","","","","","","","","","","","","","","",""
"","S2","","html-keyboard-response","575","1253785","0.0-1.0-859.0","0","0","30677","","192","","","68","95","","d","2","95","training","adjacent","EF","5","6","R.jpg","N.jpg","0","1","0","",""
"","feedback","","html-keyboard-response","576","1254794","0.0-1.0-861.0-0.0","0","0","30677","","null","","","null","95","","","","","","","","","","","","","","","",""
"","time_out","","html-keyboard-response","577","1256932","0.0-1.0-863.0-0.0","0","0","30677","","null","","","null","95","","","","","","","","","","","","","","","",""
"","ITI","","html-keyboard-response","578","1257935","0.0-1.0-864.0","0","0","30677","","6","","","75","95","","","","","","","","","","","","","","","k",""
"","block_over","","html-keyboard-response","579","1261266","0.0-1.0-865.0-0.0","0","0","30677","","3327","","","32","95","","","","","","","","","","","","","","","",""
"","S1","","html-keyboard-response","580","1261526","0.0-1.0-866.0","0","0","30677","","null","","","null","96","","","","","","","","","","","","","","","",""
"","ISI","","html-keyboard-response","581","1262027","0.0-1.0-867.0","0","0","30677","","421","","","68","96","d","","","","","","","","","","","","","","",""
"","S2","","html-keyboard-response","582","1262191","0.0-1.0-868.0","0","0","30677","","159","","","75","96","","k","3","96","training","adjacent","BA","2","1","P.jpg","Q.jpg","1","0","0","",""
