"success","ttype","start_time","trial_type","trial_index","time_elapsed","internal_node_id","warning","missed_checkup","PID","view_history","rt","responses","repeat_instructions","key_press","index","keypress_isi","keypress_S2","block","trial_num","phase","group_type","pair_type","S1_stim","S2_stim","S1_img","S2_img","S1_chosen","S1_higher","accuracy","keypress_iti","total_bonus_tally"
"true","full_screen","d08012022hr1342","fullscreen","0","16518","0.0-0.0","0","0","17696","","","","","","","","","","","","","","","","","","","","","",""
"","instructions","","instructions","1","44958","0.0-1.0-0.0-0.0","0","0","17696","[{""page_index"":0,""viewing_time"":4565},{""page_index"":1,""viewing_time"":12793},{""page_index"":2,""viewing_time"":9248},{""page_index"":3,""viewing_time"":1833}]","28439","","","","","","","","","","","","","","","","","","","",""
"","comprehension_check","","survey-multi-choice","2","62365","0.0-1.0-0.0-1.0","0","0","17696","","17405","{""Q0"":""True"",""Q1"":""D"",""Q2"":""When you see the prompt 'MAKE A CHOICE' after the second image was presented"",""Q3"":""Green mark"",""Q4"":""either D or K""}","0","","","","","","","","","","","","","","","","","",""
"","start_exp","","html-keyboard-response","3","64067","0.0-1.0-1.0","0","0","17696","","1699","","","32","","","","","","","","","","","","","","","","",""
"","S1","","html-keyboard-response","4","64320","0.0-1.0-2.0","0","0","17696","","null","","","null","0","","","","","","","","","","","","","","","",""
"","ISI","","html-keyboard-response","5","66323","0.0-1.0-3.0","0","0","17696","","null","","","null","0","NaN","","","","","","","","","","","","","","",""
"","S2","","html-keyboard-response","6","66577","0.0-1.0-4.0","0","0","17696","","null","","","null","0","","NaN","","","","","","","","","","","","","",""
"","response","","html-keyboard-response","7","67359","0.0-1.0-5.0","0","0","17696","","780","","","68","0","","","1","0","training","adjacent","AB","1","2","R.jpg","Q.jpg","1","1","1","",""
"","feedback","","html-keyboard-response","8","68361","0.0-1.0-6.0-0.0","0","0","17696","","null","","","null","0","","","","","","","","","","","","","","","",""
"","ITI","","html-keyboard-response","9","69365","0.0-1.0-9.0","0","0","17696","","null","","","null","0","","","","","","","","","","","","","","","NaN",""
"","S1","","html-keyboard-response","10","69617","0.0-1.0-11.0","0","0","17696","","null","","","null","1","","","","","","","","","","","","","","","",""
"","ISI","","html-keyboard-response","11","71620","0.0-1.0-12.0","0","0","17696","","null","","","null","1","NaN","","","","","","","","","","","","","","",""
"","S2","","html-keyboard-response","12","71873","0.0-1.0-13.0","0","0","17696","","null","","","null","1","","NaN","","","","","","","","","","","","","",""
"","response","","html-keyboard-response","13","72263","0.0-1.0-14.0","0","0","17696","","387","","","68","1","","","1","1","training","adjacent","EF","5","6","O.jpg","P.jpg","1","1","1","",""
"","feedback","","html-keyboard-response","14","73266","0.0-1.0-15.0-0.0","0","0","17696","","null","","","null","1","","","","","","","","","","","","","","","",""
"","ITI","","html-keyboard-response","15","74269","0.0-1.0-18.0","0","0","17696","","null","","","null","1","","","","","","","","","","","","","","","NaN",""
"","S1","","html-keyboard-response","16","74521","0.0-1.0-20.0","0","0","17696","","null","","","null","2","","","","","","","","","","","","","","","",""
"","ISI","","html-keyboard-response","17","76522","0.0-1.0-21.0","0","0","17696","","null","","","null","2","NaN","","","","","","","","","","","","","","",""
"","S2","","html-keyboard-response","18","76774","0.0-1.0-22.0","0","0","17696","","null","","","null","2","","NaN","","","","","","","","","","","","","",""
"","response","","html-keyboard-response","19","77277","0.0-1.0-23.0","0","0","17696","","502","","","75","2","","","1","2","training","adjacent","BA","2","1","Q.jpg","R.jpg","0","0","1","",""
"","feedback","","html-keyboard-response","20","78279","0.0-1.0-24.0-0.0","0","0","17696","","null","","","null","2","","","","","","","","","","","","","","","",""
"","ITI","","html-keyboard-response","21","79281","0.0-1.0-27.0","0","0","17696","","null","","","null","2","","","","","","","","","","","","","","","NaN",""
"","S1","","html-keyboard-response","22","79533","0.0-1.0-29.0","0","0","17696","","null","","","null","3","","","","","","","","","","","","","","","",""
"","ISI","","html-keyboard-response","23","81535","0.0-1.0-30.0","0","0","17696","","null","","","null","3","NaN","","","","","","","","","","","","","","",""
"","S2","","html-keyboard-response","24","81789","0.0-1.0-31.0","0","0","17696","","null","","","null","3","","NaN","","","","","","","","","","","","","",""
"","response","","html-keyboard-response","25","82551","0.0-1.0-32.0","0","0","17696","","760","","","68","3","","","1","3","training","adjacent","AB","1","2","R.jpg","Q.jpg","1","1","1","",""
"","feedback","","html-keyboard-response","26","83553","0.0-1.0-33.0-0.0","0","0","17696","","null","","","null","3","","","","","","","","","","","","","","","",""
"","ITI","","html-keyboard-response","27","84556","0.0-1.0-36.0","0","0","17696","","null","","","null","3","","","","","","","","","","","","","","","NaN",""
"","S1","","html-keyboard-response","28","84809","0.0-1.0-38.0","0","0","17696","","null","","","null","4","","","","","","","","","","","","","","","",""
"","ISI","","html-keyboard-response","29","86812","0.0-1.0-39.0","0","0","17696","","null","","","null","4","NaN","","","","","","","","","","","","","","",""
"","S2","","html-keyboard-response","30","87065","0.0-1.0-40.0","0","0","17696","","null","","","null","4","","NaN","","","","","","","","","","","","","",""
"","response","","html-keyboard-response","31","87712","0.0-1.0-41.0","0","0","17696","","645","","","75","4","","","1","4","training","adjacent","FE","6","5","P.jpg","O.jpg","0","0","1","",""
"","feedback","","html-keyboard-response","32","88716","0.0-1.0-42.0-0.0","0","0","17696","","null","","","null","4","","","","","","","","","","","","","","","",""
"","ITI","","html-keyboard-response","33","89719","0.0-1.0-45.0","0","0","17696","","null","","","null","4","","","","","","","","","","","","","","","NaN",""
"","S1","","html-keyboard-response","34","89972","0.0-1.0-47.0","0","0","17696","","null","","","null","5","","","","","","","","","","","","","","","",""
"","ISI","","html-keyboard-response","35","91975","0.0-1.0-48.0","0","0","17696","","null","","","null","5","NaN","","","","","","","","","","","","","","",""
"","S2","","html-keyboard-response","36","92227","0.0-1.0-49.0","0","0","17696","","null","","","null","5","","NaN","","","","","","","","","","","","","",""
"","response","","html-keyboard-response","37","92600","0.0-1.0-50.0","0","0","17696","","372","","","68","5","","","1","5","training","adjacent","CB","3","2","N.jpg","Q.jpg","1","0","0","",""
"","feedback","","html-keyboard-response","38","93602","0.0-1.0-51.0-0.0","0","0","17696","","null","","","null","5","","","","","","","","","","","","","","","",""
"","time_out","","html-keyboard-response","39","95605","0.0-1.0-53.0-0.0","0","0","17696","","null","","","null","5","","","","","","","","","","","","","","","",""
"","ITI","","html-keyboard-response","40","96607","0.0-1.0-54.0","0","0","17696","","null","","","null","5","","","","","","","","","","","","","","","NaN",""
"","S1","","html-keyboard-response","41","96860","0.0-1.0-56.0","0","0","17696","","null","","","null","6","","","","","","","","","","","","","","","",""
"","ISI","","html-keyboard-response","42","98864","0.0-1.0-57.0","0","0","17696","","null","","","null","6","NaN","","","","","","","","","","","","","","",""
"","S2","","html-keyboard-response","43","99117","0.0-1.0-58.0","0","0","17696","","null","","","null","6","","NaN","","","","","","","","","","","","","",""
"","response","","html-keyboard-response","44","99367","0.0-1.0-59.0","0","0","17696","","249","","","75","6","","","1","6","training","adjacent","BC","2","3","Q.jpg","N.jpg","0","1","0","",""
"","feedback","","html-keyboard-response","45","100369","0.0-1.0-60.0-0.0","0","0","17696","","null","","","null","6","","","","","","","","","","","","","","","",""
"","time_out","","html-keyboard-response","46","102372","0.0-1.0-62.0-0.0","0","0","17696","","null","","","null","6","","","","","","","","","","","","","","","",""
"","ITI","","html-keyboard-response","47","103376","0.0-1.0-63.0","0","0","17696","","null","","","null","6","","","","","","","","","","","","","","","NaN",""
"","S1","","html-keyboard-response","48","103629","0.0-1.0-65.0","0","0","17696","","null","","","null","7","","","","","","","","","","","","","","","",""
"","ISI","","html-keyboard-response","49","105632","0.0-1.0-66.0","0","0","17696","","null","","","null","7","NaN","","","","","","","","","","","","","","",""
"","S2","","html-keyboard-response","50","105885","0.0-1.0-67.0","0","0","17696","","null","","","null","7","","NaN","","","","","","","","","","","","","",""
"","response","","html-keyboard-response","51","106236","0.0-1.0-68.0","0","0","17696","","350","","","75","7","","","1","7","training","adjacent","DE","4","5","M.jpg","O.jpg","0","1","0","",""
"","feedback","","html-keyboard-response","52","107238","0.0-1.0-69.0-0.0","0","0","17696","","null","","","null","7","","","","","","","","","","","","","","","",""
"","time_out","","html-keyboard-response","53","109240","0.0-1.0-71.0-0.0","0","0","17696","","null","","","null","7","","","","","","","","","","","","","","","",""
"","ITI","","html-keyboard-response","54","110244","0.0-1.0-72.0","0","0","17696","","null","","","null","7","","","","","","","","","","","","","","","NaN",""
"","S1","","html-keyboard-response","55","110497","0.0-1.0-74.0","0","0","17696","","null","","","null","8","","","","","","","","","","","","","","","",""
"","ISI","","html-keyboard-response","56","112498","0.0-1.0-75.0","0","0","17696","","null","","","null","8","NaN","","","","","","","","","","","","","","",""
"","S2","","html-keyboard-response","57","112751","0.0-1.0-76.0","0","0","17696","","null","","","null","8","","NaN","","","","","","","","","","","","","",""
"","response","","html-keyboard-response","58","113343","0.0-1.0-77.0","0","0","17696","","589","","","75","8","","","1","8","training","adjacent","DE","4","5","M.jpg","O.jpg","0","1","0","",""
"","feedback","","html-keyboard-response","59","114345","0.0-1.0-78.0-0.0","0","0","17696","","null","","","null","8","","","","","","","","","","","","","","","",""
"","time_out","","html-keyboard-response","60","116348","0.0-1.0-80.0-0.0","0","0","17696","","null","","","null","8","","","","","","","","","","","","","","","",""
"","ITI","","html-keyboard-response","61","117351","0.0-1.0-81.0","0","0","17696","","null","","","null","8","","","","","","","","","","","","","","","NaN",""
"","S1","","html-keyboard-response","62","117618","0.0-1.0-83.0","0","0","17696","","null","","","null","9","","","","","","","","","","","","","","","",""
"","ISI","","html-keyboard-response","63","119620","0.0-1.0-84.0","0","0","17696","","null","","","null","9","NaN","","","","","","","","","","","","","","",""
"","S2","","html-keyboard-response","64","119873","0.0-1.0-85.0","0","0","17696","","null","","","null","9","","NaN","","","","","","","","","","","","","",""
"","response","","html-keyboard-response","65","120401","0.0-1.0-86.0","0","0","17696","","525","","","75","9","","","1","9","training","adjacent","GF","7","6","L.jpg","P.jpg","0","0","1","",""
"","feedback","","html-keyboard-response","66","121404","0.0-1.0-87.0-0.0","0","0","17696","","null","","","null","9","","","","","","","","","","","","","","","",""
"","ITI","","html-keyboard-response","67","122407","0.0-1.0-90.0","0","0","17696","","null","","","null","9","","","","","","","","","","","","","","","NaN",""
"","S1","","html-keyboard-response","68","122659","0.0-1.0-92.0","0","0","17696","","null","","","null","10","","","","","","","","","","","","","","","",""
"","ISI","","html-keyboard-response","69","124662","0.0-1.0-93.0","0","0","17696","","null","","","null","10","NaN","","","","","","","","","","","","","","",""
"","S2","","html-keyboard-response","70","124916","0.0-1.0-94.0","0","0","17696","","null","","","null","10","","NaN","","","","","","","","","","","","","",""
"","response","","html-keyboard-response","71","125272","0.0-1.0-95.0","0","0","17696","","355","","","68","10","","","1","10","training","adjacent","CB","3","2","N.jpg","Q.jpg","1","0","0","",""
"","feedback","","html-keyboard-response","72","126275","0.0-1.0-96.0-0.0","0","0","17696","","null","","","null","10","","","","","","","","","","","","","","","",""
"","time_out","","html-keyboard-response","73","128278","0.0-1.0-98.0-0.0","0","0","17696","","null","","","null","10","","","","","","","","","","","","","","","",""
"","ITI","","html-keyboard-response","74","129281","0.0-1.0-99.0","0","0","17696","","null","","","null","10","","","","","","","","","","","","","","","NaN",""
"","S1","","html-keyboard-response","75","129534","0.0-1.0-101.0","0","0","17696","","null","","","null","11","","","","","","","","","","","","","","","",""
"","ISI","","html-keyboard-response","76","131537","0.0-1.0-102.0","0","0","17696","","null","","","null","11","NaN","","","","","","","","","","","","","","",""
"","S2","","html-keyboard-response","77","131790","0.0-1.0-103.0","0","0","17696","","null","","","null","11","","NaN","","","","","","","","","","","","","",""
"","response","","html-keyboard-response","78","132333","0.0-1.0-104.0","0","0","17696","","542","","","68","11","","","1","11","training","adjacent","FE","6","5","P.jpg","O.jpg","1","0","0","",""
"","feedback","","html-keyboard-response","79","133336","0.0-1.0-105.0-0.0","0","0","17696","","null","","","null","11","","","","","","","","","","","","","","","",""
"","time_out","","html-keyboard-response","80","135339","0.0-1.0-107.0-0.0","0","0","17696","","null","","","null","11","","","","","","","","","","","","","","","",""
"","ITI","","html-keyboard-response","81","136342","0.0-1.0-108.0","0","0","17696","","null","","","null","11","","","","","","","","","","","","","","","NaN",""
"","S1","","html-keyboard-response","82","136595","0.0-1.0-110.0","0","0","17696","","null","","","null","12","","","","","","","","","","","","","","","",""
"","ISI","","html-keyboard-response","83","138598","0.0-1.0-111.0","0","0","17696","","null","","","null","12","NaN","","","","","","","","","","","","","","",""
"","S2","","html-keyboard-response","84","138850","0.0-1.0-112.0","0","0","17696","","null","","","null","12","","NaN","","","","","","","","","","","","","",""
"","response","","html-keyboard-response","85","139390","0.0-1.0-113.0","0","0","17696","","538","","","68","12","","","1","12","training","adjacent","CB","3","2","N.jpg","Q.jpg","1","0","0","",""
"","feedback","","html-keyboard-response","86","140394","0.0-1.0-114.0-0.0","0","0","17696","","null","","","null","12","","","","","","","","","","","","","","","",""
"","time_out","","html-keyboard-response","87","142396","0.0-1.0-116.0-0.0","0","0","17696","","null","","","null","12","","","","","","","","","","","","","","","",""
"","ITI","","html-keyboard-response","88","143399","0.0-1.0-117.0","0","0","17696","","null","","","null","12","","","","","","","","","","","","","","","NaN",""
"","S1","","html-keyboard-response","89","143652","0.0-1.0-119.0","0","0","17696","","null","","","null","13","","","","","","","","","","","","","","","",""
"","ISI","","html-keyboard-response","90","145655","0.0-1.0-120.0","0","0","17696","","null","","","null","13","NaN","","","","","","","","","","","","","","",""
"","S2","","html-keyboard-response","91","145908","0.0-1.0-121.0","0","0","17696","","null","","","null","13","","NaN","","","","","","","","","","","","","",""
"","response","","html-keyboard-response","92","146354","0.0-1.0-122.0","0","0","17696","","444","","","68","13","","","1","13","training","adjacent","AB","1","2","R.jpg","Q.jpg","1","1","1","",""
"","feedback","","html-keyboard-response","93","147357","0.0-1.0-123.0-0.0","0","0","17696","","null","","","null","13","","","","","","","","","","","","","","","",""
"","ITI","","html-keyboard-response","94","148361","0.0-1.0-126.0","0","0","17696","","null","","","null","13","","","","","","","","","","","","","","","NaN",""
"","S1","","html-keyboard-response","95","148617","0.0-1.0-128.0","0","0","17696","","null","","","null","14","","","","","","","","","","","","","","","",""
"","ISI","","html-keyboard-response","96","150619","0.0-1.0-129.0","0","0","17696","","null","","","null","14","NaN","","","","","","","","","","","","","","",""
"","S2","","html-keyboard-response","97","150873","0.0-1.0-130.0","0","0","17696","","null","","","null","14","","NaN","","","","","","","","","","","","","",""
"","response","","html-keyboard-response","98","151292","0.0-1.0-131.0","0","0","17696","","417","","","75","14","","","1","14","training","adjacent","GF","7","6","L.jpg","P.jpg","0","0","1","",""
"","feedback","","html-keyboard-response","99","152296","0.0-1.0-132.0-0.0","0","0","17696","","null","","","null","14","","","","","","","","","","","","","","","",""
"","ITI","","html-keyboard-response","100","153298","0.0-1.0-135.0","0","0","17696","","null","","","null","14","","","","","","","","","","","","","","","NaN",""
"","S1","","html-keyboard-response","101","153551","0.0-1.0-137.0","0","0","17696","","null","","","null","15","","","","","","","","","","","","","","","",""
"","ISI","","html-keyboard-response","102","155553","0.0-1.0-138.0","0","0","17696","","null","","","null","15","NaN","","","","","","","","","","","","","","",""
"","S2","","html-keyboard-response","103","155806","0.0-1.0-139.0","0","0","17696","","null","","","null","15","","NaN","","","","","","","","","","","","","",""
"","response","","html-keyboard-response","104","156309","0.0-1.0-140.0","0","0","17696","","501","","","75","15","","","1","15","training","adjacent","CD","3","4","N.jpg","M.jpg","0","1","0","",""
"","feedback","","html-keyboard-response","105","157313","0.0-1.0-141.0-0.0","0","0","17696","","null","","","null","15","","","","","","","","","","","","","","","",""
"","time_out","","html-keyboard-response","106","159315","0.0-1.0-143.0-0.0","0","0","17696","","null","","","null","15","","","","","","","","","","","","","","","",""
"","ITI","","html-keyboard-response","107","160318","0.0-1.0-144.0","0","0","17696","","null","","","null","15","","","","","","","","","","","","","","","NaN",""
"","S1","","html-keyboard-response","108","160571","0.0-1.0-146.0","0","0","17696","","null","","","null","16","","","","","","","","","","","","","","","",""
"","ISI","","html-keyboard-response","109","162573","0.0-1.0-147.0","0","0","17696","","null","","","null","16","NaN","","","","","","","","","","","","","","",""
"","S2","","html-keyboard-response","110","162825","0.0-1.0-148.0","0","0","17696","","null","","","null","16","","NaN","","","","","","","","","","","","","",""
"","response","","html-keyboard-response","111","163247","0.0-1.0-149.0","0","0","17696","","420","","","68","16","","","1","16","training","adjacent","DC","4","3","M.jpg","N.jpg","1","0","0","",""
"","feedback","","html-keyboard-response","112","164249","0.0-1.0-150.0-0.0","0","0","17696","","null","","","null","16","","","","","","","","","","","","","","","",""
"","time_out","","html-keyboard-response","113","166251","0.0-1.0-152.0-0.0","0","0","17696","","null","","","null","16","","","","","","","","","","","","","","","",""
"","ITI","","html-keyboard-response","114","167268","0.0-1.0-153.0","0","0","17696","","null","","","null","16","","","","","","","","","","","","","","","NaN",""
"","S1","","html-keyboard-response","115","167522","0.0-1.0-155.0","0","0","17696","","null","","","null","17","","","","","","","","","","","","","","","",""
"","ISI","","html-keyboard-response","116","169525","0.0-1.0-156.0","0","0","17696","","null","","","null","17","NaN","","","","","","","","","","","","","","",""
"","S2","","html-keyboard-response","117","169778","0.0-1.0-157.0","0","0","17696","","null","","","null","17","","NaN","","","","","","","","","","","","","",""
"","response","","html-keyboard-response","118","170126","0.0-1.0-158.0","0","0","17696","","346","","","68","17","","","1","17","training","adjacent","CD","3","4","N.jpg","M.jpg","1","1","1","",""
"","feedback","","html-keyboard-response","119","171129","0.0-1.0-159.0-0.0","0","0","17696","","null","","","null","17","","","","","","","","","","","","","","","",""
"","ITI","","html-keyboard-response","120","172133","0.0-1.0-162.0","0","0","17696","","null","","","null","17","","","","","","","","","","","","","","","NaN",""
"","S1","","html-keyboard-response","121","172386","0.0-1.0-164.0","0","0","17696","","null","","","null","18","","","","","","","","","","","","","","","",""
"","ISI","","html-keyboard-response","122","174389","0.0-1.0-165.0","0","0","17696","","null","","","null","18","NaN","","","","","","","","","","","","","","",""
"","S2","","html-keyboard-response","123","174642","0.0-1.0-166.0","0","0","17696","","null","","","null","18","","NaN","","","","","","","","","","","","","",""
"","response","","html-keyboard-response","124","175156","0.0-1.0-167.0","0","0","17696","","511","","","68","18","","","1","18","training","adjacent","FG","6","7","P.jpg","L.jpg","1","1","1","",""
"","feedback","","html-keyboard-response","125","176159","0.0-1.0-168.0-0.0","0","0","17696","","null","","","null","18","","","","","","","","","","","","","","","",""
"","ITI","","html-keyboard-response","126","177162","0.0-1.0-171.0","0","0","17696","","null","","","null","18","","","","","","","","","","","","","","","NaN",""
"","S1","","html-keyboard-response","127","177416","0.0-1.0-173.0","0","0","17696","","null","","","null","19","","","","","","","","","","","","","","","",""
"","ISI","","html-keyboard-response","128","179419","0.0-1.0-174.0","0","0","17696","","null","","","null","19","NaN","","","","","","","","","","","","","","",""
"","S2","","html-keyboard-response","129","179672","0.0-1.0-175.0","0","0","17696","","null","","","null","19","","NaN","","","","","","","","","","","","","",""
"","response","","html-keyboard-response","130","180078","0.0-1.0-176.0","0","0","17696","","406","","","75","19","","","1","19","training","adjacent","GF","7","6","L.jpg","P.jpg","0","0","1","",""
"","feedback","","html-keyboard-response","131","181080","0.0-1.0-177.0-0.0","0","0","17696","","null","","","null","19","","","","","","","","","","","","","","","",""
"","ITI","","html-keyboard-response","132","182082","0.0-1.0-180.0","0","0","17696","","null","","","null","19","","","","","","","","","","","","","","","NaN",""
"","S1","","html-keyboard-response","133","182335","0.0-1.0-182.0","0","0","17696","","null","","","null","20","","","","","","","","","","","","","","","",""
"","ISI","","html-keyboard-response","134","184336","0.0-1.0-183.0","0","0","17696","","null","","","null","20","NaN","","","","","","","","","","","","","","",""
"","S2","","html-keyboard-response","135","184587","0.0-1.0-184.0","0","0","17696","","null","","","null","20","","NaN","","","","","","","","","","","","","",""
"","response","","html-keyboard-response","136","184863","0.0-1.0-185.0","0","0","17696","","275","","","75","20","","","1","20","training","adjacent","DC","4","3","M.jpg","N.jpg","0","0","1","",""
"","feedback","","html-keyboard-response","137","185866","0.0-1.0-186.0-0.0","0","0","17696","","null","","","null","20","","","","","","","","","","","","","","","",""
"","ITI","","html-keyboard-response","138","186869","0.0-1.0-189.0","0","0","17696","","null","","","null","20","","","","","","","","","","","","","","","NaN",""
"","S1","","html-keyboard-response","139","187122","0.0-1.0-191.0","0","0","17696","","null","","","null","21","","","","","","","","","","","","","","","",""
"","ISI","","html-keyboard-response","140","189124","0.0-1.0-192.0","0","0","17696","","null","","","null","21","NaN","","","","","","","","","","","","","","",""
"","S2","","html-keyboard-response","141","189378","0.0-1.0-193.0","0","0","17696","","null","","","null","21","","NaN","","","","","","","","","","","","","",""
"","response","","html-keyboard-response","142","189817","0.0-1.0-194.0","0","0","17696","","438","","","75","21","","","1","21","training","adjacent","BA","2","1","Q.jpg","R.jpg","0","0","1","",""
"","feedback","","html-keyboard-response","143","190820","0.0-1.0-195.0-0.0","0","0","17696","","null","","","null","21","","","","","","","","","","","","","","","",""
"","ITI","","html-keyboard-response","144","191822","0.0-1.0-198.0","0","0","17696","","null","","","null","21","","","","","","","","","","","","","","","NaN",""
"","S1","","html-keyboard-response","145","192088","0.0-1.0-200.0","0","0","17696","","null","","","null","22","","","","","","","","","","","","","","","",""
"","ISI","","html-keyboard-response","146","194091","0.0-1.0-201.0","0","0","17696","","null","","","null","22","NaN","","","","","","","","","","","","","","",""
"","S2","","html-keyboard-response","147","194344","0.0-1.0-202.0","0","0","17696","","null","","","null","22","","NaN","","","","","","","","","","","","","",""
"","response","","html-keyboard-response","148","194655","0.0-1.0-203.0","0","0","17696","","310","","","68","22","","","1","22","training","adjacent","FG","6","7","P.jpg","L.jpg","1","1","1","",""
"","feedback","","html-keyboard-response","149","195658","0.0-1.0-204.0-0.0","0","0","17696","","null","","","null","22","","","","","","","","","","","","","","","",""
"","ITI","","html-keyboard-response","150","196660","0.0-1.0-207.0","0","0","17696","","null","","","null","22","","","","","","","","","","","","","","","NaN",""
"","S1","","html-keyboard-response","151","196913","0.0-1.0-209.0","0","0","17696","","null","","","null","23","","","","","","","","","","","","","","","",""
"","ISI","","html-keyboard-response","152","198916","0.0-1.0-210.0","0","0","17696","","null","","","null","23","NaN","","","","","","","","","","","","","","",""
"","S2","","html-keyboard-response","153","199169","0.0-1.0-211.0","0","0","17696","","null","","","null","23","","NaN","","","","","","","","","","","","","",""
"","response","","html-keyboard-response","154","199512","0.0-1.0-212.0","0","0","17696","","341","","","75","23","","","1","23","training","adjacent","BC","2","3","Q.jpg","N.jpg","0","1","0","",""
"","feedback","","html-keyboard-response","155","200516","0.0-1.0-213.0-0.0","0","0","17696","","null","","","null","23","","","","","","","","","","","","","","","",""
"","time_out","","html-keyboard-response","156","202519","0.0-1.0-215.0-0.0","0","0","17696","","null","","","null","23","","","","","","","","","","","","","","","",""
"","ITI","","html-keyboard-response","157","203522","0.0-1.0-216.0","0","0","17696","","null","","","null","23","","","","","","","","","","","","","","","NaN",""
"","S1","","html-keyboard-response","158","203775","0.0-1.0-218.0","0","0","17696","","null","","","null","24","","","","","","","","","","","","","","","",""
"","ISI","","html-keyboard-response","159","205777","0.0-1.0-219.0","0","0","17696","","null","","","null","24","NaN","","","","","","","","","","","","","","",""
"","S2","","html-keyboard-response","160","206031","0.0-1.0-220.0","0","0","17696","","null","","","null","24","","NaN","","","","","","","","","","","","","",""
"","response","","html-keyboard-response","161","206447","0.0-1.0-221.0","0","0","17696","","415","","","75","24","","","1","24","training","adjacent","BA","2","1","Q.jpg","R.jpg","0","0","1","",""
"","feedback","","html-keyboard-response","162","207449","0.0-1.0-222.0-0.0","0","0","17696","","null","","","null","24","","","","","","","","","","","","","","","",""
"","ITI","","html-keyboard-response","163","208450","0.0-1.0-225.0","0","0","17696","","null","","","null","24","","","","","","","","","","","","","","","NaN",""
"","S1","","html-keyboard-response","164","208702","0.0-1.0-227.0","0","0","17696","","null","","","null","25","","","","","","","","","","","","","","","",""
"","ISI","","html-keyboard-response","165","210704","0.0-1.0-228.0","0","0","17696","","null","","","null","25","NaN","","","","","","","","","","","","","","",""
"","S2","","html-keyboard-response","166","210958","0.0-1.0-229.0","0","0","17696","","null","","","null","25","","NaN","","","","","","","","","","","","","",""
"","response","","html-keyboard-response","167","211859","0.0-1.0-230.0","0","0","17696","","899","","","75","25","","","1","25","training","adjacent","FE","6","5","P.jpg","O.jpg","0","0","1","",""
"","feedback","","html-keyboard-response","168","212862","0.0-1.0-231.0-0.0","0","0","17696","","null","","","null","25","","","","","","","","","","","","","","","",""
"","ITI","","html-keyboard-response","169","213865","0.0-1.0-234.0","0","0","17696","","null","","","null","25","","","","","","","","","","","","","","","NaN",""
"","S1","","html-keyboard-response","170","214118","0.0-1.0-236.0","0","0","17696","","null","","","null","26","","","","","","","","","","","","","","","",""
"","ISI","","html-keyboard-response","171","216121","0.0-1.0-237.0","0","0","17696","","null","","","null","26","NaN","","","","","","","","","","","","","","",""
"","S2","","html-keyboard-response","172","216373","0.0-1.0-238.0","0","0","17696","","null","","","null","26","","NaN","","","","","","","","","","","","","",""
"","response","","html-keyboard-response","173","216662","0.0-1.0-239.0","0","0","17696","","287","","","68","26","","","1","26","training","adjacent","AB","1","2","R.jpg","Q.jpg","1","1","1","",""
"","feedback","","html-keyboard-response","174","217666","0.0-1.0-240.0-0.0","0","0","17696","","null","","","null","26","","","","","","","","","","","","","","","",""
"","ITI","","html-keyboard-response","175","218668","0.0-1.0-243.0","0","0","17696","","null","","","null","26","","","","","","","","","","","","","","","NaN",""
"","S1","","html-keyboard-response","176","218920","0.0-1.0-245.0","0","0","17696","","null","","","null","27","","","","","","","","","","","","","","","",""
"","ISI","","html-keyboard-response","177","220922","0.0-1.0-246.0","0","0","17696","","null","","","null","27","NaN","","","","","","","","","","","","","","",""
"","S2","","html-keyboard-response","178","221176","0.0-1.0-247.0","0","0","17696","","null","","","null","27","","NaN","","","","","","","","","","","","","",""
"","response","","html-keyboard-response","179","222002","0.0-1.0-248.0","0","0","17696","","824","","","75","27","","","1","27","training","adjacent","DC","4","3","M.jpg","N.jpg","0","0","1","",""
"","feedback","","html-keyboard-response","180","223006","0.0-1.0-249.0-0.0","0","0","17696","","null","","","null","27","","","","","","","","","","","","","","","",""
"","ITI","","html-keyboard-response","181","224008","0.0-1.0-252.0","0","0","17696","","null","","","null","27","","","","","","","","","","","","","","","NaN",""
"","S1","","html-keyboard-response","182","224260","0.0-1.0-254.0","0","0","17696","","null","","","null","28","","","","","","","","","","","","","","","",""
"","ISI","","html-keyboard-response","183","226263","0.0-1.0-255.0","0","0","17696","","null","","","null","28","NaN","","","","","","","","","","","","","","",""
"","S2","","html-keyboard-response","184","226516","0.0-1.0-256.0","0","0","17696","","null","","","null","28","","NaN","","","","","","","","","","","","","",""
"","response","","html-keyboard-response","185","227340","0.0-1.0-257.0","0","0","17696","","822","","","68","28","","","1","28","training","adjacent","DE","4","5","M.jpg","O.jpg","1","1","1","",""
"","feedback","","html-keyboard-response","186","228343","0.0-1.0-258.0-0.0","0","0","17696","","null","","","null","28","","","","","","","","","","","","","","","",""
"","ITI","","html-keyboard-response","187","229345","0.0-1.0-261.0","0","0","17696","","null","","","null","28","","","","","","","","","","","","","","","NaN",""
"","S1","","html-keyboard-response","188","229598","0.0-1.0-263.0","0","0","17696","","null","","","null","29","","","","","","","","","","","","","","","",""
"","ISI","","html-keyboard-response","189","231601","0.0-1.0-264.0","0","0","17696","","null","","","null","29","NaN","","","","","","","","","","","","","","",""
"","S2","","html-keyboard-response","190","231855","0.0-1.0-265.0","0","0","17696","","null","","","null","29","","NaN","","","","","","","","","","","","","",""
"","response","","html-keyboard-response","191","232436","0.0-1.0-266.0","0","0","17696","","581","","","68","29","","","1","29","training","adjacent","DE","4","5","M.jpg","O.jpg","1","1","1","",""
"","feedback","","html-keyboard-response","192","233439","0.0-1.0-267.0-0.0","0","0","17696","","null","","","null","29","","","","","","","","","","","","","","","",""
"","ITI","","html-keyboard-response","193","234442","0.0-1.0-270.0","0","0","17696","","null","","","null","29","","","","","","","","","","","","","","","NaN",""
"","S1","","html-keyboard-response","194","234696","0.0-1.0-272.0","0","0","17696","","null","","","null","30","","","","","","","","","","","","","","","",""
"","ISI","","html-keyboard-response","195","236699","0.0-1.0-273.0","0","0","17696","","null","","","null","30","NaN","","","","","","","","","","","","","","",""
"","S2","","html-keyboard-response","196","236951","0.0-1.0-274.0","0","0","17696","","null","","","null","30","","NaN","","","","","","","","","","","","","",""
"","response","","html-keyboard-response","197","237834","0.0-1.0-275.0","0","0","17696","","881","","","75","30","","","1","30","training","adjacent","BC","2","3","Q.jpg","N.jpg","0","1","0","",""
"","feedback","","html-keyboard-response","198","238843","0.0-1.0-276.0-0.0","0","0","17696","","null","","","null","30","","","","","","","","","","","","","","","",""
"","time_out","","html-keyboard-response","199","240846","0.0-1.0-278.0-0.0","0","0","17696","","null","","","null","30","","","","","","","","","","","","","","","",""
"","ITI","","html-keyboard-response","200","241849","0.0-1.0-279.0","0","0","17696","","null","","","null","30","","","","","","","","","","","","","","","NaN",""
"","S1","","html-keyboard-response","201","242102","0.0-1.0-281.0","0","0","17696","","null","","","null","31","","","","","","","","","","","","","","","",""
"","ISI","","html-keyboard-response","202","244104","0.0-1.0-282.0","0","0","17696","","null","","","null","31","NaN","","","","","","","","","","","","","","",""
"","S2","","html-keyboard-response","203","244356","0.0-1.0-283.0","0","0","17696","","null","","","null","31","","NaN","","","","","","","","","","","","","",""
"","response","","html-keyboard-response","204","244815","0.0-1.0-284.0","0","0","17696","","456","","","68","31","","","1","31","training","adjacent","ED","5","4","O.jpg","M.jpg","1","0","0","",""
"","feedback","","html-keyboard-response","205","245818","0.0-1.0-285.0-0.0","0","0","17696","","null","","","null","31","","","","","","","","","","","","","","","",""
"","time_out","","html-keyboard-response","206","247821","0.0-1.0-287.0-0.0","0","0","17696","","null","","","null","31","","","","","","","","","","","","","","","",""
"","ITI","","html-keyboard-response","207","248823","0.0-1.0-288.0","0","0","17696","","null","","","null","31","","","","","","","","","","","","","","","NaN",""
"","S1","","html-keyboard-response","208","249076","0.0-1.0-290.0","0","0","17696","","null","","","null","32","","","","","","","","","","","","","","","",""
"","ISI","","html-keyboard-response","209","251079","0.0-1.0-291.0","0","0","17696","","null","","","null","32","NaN","","","","","","","","","","","","","","",""
"","S2","","html-keyboard-response","210","251332","0.0-1.0-292.0","0","0","17696","","null","","","null","32","","NaN","","","","","","","","","","","","","",""
"","response","","html-keyboard-response","211","251745","0.0-1.0-293.0","0","0","17696","","410","","","68","32","","","1","32","training","adjacent","ED","5","4","O.jpg","M.jpg","1","0","0","",""
"","feedback","","html-keyboard-response","212","252748","0.0-1.0-294.0-0.0","0","0","17696","","null","","","null","32","","","","","","","","","","","","","","","",""
"","time_out","","html-keyboard-response","213","254751","0.0-1.0-296.0-0.0","0","0","17696","","null","","","null","32","","","","","","","","","","","","","","","",""
"","ITI","","html-keyboard-response","214","255753","0.0-1.0-297.0","0","0","17696","","null","","","null","32","","","","","","","","","","","","","","","NaN",""
"","S1","","html-keyboard-response","215","256006","0.0-1.0-299.0","0","0","17696","","null","","","null","33","","","","","","","","","","","","","","","",""
"","ISI","","html-keyboard-response","216","258008","0.0-1.0-300.0","0","0","17696","","null","","","null","33","NaN","","","","","","","","","","","","","","",""
"","S2","","html-keyboard-response","217","258261","0.0-1.0-301.0","0","0","17696","","null","","","null","33","","NaN","","","","","","","","","","","","","",""
"","response","","html-keyboard-response","218","259170","0.0-1.0-302.0","0","0","17696","","907","","","75","33","","","1","33","training","adjacent","CD","3","4","N.jpg","M.jpg","0","1","0","",""
"","feedback","","html-keyboard-response","219","260173","0.0-1.0-303.0-0.0","0","0","17696","","null","","","null","33","","","","","","","","","","","","","","","",""
"","time_out","","html-keyboard-response","220","262176","0.0-1.0-305.0-0.0","0","0","17696","","null","","","null","33","","","","","","","","","","","","","","","",""
"","ITI","","html-keyboard-response","221","263177","0.0-1.0-306.0","0","0","17696","","null","","","null","33","","","","","","","","","","","","","","","NaN",""
"","S1","","html-keyboard-response","222","263430","0.0-1.0-308.0","0","0","17696","","null","","","null","34","","","","","","","","","","","","","","","",""
"","ISI","","html-keyboard-response","223","265433","0.0-1.0-309.0","0","0","17696","","null","","","null","34","NaN","","","","","","","","","","","","","","",""
"","S2","","html-keyboard-response","224","265686","0.0-1.0-310.0","0","0","17696","","null","","","null","34","","NaN","","","","","","","","","","","","","",""
"","response","","html-keyboard-response","225","266109","0.0-1.0-311.0","0","0","17696","","421","","","75","34","","","1","34","training","adjacent","EF","5","6","O.jpg","P.jpg","0","1","0","",""
"","feedback","","html-keyboard-response","226","267112","0.0-1.0-312.0-0.0","0","0","17696","","null","","","null","34","","","","","","","","","","","","","","","",""
"","time_out","","html-keyboard-response","227","269115","0.0-1.0-314.0-0.0","0","0","17696","","null","","","null","34","","","","","","","","","","","","","","","",""
"","ITI","","html-keyboard-response","228","270117","0.0-1.0-315.0","0","0","17696","","null","","","null","34","","","","","","","","","","","","","","","NaN",""
"","S1","","html-keyboard-response","229","270370","0.0-1.0-317.0","0","0","17696","","null","","","null","35","","","","","","","","","","","","","","","",""
"","ISI","","html-keyboard-response","230","272373","0.0-1.0-318.0","0","0","17696","","null","","","null","35","NaN","","","","","","","","","","","","","","",""
"","S2","","html-keyboard-response","231","272627","0.0-1.0-319.0","0","0","17696","","null","","","null","35","","NaN","","","","","","","","","","","","","",""
"","response","","html-keyboard-response","232","273007","0.0-1.0-320.0","0","0","17696","","379","","","68","35","","","1","35","training","adjacent","EF","5","6","O.jpg","P.jpg","1","1","1","",""
"","feedback","","html-keyboard-response","233","274009","0.0-1.0-321.0-0.0","0","0","17696","","null","","","null","35","","","","","","","","","","","","","","","",""
"","ITI","","html-keyboard-response","234","275012","0.0-1.0-324.0","0","0","17696","","null","","","null","35","","","","","","","","","","","","","","","NaN",""
"","S1","","html-keyboard-response","235","275265","0.0-1.0-326.0","0","0","17696","","null","","","null","36","","","","","","","","","","","","","","","",""
"","ISI","","html-keyboard-response","236","277266","0.0-1.0-327.0","0","0","17696","","null","","","null","36","NaN","","","","","","","","","","","","","","",""
"","S2","","html-keyboard-response","237","277519","0.0-1.0-328.0","0","0","17696","","null","","","null","36","","NaN","","","","","","","","","","","","","",""
"","response","","html-keyboard-response","238","277880","0.0-1.0-329.0","0","0","17696","","360","","","75","36","","","1","36","training","adjacent","BA","2","1","Q.jpg","R.jpg","0","0","1","",""
"","feedback","","html-keyboard-response","239","278883","0.0-1.0-330.0-0.0","0","0","17696","","null","","","null","36","","","","","","","","","","","","","","","",""
"","ITI","","html-keyboard-response","240","279886","0.0-1.0-333.0","0","0","17696","","null","","","null","36","","","","","","","","","","","","","","","NaN",""
"","S1","","html-keyboard-response","241","280140","0.0-1.0-335.0","0","0","17696","","null","","","null","37","","","","","","","","","","","","","","","",""
"","ISI","","html-keyboard-response","242","282150","0.0-1.0-336.0","0","0","17696","","null","","","null","37","NaN","","","","","","","","","","","","","","",""
"","S2","","html-keyboard-response","243","282402","0.0-1.0-337.0","0","0","17696","","null","","","null","37","","NaN","","","","","","","","","","","","","",""
"","response","","html-keyboard-response","244","282846","0.0-1.0-338.0","0","0","17696","","442","","","68","37","","","1","37","training","adjacent","FG","6","7","P.jpg","L.jpg","1","1","1","",""
"","feedback","","html-keyboard-response","245","283848","0.0-1.0-339.0-0.0","0","0","17696","","null","","","null","37","","","","","","","","","","","","","","","",""
"","ITI","","html-keyboard-response","246","284851","0.0-1.0-342.0","0","0","17696","","null","","","null","37","","","","","","","","","","","","","","","NaN",""
"","S1","","html-keyboard-response","247","285109","0.0-1.0-344.0","0","0","17696","","null","","","null","38","","","","","","","","","","","","","","","",""
"","ISI","","html-keyboard-response","248","287112","0.0-1.0-345.0","0","0","17696","","null","","","null","38","NaN","","","","","","","","","","","","","","",""
"","S2","","html-keyboard-response","249","287364","0.0-1.0-346.0","0","0","17696","","null","","","null","38","","NaN","","","","","","","","","","","","","",""
"","response","","html-keyboard-response","250","288338","0.0-1.0-347.0","0","0","17696","","972","","","75","38","","","1","38","training","adjacent","CB","3","2","N.jpg","Q.jpg","0","0","1","",""
"","feedback","","html-keyboard-response","251","289341","0.0-1.0-348.0-0.0","0","0","17696","","null","","","null","38","","","","","","","","","","","","","","","",""
"","ITI","","html-keyboard-response","252","290346","0.0-1.0-351.0","0","0","17696","","null","","","null","38","","","","","","","","","","","","","","","NaN",""
"","S1","","html-keyboard-response","253","290598","0.0-1.0-353.0","0","0","17696","","null","","","null","39","","","","","","","","","","","","","","","",""
"","ISI","","html-keyboard-response","254","292600","0.0-1.0-354.0","0","0","17696","","null","","","null","39","NaN","","","","","","","","","","","","","","",""
"","S2","","html-keyboard-response","255","292853","0.0-1.0-355.0","0","0","17696","","null","","","null","39","","NaN","","","","","","","","","","","","","",""
"","response","","html-keyboard-response","256","293237","0.0-1.0-356.0","0","0","17696","","382","","","68","39","","","1","39","training","adjacent","BC","2","3","Q.jpg","N.jpg","1","1","1","",""
"","feedback","","html-keyboard-response","257","294241","0.0-1.0-357.0-0.0","0","0","17696","","null","","","null","39","","","","","","","","","","","","","","","",""
"","ITI","","html-keyboard-response","258","295244","0.0-1.0-360.0","0","0","17696","","null","","","null","39","","","","","","","","","","","","","","","NaN",""
"","S1","","html-keyboard-response","259","295497","0.0-1.0-362.0","0","0","17696","","null","","","null","40","","","","","","","","","","","","","","","",""
"","ISI","","html-keyboard-response","260","297500","0.0-1.0-363.0","0","0","17696","","null","","","null","40","NaN","","","","","","","","","","","","","","",""
"","S2","","html-keyboard-response","261","297752","0.0-1.0-364.0","0","0","17696","","null","","","null","40","","NaN","","","","","","","","","","","","","",""
"","response","","html-keyboard-response","262","297891","0.0-1.0-365.0","0","0","17696","","137","","","68","40","","","1","40","training","adjacent","FG","6","7","P.jpg","L.jpg","1","1","1","",""
"","feedback","","html-keyboard-response","263","298893","0.0-1.0-366.0-0.0","0","0","17696","","null","","","null","40","","","","","","","","","","","","","","","",""
"","ITI","","html-keyboard-response","264","299896","0.0-1.0-369.0","0","0","17696","","null","","","null","40","","","","","","","","","","","","","","","NaN",""
"","S1","","html-keyboard-response","265","300149","0.0-1.0-371.0","0","0","17696","","null","","","null","41","","","","","","","","","","","","","","","",""
"","ISI","","html-keyboard-response","266","302152","0.0-1.0-372.0","0","0","17696","","null","","","null","41","NaN","","","","","","","","","","","","","","",""
"","S2","","html-keyboard-response","267","302406","0.0-1.0-373.0","0","0","17696","","null","","","null","41","","NaN","","","","","","","","","","","","","",""
"","response","","html-keyboard-response","268","303121","0.0-1.0-374.0","0","0","17696","","713","","","68","41","","","1","41","training","adjacent","CD","3","4","N.jpg","M.jpg","1","1","1","",""
"","feedback","","html-keyboard-response","269","304124","0.0-1.0-375.0-0.0","0","0","17696","","null","","","null","41","","","","","","","","","","","","","","","",""
"","ITI","","html-keyboard-response","270","305127","0.0-1.0-378.0","0","0","17696","","null","","","null","41","","","","","","","","","","","","","","","NaN",""
"","S1","","html-keyboard-response","271","305381","0.0-1.0-380.0","0","0","17696","","null","","","null","42","","","","","","","","","","","","","","","",""
"","ISI","","html-keyboard-response","272","307384","0.0-1.0-381.0","0","0","17696","","null","","","null","42","NaN","","","","","","","","","","","","","","",""
"","S2","","html-keyboard-response","273","307637","0.0-1.0-382.0","0","0","17696","","null","","","null","42","","NaN","","","","","","","","","","","","","",""
"","response","","html-keyboard-response","274","307854","0.0-1.0-383.0","0","0","17696","","215","","","75","42","","","1","42","training","adjacent","GF","7","6","L.jpg","P.jpg","0","0","1","",""
"","feedback","","html-keyboard-response","275","308857","0.0-1.0-384.0-0.0","0","0","17696","","null","","","null","42","","","","","","","","","","","","","","","",""
"","ITI","","html-keyboard-response","276","309860","0.0-1.0-387.0","0","0","17696","","null","","","null","42","","","","","","","","","","","","","","","NaN",""
"","S1","","html-keyboard-response","277","310113","0.0-1.0-389.0","0","0","17696","","null","","","null","43","","","","","","","","","","","","","","","",""
"","ISI","","html-keyboard-response","278","312116","0.0-1.0-390.0","0","0","17696","","null","","","null","43","NaN","","","","","","","","","","","","","","",""
"","S2","","html-keyboard-response","279","312368","0.0-1.0-391.0","0","0","17696","","null","","","null","43","","NaN","","","","","","","","","","","","","",""
"","response","","html-keyboard-response","280","312839","0.0-1.0-392.0","0","0","17696","","470","","","68","43","","","1","43","training","adjacent","EF","5","6","O.jpg","P.jpg","1","1","1","",""
"","feedback","","html-keyboard-response","281","313841","0.0-1.0-393.0-0.0","0","0","17696","","null","","","null","43","","","","","","","","","","","","","","","",""
"","ITI","","html-keyboard-response","282","314845","0.0-1.0-396.0","0","0","17696","","null","","","null","43","","","","","","","","","","","","","","","NaN",""
"","S1","","html-keyboard-response","283","315098","0.0-1.0-398.0","0","0","17696","","null","","","null","44","","","","","","","","","","","","","","","",""
"","ISI","","html-keyboard-response","284","317101","0.0-1.0-399.0","0","0","17696","","null","","","null","44","NaN","","","","","","","","","","","","","","",""
"","S2","","html-keyboard-response","285","317362","0.0-1.0-400.0","0","0","17696","","null","","","null","44","","NaN","","","","","","","","","","","","","",""
"","response","","html-keyboard-response","286","318112","0.0-1.0-401.0","0","0","17696","","749","","","75","44","","","1","44","training","adjacent","ED","5","4","O.jpg","M.jpg","0","0","1","",""
"","feedback","","html-keyboard-response","287","319115","0.0-1.0-402.0-0.0","0","0","17696","","null","","","null","44","","","","","","","","","","","","","","","",""
"","ITI","","html-keyboard-response","288","320119","0.0-1.0-405.0","0","0","17696","","null","","","null","44","","","","","","","","","","","","","","","NaN",""
"","S1","","html-keyboard-response","289","320372","0.0-1.0-407.0","0","0","17696","","null","","","null","45","","","","","","","","","","","","","","","",""
"","ISI","","html-keyboard-response","290","322376","0.0-1.0-408.0","0","0","17696","","null","","","null","45","NaN","","","","","","","","","","","","","","",""
"","S2","","html-keyboard-response","291","322628","0.0-1.0-409.0","0","0","17696","","null","","","null","45","","NaN","","","","","","","","","","","","","",""
"","response","","html-keyboard-response","292","322967","0.0-1.0-410.0","0","0","17696","","336","","","75","45","","","1","45","training","adjacent","FE","6","5","P.jpg","O.jpg","0","0","1","",""
"","feedback","","html-keyboard-response","293","323970","0.0-1.0-411.0-0.0","0","0","17696","","null","","","null","45","","","","","","","","","","","","","","","",""
"","ITI","","html-keyboard-response","294","324974","0.0-1.0-414.0","0","0","17696","","null","","","null","45","","","","","","","","","","","","","","","NaN",""
"","S1","","html-keyboard-response","295","325227","0.0-1.0-416.0","0","0","17696","","null","","","null","46","","","","","","","","","","","","","","","",""
"","ISI","","html-keyboard-response","296","327229","0.0-1.0-417.0","0","0","17696","","null","","","null","46","NaN","","","","","","","","","","","","","","",""
"","S2","","html-keyboard-response","297","327483","0.0-1.0-418.0","0","0","17696","","null","","","null","46","","NaN","","","","","","","","","","","","","",""
"","response","","html-keyboard-response","298","327781","0.0-1.0-419.0","0","0","17696","","297","","","75","46","","","1","46","training","adjacent","DC","4","3","M.jpg","N.jpg","0","0","1","",""
"","feedback","","html-keyboard-response","299","328785","0.0-1.0-420.0-0.0","0","0","17696","","null","","","null","46","","","","","","","","","","","","","","","",""
"","ITI","","html-keyboard-response","300","329789","0.0-1.0-423.0","0","0","17696","","null","","","null","46","","","","","","","","","","","","","","","NaN",""
"","S1","","html-keyboard-response","301","330041","0.0-1.0-425.0","0","0","17696","","null","","","null","47","","","","","","","","","","","","","","","",""
"","ISI","","html-keyboard-response","302","332045","0.0-1.0-426.0","0","0","17696","","null","","","null","47","NaN","","","","","","","","","","","","","","",""
"","S2","","html-keyboard-response","303","332298","0.0-1.0-427.0","0","0","17696","","null","","","null","47","","NaN","","","","","","","","","","","","","",""
"","response","","html-keyboard-response","304","333151","0.0-1.0-428.0","0","0","17696","","851","","","75","47","","","1","47","training","adjacent","ED","5","4","O.jpg","M.jpg","0","0","1","",""
"","feedback","","html-keyboard-response","305","334155","0.0-1.0-429.0-0.0","0","0","17696","","null","","","null","47","","","","","","","","","","","","","","","",""
"","ITI","","html-keyboard-response","306","335157","0.0-1.0-432.0","0","0","17696","","null","","","null","47","","","","","","","","","","","","","","","NaN",""
"","block_over","","html-keyboard-response","307","343585","0.0-1.0-433.0-0.0","0","0","17696","","8427","","","32","47","","","","","","","","","","","","","","","",""
"","S1","","html-keyboard-response","308","343838","0.0-1.0-434.0","0","0","17696","","null","","","null","48","","","","","","","","","","","","","","","",""
"","ISI","","html-keyboard-response","309","345841","0.0-1.0-435.0","0","0","17696","","null","","","null","48","NaN","","","","","","","","","","","","","","",""
"","S2","","html-keyboard-response","310","346095","0.0-1.0-436.0","0","0","17696","","null","","","null","48","","NaN","","","","","","","","","","","","","",""
"","response","","html-keyboard-response","311","347247","0.0-1.0-437.0","0","0","17696","","1150","","","75","48","","","2","48","training","adjacent","CB","3","2","N.jpg","Q.jpg","0","0","1","",""
"","feedback","","html-keyboard-response","312","348250","0.0-1.0-438.0-0.0","0","0","17696","","null","","","null","48","","","","","","","","","","","","","","","",""
"","ITI","","html-keyboard-response","313","349253","0.0-1.0-441.0","0","0","17696","","null","","","null","48","","","","","","","","","","","","","","","NaN",""
"","S1","","html-keyboard-response","314","349506","0.0-1.0-443.0","0","0","17696","","null","","","null","49","","","","","","","","","","","","","","","",""
"","ISI","","html-keyboard-response","315","351509","0.0-1.0-444.0","0","0","17696","","null","","","null","49","NaN","","","","","","","","","","","","","","",""
"","S2","","html-keyboard-response","316","351762","0.0-1.0-445.0","0","0","17696","","null","","","null","49","","NaN","","","","","","","","","","","","","",""
"","response","","html-keyboard-response","317","352064","0.0-1.0-446.0","0","0","17696","","300","","","68","49","","","2","49","training","adjacent","AB","1","2","R.jpg","Q.jpg","1","1","1","",""
"","feedback","","html-keyboard-response","318","353073","0.0-1.0-447.0-0.0","0","0","17696","","null","","","null","49","","","","","","","","","","","","","","","",""
"","ITI","","html-keyboard-response","319","354077","0.0-1.0-450.0","0","0","17696","","null","","","null","49","","","","","","","","","","","","","","","NaN",""
"","S1","","html-keyboard-response","320","354330","0.0-1.0-452.0","0","0","17696","","null","","","null","50","","","","","","","","","","","","","","","",""
"","ISI","","html-keyboard-response","321","356333","0.0-1.0-453.0","0","0","17696","","null","","","null","50","NaN","","","","","","","","","","","","","","",""
"","S2","","html-keyboard-response","322","356587","0.0-1.0-454.0","0","0","17696","","null","","","null","50","","NaN","","","","","","","","","","","","","",""
"","response","","html-keyboard-response","323","356877","0.0-1.0-455.0","0","0","17696","","289","","","75","50","","","2","50","training","adjacent","BA","2","1","Q.jpg","R.jpg","0","0","1","",""
"","feedback","","html-keyboard-response","324","357880","0.0-1.0-456.0-0.0","0","0","17696","","null","","","null","50","","","","","","","","","","","","","","","",""
"","ITI","","html-keyboard-response","325","358883","0.0-1.0-459.0","0","0","17696","","null","","","null","50","","","","","","","","","","","","","","","NaN",""
"","S1","","html-keyboard-response","326","359137","0.0-1.0-461.0","0","0","17696","","null","","","null","51","","","","","","","","","","","","","","","",""
"","ISI","","html-keyboard-response","327","361140","0.0-1.0-462.0","0","0","17696","","null","","","null","51","NaN","","","","","","","","","","","","","","",""
"","S2","","html-keyboard-response","328","361394","0.0-1.0-463.0","0","0","17696","","null","","","null","51","","NaN","","","","","","","","","","","","","",""
"","response","","html-keyboard-response","329","361876","0.0-1.0-464.0","0","0","17696","","479","","","75","51","","","2","51","training","adjacent","DC","4","3","M.jpg","N.jpg","0","0","1","",""
"","feedback","","html-keyboard-response","330","362879","0.0-1.0-465.0-0.0","0","0","17696","","null","","","null","51","","","","","","","","","","","","","","","",""
"","ITI","","html-keyboard-response","331","363882","0.0-1.0-468.0","0","0","17696","","null","","","null","51","","","","","","","","","","","","","","","NaN",""
"","S1","","html-keyboard-response","332","364136","0.0-1.0-470.0","0","0","17696","","null","","","null","52","","","","","","","","","","","","","","","",""
"","ISI","","html-keyboard-response","333","366139","0.0-1.0-471.0","0","0","17696","","null","","","null","52","NaN","","","","","","","","","","","","","","",""
"","S2","","html-keyboard-response","334","366392","0.0-1.0-472.0","0","0","17696","","null","","","null","52","","NaN","","","","","","","","","","","","","",""
"","response","","html-keyboard-response","335","366746","0.0-1.0-473.0","0","0","17696","","353","","","75","52","","","2","52","training","adjacent","EF","5","6","O.jpg","P.jpg","0","1","0","",""
"","feedback","","html-keyboard-response","336","367749","0.0-1.0-474.0-0.0","0","0","17696","","null","","","null","52","","","","","","","","","","","","","","","",""
"","time_out","","html-keyboard-response","337","369751","0.0-1.0-476.0-0.0","0","0","17696","","null","","","null","52","","","","","","","","","","","","","","","",""
"","ITI","","html-keyboard-response","338","370755","0.0-1.0-477.0","0","0","17696","","null","","","null","52","","","","","","","","","","","","","","","NaN",""
"","S1","","html-keyboard-response","339","371008","0.0-1.0-479.0","0","0","17696","","null","","","null","53","","","","","","","","","","","","","","","",""
"","ISI","","html-keyboard-response","340","373010","0.0-1.0-480.0","0","0","17696","","null","","","null","53","NaN","","","","","","","","","","","","","","",""
"","S2","","html-keyboard-response","341","373263","0.0-1.0-481.0","0","0","17696","","null","","","null","53","","NaN","","","","","","","","","","","","","",""
"","response","","html-keyboard-response","342","373764","0.0-1.0-482.0","0","0","17696","","499","","","75","53","","","2","53","training","adjacent","FE","6","5","P.jpg","O.jpg","0","0","1","",""
"","feedback","","html-keyboard-response","343","374767","0.0-1.0-483.0-0.0","0","0","17696","","null","","","null","53","","","","","","","","","","","","","","","",""
"","ITI","","html-keyboard-response","344","375769","0.0-1.0-486.0","0","0","17696","","null","","","null","53","","","","","","","","","","","","","","","NaN",""
"","S1","","html-keyboard-response","345","376022","0.0-1.0-488.0","0","0","17696","","null","","","null","54","","","","","","","","","","","","","","","",""
"","ISI","","html-keyboard-response","346","378024","0.0-1.0-489.0","0","0","17696","","null","","","null","54","NaN","","","","","","","","","","","","","","",""
"","S2","","html-keyboard-response","347","378277","0.0-1.0-490.0","0","0","17696","","null","","","null","54","","NaN","","","","","","","","","","","","","",""
"","response","","html-keyboard-response","348","378797","0.0-1.0-491.0","0","0","17696","","518","","","68","54","","","2","54","training","adjacent","AB","1","2","R.jpg","Q.jpg","1","1","1","",""
"","feedback","","html-keyboard-response","349","379800","0.0-1.0-492.0-0.0","0","0","17696","","null","","","null","54","","","","","","","","","","","","","","","",""
"","ITI","","html-keyboard-response","350","380802","0.0-1.0-495.0","0","0","17696","","null","","","null","54","","","","","","","","","","","","","","","NaN",""
"","S1","","html-keyboard-response","351","381055","0.0-1.0-497.0","0","0","17696","","null","","","null","55","","","","","","","","","","","","","","","",""
"","ISI","","html-keyboard-response","352","383057","0.0-1.0-498.0","0","0","17696","","null","","","null","55","NaN","","","","","","","","","","","","","","",""
"","S2","","html-keyboard-response","353","383308","0.0-1.0-499.0","0","0","17696","","null","","","null","55","","NaN","","","","","","","","","","","","","",""
"","response","","html-keyboard-response","354","383766","0.0-1.0-500.0","0","0","17696","","457","","","75","55","","","2","55","training","adjacent","ED","5","4","O.jpg","M.jpg","0","0","1","",""
"","feedback","","html-keyboard-response","355","384768","0.0-1.0-501.0-0.0","0","0","17696","","null","","","null","55","","","","","","","","","","","","","","","",""
"","ITI","","html-keyboard-response","356","385772","0.0-1.0-504.0","0","0","17696","","null","","","null","55","","","","","","","","","","","","","","","NaN",""
"","S1","","html-keyboard-response","357","386024","0.0-1.0-506.0","0","0","17696","","null","","","null","56","","","","","","","","","","","","","","","",""
"","ISI","","html-keyboard-response","358","388027","0.0-1.0-507.0","0","0","17696","","null","","","null","56","NaN","","","","","","","","","","","","","","",""
"","S2","","html-keyboard-response","359","388280","0.0-1.0-508.0","0","0","17696","","null","","","null","56","","NaN","","","","","","","","","","","","","",""
"","response","","html-keyboard-response","360","388557","0.0-1.0-509.0","0","0","17696","","275","","","75","56","","","2","56","training","adjacent","FE","6","5","P.jpg","O.jpg","0","0","1","",""
"","feedback","","html-keyboard-response","361","389559","0.0-1.0-510.0-0.0","0","0","17696","","null","","","null","56","","","","","","","","","","","","","","","",""
"","ITI","","html-keyboard-response","362","390562","0.0-1.0-513.0","0","0","17696","","null","","","null","56","","","","","","","","","","","","","","","NaN",""
"","S1","","html-keyboard-response","363","390818","0.0-1.0-515.0","0","0","17696","","null","","","null","57","","","","","","","","","","","","","","","",""
"","ISI","","html-keyboard-response","364","392820","0.0-1.0-516.0","0","0","17696","","null","","","null","57","NaN","","","","","","","","","","","","","","",""
"","S2","","html-keyboard-response","365","393074","0.0-1.0-517.0","0","0","17696","","null","","","null","57","","NaN","","","","","","","","","","","","","",""
"","response","","html-keyboard-response","366","393865","0.0-1.0-518.0","0","0","17696","","789","","","68","57","","","2","57","training","adjacent","DE","4","5","M.jpg","O.jpg","1","1","1","",""
"","feedback","","html-keyboard-response","367","394867","0.0-1.0-519.0-0.0","0","0","17696","","null","","","null","57","","","","","","","","","","","","","","","",""
"","ITI","","html-keyboard-response","368","395869","0.0-1.0-522.0","0","0","17696","","null","","","null","57","","","","","","","","","","","","","","","NaN",""
"","S1","","html-keyboard-response","369","396121","0.0-1.0-524.0","0","0","17696","","null","","","null","58","","","","","","","","","","","","","","","",""
"","ISI","","html-keyboard-response","370","398125","0.0-1.0-525.0","0","0","17696","","null","","","null","58","NaN","","","","","","","","","","","","","","",""
"","S2","","html-keyboard-response","371","398378","0.0-1.0-526.0","0","0","17696","","null","","","null","58","","NaN","","","","","","","","","","","","","",""
"","response","","html-keyboard-response","372","398672","0.0-1.0-527.0","0","0","17696","","292","","","68","58","","","2","58","training","adjacent","FG","6","7","P.jpg","L.jpg","1","1","1","",""
"","feedback","","html-keyboard-response","373","399674","0.0-1.0-528.0-0.0","0","0","17696","","null","","","null","58","","","","","","","","","","","","","","","",""
"","ITI","","html-keyboard-response","374","400676","0.0-1.0-531.0","0","0","17696","","null","","","null","58","","","","","","","","","","","","","","","NaN",""
"","S1","","html-keyboard-response","375","400930","0.0-1.0-533.0","0","0","17696","","null","","","null","59","","","","","","","","","","","","","","","",""
"","ISI","","html-keyboard-response","376","402932","0.0-1.0-534.0","0","0","17696","","null","","","null","59","NaN","","","","","","","","","","","","","","",""
"","S2","","html-keyboard-response","377","403197","0.0-1.0-535.0","0","0","17696","","null","","","null","59","","NaN","","","","","","","","","","","","","",""
"","response","","html-keyboard-response","378","403497","0.0-1.0-536.0","0","0","17696","","299","","","75","59","","","2","59","training","adjacent","FE","6","5","P.jpg","O.jpg","0","0","1","",""
"","feedback","","html-keyboard-response","379","404500","0.0-1.0-537.0-0.0","0","0","17696","","null","","","null","59","","","","","","","","","","","","","","","",""
"","ITI","","html-keyboard-response","380","405502","0.0-1.0-540.0","0","0","17696","","null","","","null","59","","","","","","","","","","","","","","","NaN",""
"","S1","","html-keyboard-response","381","405755","0.0-1.0-542.0","0","0","17696","","null","","","null","60","","","","","","","","","","","","","","","",""
"","ISI","","html-keyboard-response","382","407757","0.0-1.0-543.0","0","0","17696","","null","","","null","60","NaN","","","","","","","","","","","","","","",""
"","S2","","html-keyboard-response","383","408010","0.0-1.0-544.0","0","0","17696","","null","","","null","60","","NaN","","","","","","","","","","","","","",""
"","response","","html-keyboard-response","384","408949","0.0-1.0-545.0","0","0","17696","","937","","","68","60","","","2","60","training","adjacent","DE","4","5","M.jpg","O.jpg","1","1","1","",""
"","feedback","","html-keyboard-response","385","409965","0.0-1.0-546.0-0.0","0","0","17696","","null","","","null","60","","","","","","","","","","","","","","","",""
"","ITI","","html-keyboard-response","386","410969","0.0-1.0-549.0","0","0","17696","","null","","","null","60","","","","","","","","","","","","","","","NaN",""
"","S1","","html-keyboard-response","387","411222","0.0-1.0-551.0","0","0","17696","","null","","","null","61","","","","","","","","","","","","","","","",""
"","ISI","","html-keyboard-response","388","413225","0.0-1.0-552.0","0","0","17696","","null","","","null","61","NaN","","","","","","","","","","","","","","",""
"","S2","","html-keyboard-response","389","413478","0.0-1.0-553.0","0","0","17696","","null","","","null","61","","NaN","","","","","","","","","","","","","",""
"","response","","html-keyboard-response","390","413733","0.0-1.0-554.0","0","0","17696","","252","","","68","61","","","2","61","training","adjacent","BC","2","3","Q.jpg","N.jpg","1","1","1","",""
"","feedback","","html-keyboard-response","391","414736","0.0-1.0-555.0-0.0","0","0","17696","","null","","","null","61","","","","","","","","","","","","","","","",""
"","ITI","","html-keyboard-response","392","415738","0.0-1.0-558.0","0","0","17696","","null","","","null","61","","","","","","","","","","","","","","","NaN",""
"","S1","","html-keyboard-response","393","415991","0.0-1.0-560.0","0","0","17696","","null","","","null","62","","","","","","","","","","","","","","","",""
"","ISI","","html-keyboard-response","394","417993","0.0-1.0-561.0","0","0","17696","","null","","","null","62","NaN","","","","","","","","","","","","","","",""
"","S2","","html-keyboard-response","395","418244","0.0-1.0-562.0","0","0","17696","","null","","","null","62","","NaN","","","","","","","","","","","","","",""
"","response","","html-keyboard-response","396","418653","0.0-1.0-563.0","0","0","17696","","408","","","68","62","","","2","62","training","adjacent","CB","3","2","N.jpg","Q.jpg","1","0","0","",""
"","feedback","","html-keyboard-response","397","419668","0.0-1.0-564.0-0.0","0","0","17696","","null","","","null","62","","","","","","","","","","","","","","","",""
"","time_out","","html-keyboard-response","398","421671","0.0-1.0-566.0-0.0","0","0","17696","","null","","","null","62","","","","","","","","","","","","","","","",""
"","ITI","","html-keyboard-response","399","422674","0.0-1.0-567.0","0","0","17696","","null","","","null","62","","","","","","","","","","","","","","","NaN",""
"","S1","","html-keyboard-response","400","422927","0.0-1.0-569.0","0","0","17696","","null","","","null","63","","","","","","","","","","","","","","","",""
"","ISI","","html-keyboard-response","401","424929","0.0-1.0-570.0","0","0","17696","","null","","","null","63","NaN","","","","","","","","","","","","","","",""
"","S2","","html-keyboard-response","402","425183","0.0-1.0-571.0","0","0","17696","","null","","","null","63","","NaN","","","","","","","","","","","","","",""
"","response","","html-keyboard-response","403","425416","0.0-1.0-572.0","0","0","17696","","231","","","75","63","","","2","63","training","adjacent","GF","7","6","L.jpg","P.jpg","0","0","1","",""
"","feedback","","html-keyboard-response","404","426419","0.0-1.0-573.0-0.0","0","0","17696","","null","","","null","63","","","","","","","","","","","","","","","",""
"","ITI","","html-keyboard-response","405","427422","0.0-1.0-576.0","0","0","17696","","null","","","null","63","","","","","","","","","","","","","","","NaN",""
"","S1","","html-keyboard-response","406","427676","0.0-1.0-578.0","0","0","17696","","null","","","null","64","","","","","","","","","","","","","","","",""
"","ISI","","html-keyboard-response","407","429679","0.0-1.0-579.0","0","0","17696","","null","","","null","64","NaN","","","","","","","","","","","","","","",""
"","S2","","html-keyboard-response","408","429933","0.0-1.0-580.0","0","0","17696","","null","","","null","64","","NaN","","","","","","","","","","","","","",""
"","response","","html-keyboard-response","409","430204","0.0-1.0-581.0","0","0","17696","","269","","","68","64","","","2","64","training","adjacent","BC","2","3","Q.jpg","N.jpg","1","1","1","",""
"","feedback","","html-keyboard-response","410","431215","0.0-1.0-582.0-0.0","0","0","17696","","null","","","null","64","","","","","","","","","","","","","","","",""
"","ITI","","html-keyboard-response","411","432218","0.0-1.0-585.0","0","0","17696","","null","","","null","64","","","","","","","","","","","","","","","NaN",""
"","S1","","html-keyboard-response","412","432471","0.0-1.0-587.0","0","0","17696","","null","","","null","65","","","","","","","","","","","","","","","",""
"","ISI","","html-keyboard-response","413","434473","0.0-1.0-588.0","0","0","17696","","null","","","null","65","NaN","","","","","","","","","","","","","","",""
"","S2","","html-keyboard-response","414","434727","0.0-1.0-589.0","0","0","17696","","null","","","null","65","","NaN","","","","","","","","","","","","","",""
"","response","","html-keyboard-response","415","435737","0.0-1.0-590.0","0","0","17696","","1007","","","75","65","","","2","65","training","adjacent","DE","4","5","M.jpg","O.jpg","0","1","0","",""
"","feedback","","html-keyboard-response","416","436740","0.0-1.0-591.0-0.0","0","0","17696","","null","","","null","65","","","","","","","","","","","","","","","",""
"","time_out","","html-keyboard-response","417","438743","0.0-1.0-593.0-0.0","0","0","17696","","null","","","null","65","","","","","","","","","","","","","","","",""
"","ITI","","html-keyboard-response","418","439746","0.0-1.0-594.0","0","0","17696","","null","","","null","65","","","","","","","","","","","","","","","NaN",""
"","S1","","html-keyboard-response","419","439997","0.0-1.0-596.0","0","0","17696","","null","","","null","66","","","","","","","","","","","","","","","",""
"","ISI","","html-keyboard-response","420","442000","0.0-1.0-597.0","0","0","17696","","null","","","null","66","NaN","","","","","","","","","","","","","","",""
"","S2","","html-keyboard-response","421","442253","0.0-1.0-598.0","0","0","17696","","null","","","null","66","","NaN","","","","","","","","","","","","","",""
"","response","","html-keyboard-response","422","443413","0.0-1.0-599.0","0","0","17696","","1160","","","68","66","","","2","66","training","adjacent","EF","5","6","O.jpg","P.jpg","1","1","1","",""
"","feedback","","html-keyboard-response","423","444416","0.0-1.0-600.0-0.0","0","0","17696","","null","","","null","66","","","","","","","","","","","","","","","",""
"","ITI","","html-keyboard-response","424","445419","0.0-1.0-603.0","0","0","17696","","null","","","null","66","","","","","","","","","","","","","","","NaN",""
"","S1","","html-keyboard-response","425","445673","0.0-1.0-605.0","0","0","17696","","null","","","null","67","","","","","","","","","","","","","","","",""
"","ISI","","html-keyboard-response","426","447675","0.0-1.0-606.0","0","0","17696","","null","","","null","67","NaN","","","","","","","","","","","","","","",""
"","S2","","html-keyboard-response","427","447929","0.0-1.0-607.0","0","0","17696","","null","","","null","67","","NaN","","","","","","","","","","","","","",""
"","response","","html-keyboard-response","428","448057","0.0-1.0-608.0","0","0","17696","","126","","","68","67","","","2","67","training","adjacent","BC","2","3","Q.jpg","N.jpg","1","1","1","",""
"","feedback","","html-keyboard-response","429","449059","0.0-1.0-609.0-0.0","0","0","17696","","null","","","null","67","","","","","","","","","","","","","","","",""
"","ITI","","html-keyboard-response","430","450062","0.0-1.0-612.0","0","0","17696","","null","","","null","67","","","","","","","","","","","","","","","NaN",""
"","S1","","html-keyboard-response","431","450316","0.0-1.0-614.0","0","0","17696","","null","","","null","68","","","","","","","","","","","","","","","",""
"","ISI","","html-keyboard-response","432","452318","0.0-1.0-615.0","0","0","17696","","null","","","null","68","NaN","","","","","","","","","","","","","","",""
"","S2","","html-keyboard-response","433","452572","0.0-1.0-616.0","0","0","17696","","null","","","null","68","","NaN","","","","","","","","","","","","","",""
"","response","","html-keyboard-response","434","453514","0.0-1.0-617.0","0","0","17696","","939","","","68","68","","","2","68","training","adjacent","CD","3","4","N.jpg","M.jpg","1","1","1","",""
"","feedback","","html-keyboard-response","435","454516","0.0-1.0-618.0-0.0","0","0","17696","","null","","","null","68","","","","","","","","","","","","","","","",""
"","ITI","","html-keyboard-response","436","455521","0.0-1.0-621.0","0","0","17696","","null","","","null","68","","","","","","","","","","","","","","","NaN",""
"","S1","","html-keyboard-response","437","455774","0.0-1.0-623.0","0","0","17696","","null","","","null","69","","","","","","","","","","","","","","","",""
"","ISI","","html-keyboard-response","438","457777","0.0-1.0-624.0","0","0","17696","","null","","","null","69","NaN","","","","","","","","","","","","","","",""
"","S2","","html-keyboard-response","439","458030","0.0-1.0-625.0","0","0","17696","","null","","","null","69","","NaN","","","","","","","","","","","","","",""
"","response","","html-keyboard-response","440","458129","0.0-1.0-626.0","0","0","17696","","96","","","75","69","","","2","69","training","adjacent","GF","7","6","L.jpg","P.jpg","0","0","1","",""
"","feedback","","html-keyboard-response","441","459133","0.0-1.0-627.0-0.0","0","0","17696","","null","","","null","69","","","","","","","","","","","","","","","",""
"","ITI","","html-keyboard-response","442","460137","0.0-1.0-630.0","0","0","17696","","null","","","null","69","","","","","","","","","","","","","","","NaN",""
"","S1","","html-keyboard-response","443","460391","0.0-1.0-632.0","0","0","17696","","null","","","null","70","","","","","","","","","","","","","","","",""
"","ISI","","html-keyboard-response","444","462394","0.0-1.0-633.0","0","0","17696","","null","","","null","70","NaN","","","","","","","","","","","","","","",""
"","S2","","html-keyboard-response","445","462648","0.0-1.0-634.0","0","0","17696","","null","","","null","70","","NaN","","","","","","","","","","","","","",""
"","response","","html-keyboard-response","446","462955","0.0-1.0-635.0","0","0","17696","","305","","","68","70","","","2","70","training","adjacent","FG","6","7","P.jpg","L.jpg","1","1","1","",""
"","feedback","","html-keyboard-response","447","463958","0.0-1.0-636.0-0.0","0","0","17696","","null","","","null","70","","","","","","","","","","","","","","","",""
"","ITI","","html-keyboard-response","448","464961","0.0-1.0-639.0","0","0","17696","","null","","","null","70","","","","","","","","","","","","","","","NaN",""
"","S1","","html-keyboard-response","449","465214","0.0-1.0-641.0","0","0","17696","","null","","","null","71","","","","","","","","","","","","","","","",""
"","ISI","","html-keyboard-response","450","467216","0.0-1.0-642.0","0","0","17696","","null","","","null","71","NaN","","","","","","","","","","","","","","",""
"","S2","","html-keyboard-response","451","467470","0.0-1.0-643.0","0","0","17696","","null","","","null","71","","NaN","","","","","","","","","","","","","",""
"","response","","html-keyboard-response","452","468446","0.0-1.0-644.0","0","0","17696","","975","","","68","71","","","2","71","training","adjacent","CD","3","4","N.jpg","M.jpg","1","1","1","",""
"","feedback","","html-keyboard-response","453","469449","0.0-1.0-645.0-0.0","0","0","17696","","null","","","null","71","","","","","","","","","","","","","","","",""
"","ITI","","html-keyboard-response","454","470452","0.0-1.0-648.0","0","0","17696","","null","","","null","71","","","","","","","","","","","","","","","NaN",""
"","S1","","html-keyboard-response","455","470705","0.0-1.0-650.0","0","0","17696","","null","","","null","72","","","","","","","","","","","","","","","",""
"","ISI","","html-keyboard-response","456","472707","0.0-1.0-651.0","0","0","17696","","null","","","null","72","NaN","","","","","","","","","","","","","","",""
"","S2","","html-keyboard-response","457","472961","0.0-1.0-652.0","0","0","17696","","null","","","null","72","","NaN","","","","","","","","","","","","","",""
"","response","","html-keyboard-response","458","473600","0.0-1.0-653.0","0","0","17696","","638","","","75","72","","","2","72","training","adjacent","DC","4","3","M.jpg","N.jpg","0","0","1","",""
"","feedback","","html-keyboard-response","459","474602","0.0-1.0-654.0-0.0","0","0","17696","","null","","","null","72","","","","","","","","","","","","","","","",""
"","ITI","","html-keyboard-response","460","475608","0.0-1.0-657.0","0","0","17696","","null","","","null","72","","","","","","","","","","","","","","","NaN",""
"","S1","","html-keyboard-response","461","475862","0.0-1.0-659.0","0","0","17696","","null","","","null","73","","","","","","","","","","","","","","","",""
"","ISI","","html-keyboard-response","462","477865","0.0-1.0-660.0","0","0","17696","","null","","","null","73","NaN","","","","","","","","","","","","","","",""
"","S2","","html-keyboard-response","463","478118","0.0-1.0-661.0","0","0","17696","","null","","","null","73","","NaN","","","","","","","","","","","","","",""
"","response","","html-keyboard-response","464","478406","0.0-1.0-662.0","0","0","17696","","286","","","68","73","","","2","73","training","adjacent","EF","5","6","O.jpg","P.jpg","1","1","1","",""
"","feedback","","html-keyboard-response","465","479409","0.0-1.0-663.0-0.0","0","0","17696","","null","","","null","73","","","","","","","","","","","","","","","",""
"","ITI","","html-keyboard-response","466","480412","0.0-1.0-666.0","0","0","17696","","null","","","null","73","","","","","","","","","","","","","","","NaN",""
"","S1","","html-keyboard-response","467","480666","0.0-1.0-668.0","0","0","17696","","null","","","null","74","","","","","","","","","","","","","","","",""
"","ISI","","html-keyboard-response","468","482669","0.0-1.0-669.0","0","0","17696","","null","","","null","74","NaN","","","","","","","","","","","","","","",""
"","S2","","html-keyboard-response","469","482922","0.0-1.0-670.0","0","0","17696","","null","","","null","74","","NaN","","","","","","","","","","","","","",""
"","response","","html-keyboard-response","470","483983","0.0-1.0-671.0","0","0","17696","","1059","","","75","74","","","2","74","training","adjacent","FE","6","5","P.jpg","O.jpg","0","0","1","",""
"","feedback","","html-keyboard-response","471","484987","0.0-1.0-672.0-0.0","0","0","17696","","null","","","null","74","","","","","","","","","","","","","","","",""
"","ITI","","html-keyboard-response","472","485989","0.0-1.0-675.0","0","0","17696","","null","","","null","74","","","","","","","","","","","","","","","NaN",""
"","S1","","html-keyboard-response","473","486244","0.0-1.0-677.0","0","0","17696","","null","","","null","75","","","","","","","","","","","","","","","",""
"","ISI","","html-keyboard-response","474","488246","0.0-1.0-678.0","0","0","17696","","null","","","null","75","NaN","","","","","","","","","","","","","","",""
"","S2","","html-keyboard-response","475","488498","0.0-1.0-679.0","0","0","17696","","null","","","null","75","","NaN","","","","","","","","","","","","","",""
"","response","","html-keyboard-response","476","488937","0.0-1.0-680.0","0","0","17696","","437","","","75","75","","","2","75","training","adjacent","BA","2","1","Q.jpg","R.jpg","0","0","1","",""
"","feedback","","html-keyboard-response","477","489941","0.0-1.0-681.0-0.0","0","0","17696","","null","","","null","75","","","","","","","","","","","","","","","",""
"","ITI","","html-keyboard-response","478","490944","0.0-1.0-684.0","0","0","17696","","null","","","null","75","","","","","","","","","","","","","","","NaN",""
"","S1","","html-keyboard-response","479","491196","0.0-1.0-686.0","0","0","17696","","null","","","null","76","","","","","","","","","","","","","","","",""
"","ISI","","html-keyboard-response","480","493199","0.0-1.0-687.0","0","0","17696","","null","","","null","76","NaN","","","","","","","","","","","","","","",""
"","S2","","html-keyboard-response","481","493452","0.0-1.0-688.0","0","0","17696","","null","","","null","76","","NaN","","","","","","","","","","","","","",""
"","response","","html-keyboard-response","482","494194","0.0-1.0-689.0","0","0","17696","","739","","","68","76","","","2","76","training","adjacent","CD","3","4","N.jpg","M.jpg","1","1","1","",""
"","feedback","","html-keyboard-response","483","495206","0.0-1.0-690.0-0.0","0","0","17696","","null","","","null","76","","","","","","","","","","","","","","","",""
"","ITI","","html-keyboard-response","484","496209","0.0-1.0-693.0","0","0","17696","","null","","","null","76","","","","","","","","","","","","","","","NaN",""
"","S1","","html-keyboard-response","485","496462","0.0-1.0-695.0","0","0","17696","","null","","","null","77","","","","","","","","","","","","","","","",""
"","ISI","","html-keyboard-response","486","498465","0.0-1.0-696.0","0","0","17696","","null","","","null","77","NaN","","","","","","","","","","","","","","",""
"","S2","","html-keyboard-response","487","498718","0.0-1.0-697.0","0","0","17696","","null","","","null","77","","NaN","","","","","","","","","","","","","",""
"","response","","html-keyboard-response","488","499343","0.0-1.0-698.0","0","0","17696","","623","","","75","77","","","2","77","training","adjacent","BA","2","1","Q.jpg","R.jpg","0","0","1","",""
"","feedback","","html-keyboard-response","489","500346","0.0-1.0-699.0-0.0","0","0","17696","","null","","","null","77","","","","","","","","","","","","","","","",""
"","ITI","","html-keyboard-response","490","501348","0.0-1.0-702.0","0","0","17696","","null","","","null","77","","","","","","","","","","","","","","","NaN",""
"","S1","","html-keyboard-response","491","501602","0.0-1.0-704.0","0","0","17696","","null","","","null","78","","","","","","","","","","","","","","","",""
"","ISI","","html-keyboard-response","492","503604","0.0-1.0-705.0","0","0","17696","","null","","","null","78","NaN","","","","","","","","","","","","","","",""
"","S2","","html-keyboard-response","493","503856","0.0-1.0-706.0","0","0","17696","","null","","","null","78","","NaN","","","","","","","","","","","","","",""
"","response","","html-keyboard-response","494","504306","0.0-1.0-707.0","0","0","17696","","448","","","75","78","","","2","78","training","adjacent","DC","4","3","M.jpg","N.jpg","0","0","1","",""
"","feedback","","html-keyboard-response","495","505308","0.0-1.0-708.0-0.0","0","0","17696","","null","","","null","78","","","","","","","","","","","","","","","",""
"","ITI","","html-keyboard-response","496","506310","0.0-1.0-711.0","0","0","17696","","null","","","null","78","","","","","","","","","","","","","","","NaN",""
"","S1","","html-keyboard-response","497","506564","0.0-1.0-713.0","0","0","17696","","null","","","null","79","","","","","","","","","","","","","","","",""
"","ISI","","html-keyboard-response","498","508566","0.0-1.0-714.0","0","0","17696","","null","","","null","79","NaN","","","","","","","","","","","","","","",""
"","S2","","html-keyboard-response","499","508820","0.0-1.0-715.0","0","0","17696","","null","","","null","79","","NaN","","","","","","","","","","","","","",""
"","response","","html-keyboard-response","500","509922","0.0-1.0-716.0","0","0","17696","","1101","","","68","79","","","2","79","training","adjacent","DE","4","5","M.jpg","O.jpg","1","1","1","",""
"","feedback","","html-keyboard-response","501","510926","0.0-1.0-717.0-0.0","0","0","17696","","null","","","null","79","","","","","","","","","","","","","","","",""
"","ITI","","html-keyboard-response","502","511930","0.0-1.0-720.0","0","0","17696","","null","","","null","79","","","","","","","","","","","","","","","NaN",""
"","S1","","html-keyboard-response","503","512183","0.0-1.0-722.0","0","0","17696","","null","","","null","80","","","","","","","","","","","","","","","",""
"","ISI","","html-keyboard-response","504","514186","0.0-1.0-723.0","0","0","17696","","null","","","null","80","NaN","","","","","","","","","","","","","","",""
"","S2","","html-keyboard-response","505","514439","0.0-1.0-724.0","0","0","17696","","null","","","null","80","","NaN","","","","","","","","","","","","","",""
"","response","","html-keyboard-response","506","514489","0.0-1.0-725.0","0","0","17696","","48","","","75","80","","","2","80","training","adjacent","GF","7","6","L.jpg","P.jpg","0","0","1","",""
"","feedback","","html-keyboard-response","507","515492","0.0-1.0-726.0-0.0","0","0","17696","","null","","","null","80","","","","","","","","","","","","","","","",""
"","ITI","","html-keyboard-response","508","516495","0.0-1.0-729.0","0","0","17696","","null","","","null","80","","","","","","","","","","","","","","","NaN",""
"","S1","","html-keyboard-response","509","516747","0.0-1.0-731.0","0","0","17696","","null","","","null","81","","","","","","","","","","","","","","","",""
"","ISI","","html-keyboard-response","510","518750","0.0-1.0-732.0","0","0","17696","","null","","","null","81","NaN","","","","","","","","","","","","","","",""
"","S2","","html-keyboard-response","511","519003","0.0-1.0-733.0","0","0","17696","","null","","","null","81","","NaN","","","","","","","","","","","","","",""
"","response","","html-keyboard-response","512","519472","0.0-1.0-734.0","0","0","17696","","467","","","68","81","","","2","81","training","adjacent","AB","1","2","R.jpg","Q.jpg","1","1","1","",""
"","feedback","","html-keyboard-response","513","520476","0.0-1.0-735.0-0.0","0","0","17696","","null","","","null","81","","","","","","","","","","","","","","","",""
"","ITI","","html-keyboard-response","514","521479","0.0-1.0-738.0","0","0","17696","","null","","","null","81","","","","","","","","","","","","","","","NaN",""
"","S1","","html-keyboard-response","515","521730","0.0-1.0-740.0","0","0","17696","","null","","","null","82","","","","","","","","","","","","","","","",""
"","ISI","","html-keyboard-response","516","523732","0.0-1.0-741.0","0","0","17696","","null","","","null","82","NaN","","","","","","","","","","","","","","",""
"","S2","","html-keyboard-response","517","523985","0.0-1.0-742.0","0","0","17696","","null","","","null","82","","NaN","","","","","","","","","","","","","",""
"","response","","html-keyboard-response","518","524514","0.0-1.0-743.0","0","0","17696","","527","","","75","82","","","2","82","training","adjacent","ED","5","4","O.jpg","M.jpg","0","0","1","",""
"","feedback","","html-keyboard-response","519","525517","0.0-1.0-744.0-0.0","0","0","17696","","null","","","null","82","","","","","","","","","","","","","","","",""
"","ITI","","html-keyboard-response","520","526521","0.0-1.0-747.0","0","0","17696","","null","","","null","82","","","","","","","","","","","","","","","NaN",""
"","S1","","html-keyboard-response","521","526774","0.0-1.0-749.0","0","0","17696","","null","","","null","83","","","","","","","","","","","","","","","",""
"","ISI","","html-keyboard-response","522","528777","0.0-1.0-750.0","0","0","17696","","null","","","null","83","NaN","","","","","","","","","","","","","","",""
"","S2","","html-keyboard-response","523","529030","0.0-1.0-751.0","0","0","17696","","null","","","null","83","","NaN","","","","","","","","","","","","","",""
"","response","","html-keyboard-response","524","529226","0.0-1.0-752.0","0","0","17696","","194","","","68","83","","","2","83","training","adjacent","FG","6","7","P.jpg","L.jpg","1","1","1","",""
"","feedback","","html-keyboard-response","525","530229","0.0-1.0-753.0-0.0","0","0","17696","","null","","","null","83","","","","","","","","","","","","","","","",""
"","ITI","","html-keyboard-response","526","531233","0.0-1.0-756.0","0","0","17696","","null","","","null","83","","","","","","","","","","","","","","","NaN",""
"","S1","","html-keyboard-response","527","531486","0.0-1.0-758.0","0","0","17696","","null","","","null","84","","","","","","","","","","","","","","","",""
"","ISI","","html-keyboard-response","528","533488","0.0-1.0-759.0","0","0","17696","","null","","","null","84","NaN","","","","","","","","","","","","","","",""
"","S2","","html-keyboard-response","529","533742","0.0-1.0-760.0","0","0","17696","","null","","","null","84","","NaN","","","","","","","","","","","","","",""
"","response","","html-keyboard-response","530","533876","0.0-1.0-761.0","0","0","17696","","132","","","75","84","","","2","84","training","adjacent","GF","7","6","L.jpg","P.jpg","0","0","1","",""
"","feedback","","html-keyboard-response","531","534878","0.0-1.0-762.0-0.0","0","0","17696","","null","","","null","84","","","","","","","","","","","","","","","",""
"","ITI","","html-keyboard-response","532","535882","0.0-1.0-765.0","0","0","17696","","null","","","null","84","","","","","","","","","","","","","","","NaN",""
"","S1","","html-keyboard-response","533","536135","0.0-1.0-767.0","0","0","17696","","null","","","null","85","","","","","","","","","","","","","","","",""
"","ISI","","html-keyboard-response","534","538137","0.0-1.0-768.0","0","0","17696","","null","","","null","85","NaN","","","","","","","","","","","","","","",""
"","S2","","html-keyboard-response","535","538390","0.0-1.0-769.0","0","0","17696","","null","","","null","85","","NaN","","","","","","","","","","","","","",""
"","response","","html-keyboard-response","536","539120","0.0-1.0-770.0","0","0","17696","","728","","","75","85","","","2","85","training","adjacent","CB","3","2","N.jpg","Q.jpg","0","0","1","",""
"","feedback","","html-keyboard-response","537","540125","0.0-1.0-771.0-0.0","0","0","17696","","null","","","null","85","","","","","","","","","","","","","","","",""
"","ITI","","html-keyboard-response","538","541128","0.0-1.0-774.0","0","0","17696","","null","","","null","85","","","","","","","","","","","","","","","NaN",""
"","S1","","html-keyboard-response","539","541380","0.0-1.0-776.0","0","0","17696","","null","","","null","86","","","","","","","","","","","","","","","",""
"","ISI","","html-keyboard-response","540","543383","0.0-1.0-777.0","0","0","17696","","null","","","null","86","NaN","","","","","","","","","","","","","","",""
"","S2","","html-keyboard-response","541","543636","0.0-1.0-778.0","0","0","17696","","null","","","null","86","","NaN","","","","","","","","","","","","","",""
"","response","","html-keyboard-response","542","544144","0.0-1.0-779.0","0","0","17696","","506","","","75","86","","","2","86","training","adjacent","BA","2","1","Q.jpg","R.jpg","0","0","1","",""
"","feedback","","html-keyboard-response","543","545148","0.0-1.0-780.0-0.0","0","0","17696","","null","","","null","86","","","","","","","","","","","","","","","",""
"","ITI","","html-keyboard-response","544","546151","0.0-1.0-783.0","0","0","17696","","null","","","null","86","","","","","","","","","","","","","","","NaN",""
"","S1","","html-keyboard-response","545","546405","0.0-1.0-785.0","0","0","17696","","null","","","null","87","","","","","","","","","","","","","","","",""
"","ISI","","html-keyboard-response","546","548407","0.0-1.0-786.0","0","0","17696","","null","","","null","87","NaN","","","","","","","","","","","","","","",""
"","S2","","html-keyboard-response","547","548661","0.0-1.0-787.0","0","0","17696","","null","","","null","87","","NaN","","","","","","","","","","","","","",""
"","response","","html-keyboard-response","548","549278","0.0-1.0-788.0","0","0","17696","","615","","","75","87","","","2","87","training","adjacent","DC","4","3","M.jpg","N.jpg","0","0","1","",""
"","feedback","","html-keyboard-response","549","550281","0.0-1.0-789.0-0.0","0","0","17696","","null","","","null","87","","","","","","","","","","","","","","","",""
"","ITI","","html-keyboard-response","550","551285","0.0-1.0-792.0","0","0","17696","","null","","","null","87","","","","","","","","","","","","","","","NaN",""
"","S1","","html-keyboard-response","551","551538","0.0-1.0-794.0","0","0","17696","","null","","","null","88","","","","","","","","","","","","","","","",""
"","ISI","","html-keyboard-response","552","553541","0.0-1.0-795.0","0","0","17696","","null","","","null","88","NaN","","","","","","","","","","","","","","",""
"","S2","","html-keyboard-response","553","553794","0.0-1.0-796.0","0","0","17696","","null","","","null","88","","NaN","","","","","","","","","","","","","",""
"","response","","html-keyboard-response","554","553928","0.0-1.0-797.0","0","0","17696","","132","","","68","88","","","2","88","training","adjacent","FG","6","7","P.jpg","L.jpg","1","1","1","",""
"","feedback","","html-keyboard-response","555","554931","0.0-1.0-798.0-0.0","0","0","17696","","null","","","null","88","","","","","","","","","","","","","","","",""
"","ITI","","html-keyboard-response","556","555935","0.0-1.0-801.0","0","0","17696","","null","","","null","88","","","","","","","","","","","","","","","NaN",""
"","S1","","html-keyboard-response","557","556188","0.0-1.0-803.0","0","0","17696","","null","","","null","89","","","","","","","","","","","","","","","",""
"","ISI","","html-keyboard-response","558","558190","0.0-1.0-804.0","0","0","17696","","null","","","null","89","NaN","","","","","","","","","","","","","","",""
"","S2","","html-keyboard-response","559","558443","0.0-1.0-805.0","0","0","17696","","null","","","null","89","","NaN","","","","","","","","","","","","","",""
"","response","","html-keyboard-response","560","559165","0.0-1.0-806.0","0","0","17696","","719","","","68","89","","","2","89","training","adjacent","EF","5","6","O.jpg","P.jpg","1","1","1","",""
"","feedback","","html-keyboard-response","561","560168","0.0-1.0-807.0-0.0","0","0","17696","","null","","","null","89","","","","","","","","","","","","","","","",""
"","ITI","","html-keyboard-response","562","561172","0.0-1.0-810.0","0","0","17696","","null","","","null","89","","","","","","","","","","","","","","","NaN",""
"","S1","","html-keyboard-response","563","561424","0.0-1.0-812.0","0","0","17696","","null","","","null","90","","","","","","","","","","","","","","","",""
"","ISI","","html-keyboard-response","564","563427","0.0-1.0-813.0","0","0","17696","","null","","","null","90","NaN","","","","","","","","","","","","","","",""
"","S2","","html-keyboard-response","565","563681","0.0-1.0-814.0","0","0","17696","","null","","","null","90","","NaN","","","","","","","","","","","","","",""
"","response","","html-keyboard-response","566","564443","0.0-1.0-815.0","0","0","17696","","759","","","68","90","","","2","90","training","adjacent","BC","2","3","Q.jpg","N.jpg","1","1","1","",""
"","feedback","","html-keyboard-response","567","565458","0.0-1.0-816.0-0.0","0","0","17696","","null","","","null","90","","","","","","","","","","","","","","","",""
"","ITI","","html-keyboard-response","568","566467","0.0-1.0-819.0","0","0","17696","","null","","","null","90","","","","","","","","","","","","","","","NaN",""
"","S1","","html-keyboard-response","569","566720","0.0-1.0-821.0","0","0","17696","","null","","","null","91","","","","","","","","","","","","","","","",""
"","ISI","","html-keyboard-response","570","568723","0.0-1.0-822.0","0","0","17696","","null","","","null","91","NaN","","","","","","","","","","","","","","",""
"","S2","","html-keyboard-response","571","568976","0.0-1.0-823.0","0","0","17696","","null","","","null","91","","NaN","","","","","","","","","","","","","",""
"","response","","html-keyboard-response","572","569705","0.0-1.0-824.0","0","0","17696","","727","","","75","91","","","2","91","training","adjacent","ED","5","4","O.jpg","M.jpg","0","0","1","",""
"","feedback","","html-keyboard-response","573","570709","0.0-1.0-825.0-0.0","0","0","17696","","null","","","null","91","","","","","","","","","","","","","","","",""
"","ITI","","html-keyboard-response","574","571712","0.0-1.0-828.0","0","0","17696","","null","","","null","91","","","","","","","","","","","","","","","NaN",""
"","S1","","html-keyboard-response","575","571978","0.0-1.0-830.0","0","0","17696","","null","","","null","92","","","","","","","","","","","","","","","",""
"","ISI","","html-keyboard-response","576","573980","0.0-1.0-831.0","0","0","17696","","null","","","null","92","NaN","","","","","","","","","","","","","","",""
"","S2","","html-keyboard-response","577","574233","0.0-1.0-832.0","0","0","17696","","null","","","null","92","","NaN","","","","","","","","","","","","","",""
"","response","","html-keyboard-response","578","574551","0.0-1.0-833.0","0","0","17696","","316","","","75","92","","","2","92","training","adjacent","ED","5","4","O.jpg","M.jpg","0","0","1","",""
"","feedback","","html-keyboard-response","579","575555","0.0-1.0-834.0-0.0","0","0","17696","","null","","","null","92","","","","","","","","","","","","","","","",""
"","ITI","","html-keyboard-response","580","576559","0.0-1.0-837.0","0","0","17696","","null","","","null","92","","","","","","","","","","","","","","","NaN",""
"","S1","","html-keyboard-response","581","576812","0.0-1.0-839.0","0","0","17696","","null","","","null","93","","","","","","","","","","","","","","","",""
"","ISI","","html-keyboard-response","582","578816","0.0-1.0-840.0","0","0","17696","","null","","","null","93","NaN","","","","","","","","","","","","","","",""
"","S2","","html-keyboard-response","583","579069","0.0-1.0-841.0","0","0","17696","","null","","","null","93","","NaN","","","","","","","","","","","","","",""
"","response","","html-keyboard-response","584","579296","0.0-1.0-842.0","0","0","17696","","226","","","68","93","","","2","93","training","adjacent","AB","1","2","R.jpg","Q.jpg","1","1","1","",""
