"success","ttype","start_time","trial_type","trial_index","time_elapsed","internal_node_id","warning","missed_checkup","PID","view_history","rt","responses","repeat_instructions","key_press","index","keypress_isi","keypress_S2","block","trial_num","phase","group_type","pair_type","S1_stim","S2_stim","S1_img","S2_img","S1_chosen","S1_higher","accuracy","keypress_iti","total_bonus_tally"
"true","full_screen","d04062023hr2002","fullscreen","0","12173","0.0-0.0","0","0","84198","","","","","","","","","","","","","","","","","","","","","",""
"","instructions","","instructions","1","35484","0.0-1.0-0.0-0.0","0","0","84198","[{""page_index"":0,""viewing_time"":4866},{""page_index"":1,""viewing_time"":7611},{""page_index"":2,""viewing_time"":5451},{""page_index"":1,""viewing_time"":1909},{""page_index"":2,""viewing_time"":1437},{""page_index"":3,""viewing_time"":2034}]","23308","","","","","","","","","","","","","","","","","","","",""
"","comprehension_check","","survey-multi-choice","2","44839","0.0-1.0-0.0-1.0","0","0","84198","","9352","{""Q0"":""True"",""Q1"":""D"",""Q2"":""Only when the screen 'MAKE A CHOICE' is shown"",""Q3"":""Green mark"",""Q4"":""either D or K""}","1","","","","","","","","","","","","","","","","","",""
"","missed_instruction_checkup","","html-keyboard-response","3","46375","0.0-1.0-0.0-2.0-0.0","0","1","84198","","1533","","","32","","","","","","","","","","","","","","","","",""
"","instructions","","instructions","4","53495","0.0-1.0-0.1-0.1","0","0","84198","[{""page_index"":0,""viewing_time"":1788},{""page_index"":1,""viewing_time"":3051},{""page_index"":2,""viewing_time"":1600},{""page_index"":3,""viewing_time"":680}]","7119","","","","","","","","","","","","","","","","","","","",""
"","comprehension_check","","survey-multi-choice","5","60915","0.0-1.0-0.1-1.1","0","0","84198","","7417","{""Q0"":""True"",""Q1"":""D"",""Q2"":""Once the second image appears and while the screen 'MAKE A CHOICE' is shown"",""Q3"":""Green mark"",""Q4"":""either D or K""}","0","","","","","","","","","","","","","","","","","",""
"","start_exp","","html-keyboard-response","6","61897","0.0-1.0-1.0","0","0","84198","","980","","","32","","","","","","","","","","","","","","","","",""
"","S1","","html-keyboard-response","7","62057","0.0-1.0-2.0","0","0","84198","","null","","","null","0","","","","","","","","","","","","","","","",""
"","ISI","","html-keyboard-response","8","64070","0.0-1.0-3.0","0","0","84198","","null","","","null","0","NaN","","","","","","","","","","","","","","",""
"","S2","","html-keyboard-response","9","64225","0.0-1.0-4.0","0","0","84198","","null","","","null","0","","NaN","","","","","","","","","","","","","",""
"","response","","html-keyboard-response","10","64861","0.0-1.0-5.0-0.0","0","0","84198","","635","","","68","0","","","1","0","training","adjacent","CB","3","2","O.jpg","M.jpg","1","0","0","",""
"","feedback","","html-keyboard-response","11","65878","0.0-1.0-6.0-0.0","0","0","84198","","null","","","null","0","","","","","","","","","","","","","","","",""
"","time_out","","html-keyboard-response","12","67882","0.0-1.0-8.0-0.0","0","0","84198","","null","","","null","0","","","","","","","","","","","","","","","",""
"","ITI","","html-keyboard-response","13","68883","0.0-1.0-9.0","0","0","84198","","null","","","null","0","","","","","","","","","","","","","","","NaN",""
"","S1","","html-keyboard-response","14","69041","0.0-1.0-11.0","0","0","84198","","null","","","null","1","","","","","","","","","","","","","","","",""
"","ISI","","html-keyboard-response","15","71049","0.0-1.0-12.0","0","0","84198","","null","","","null","1","NaN","","","","","","","","","","","","","","",""
"","S2","","html-keyboard-response","16","71202","0.0-1.0-13.0","0","0","84198","","null","","","null","1","","NaN","","","","","","","","","","","","","",""
"","response","","html-keyboard-response","17","71481","0.0-1.0-14.0-0.0","0","0","84198","","277","","","75","1","","","1","1","training","adjacent","AB","1","2","L.jpg","M.jpg","0","1","0","",""
"","feedback","","html-keyboard-response","18","72495","0.0-1.0-15.0-0.0","0","0","84198","","null","","","null","1","","","","","","","","","","","","","","","",""
"","time_out","","html-keyboard-response","19","74508","0.0-1.0-17.0-0.0","0","0","84198","","null","","","null","1","","","","","","","","","","","","","","","",""
"","ITI","","html-keyboard-response","20","75525","0.0-1.0-18.0","0","0","84198","","null","","","null","1","","","","","","","","","","","","","","","NaN",""
"","S1","","html-keyboard-response","21","75676","0.0-1.0-20.0","0","0","84198","","null","","","null","2","","","","","","","","","","","","","","","",""
"","ISI","","html-keyboard-response","22","77695","0.0-1.0-21.0","0","0","84198","","null","","","null","2","NaN","","","","","","","","","","","","","","",""
"","S2","","html-keyboard-response","23","77857","0.0-1.0-22.0","0","0","84198","","null","","","null","2","","NaN","","","","","","","","","","","","","",""
"","response","","html-keyboard-response","24","78194","0.0-1.0-23.0-0.0","0","0","84198","","335","","","68","2","","","1","2","training","adjacent","DE","4","5","N.jpg","Q.jpg","1","1","1","",""
"","feedback","","html-keyboard-response","25","79197","0.0-1.0-24.0-0.0","0","0","84198","","null","","","null","2","","","","","","","","","","","","","","","",""
"","ITI","","html-keyboard-response","26","80214","0.0-1.0-27.0","0","0","84198","","null","","","null","2","","","","","","","","","","","","","","","NaN",""
"","S1","","html-keyboard-response","27","80379","0.0-1.0-29.0","0","0","84198","","null","","","null","3","","","","","","","","","","","","","","","",""
"","ISI","","html-keyboard-response","28","82402","0.0-1.0-30.0","0","0","84198","","null","","","null","3","NaN","","","","","","","","","","","","","","",""
"","S2","","html-keyboard-response","29","82565","0.0-1.0-31.0","0","0","84198","","null","","","null","3","","NaN","","","","","","","","","","","","","",""
"","response","","html-keyboard-response","30","82804","0.0-1.0-32.0-0.0","0","0","84198","","238","","","68","3","","","1","3","training","adjacent","AB","1","2","L.jpg","M.jpg","1","1","1","",""
"","feedback","","html-keyboard-response","31","83819","0.0-1.0-33.0-0.0","0","0","84198","","null","","","null","3","","","","","","","","","","","","","","","",""
"","ITI","","html-keyboard-response","32","84825","0.0-1.0-36.0","0","0","84198","","null","","","null","3","","","","","","","","","","","","","","","NaN",""
"","S1","","html-keyboard-response","33","85005","0.0-1.0-38.0","0","0","84198","","null","","","null","4","","","","","","","","","","","","","","","",""
"","ISI","","html-keyboard-response","34","87013","0.0-1.0-39.0","0","0","84198","","null","","","null","4","NaN","","","","","","","","","","","","","","",""
"","S2","","html-keyboard-response","35","87169","0.0-1.0-40.0","0","0","84198","","null","","","null","4","","NaN","","","","","","","","","","","","","",""
"","response","","html-keyboard-response","36","87422","0.0-1.0-41.0-0.0","0","0","84198","","251","","","68","4","","","1","4","training","adjacent","CD","3","4","O.jpg","N.jpg","1","1","1","",""
"","feedback","","html-keyboard-response","37","88428","0.0-1.0-42.0-0.0","0","0","84198","","null","","","null","4","","","","","","","","","","","","","","","",""
"","ITI","","html-keyboard-response","38","89441","0.0-1.0-45.0","0","0","84198","","null","","","null","4","","","","","","","","","","","","","","","NaN",""
"","S1","","html-keyboard-response","39","89605","0.0-1.0-47.0","0","0","84198","","null","","","null","5","","","","","","","","","","","","","","","",""
"","ISI","","html-keyboard-response","40","91614","0.0-1.0-48.0","0","0","84198","","null","","","null","5","NaN","","","","","","","","","","","","","","",""
"","S2","","html-keyboard-response","41","91776","0.0-1.0-49.0","0","0","84198","","null","","","null","5","","NaN","","","","","","","","","","","","","",""
"","response","","html-keyboard-response","42","91905","0.0-1.0-50.0-0.0","0","0","84198","","128","","","75","5","","","1","5","training","adjacent","GF","7","6","P.jpg","R.jpg","0","0","1","",""
"","feedback","","html-keyboard-response","43","92913","0.0-1.0-51.0-0.0","0","0","84198","","null","","","null","5","","","","","","","","","","","","","","","",""
"","ITI","","html-keyboard-response","44","93930","0.0-1.0-54.0","0","0","84198","","null","","","null","5","","","","","","","","","","","","","","","NaN",""
"","S1","","html-keyboard-response","45","94090","0.0-1.0-56.0","0","0","84198","","null","","","null","6","","","","","","","","","","","","","","","",""
"","ISI","","html-keyboard-response","46","96094","0.0-1.0-57.0","0","0","84198","","null","","","null","6","NaN","","","","","","","","","","","","","","",""
"","S2","","html-keyboard-response","47","96247","0.0-1.0-58.0","0","0","84198","","null","","","null","6","","NaN","","","","","","","","","","","","","",""
"","response","","html-keyboard-response","48","96491","0.0-1.0-59.0-0.0","0","0","84198","","243","","","68","6","","","1","6","training","adjacent","EF","5","6","Q.jpg","R.jpg","1","1","1","",""
"","feedback","","html-keyboard-response","49","97495","0.0-1.0-60.0-0.0","0","0","84198","","null","","","null","6","","","","","","","","","","","","","","","",""
"","ITI","","html-keyboard-response","50","98497","0.0-1.0-63.0","0","0","84198","","null","","","null","6","","","","","","","","","","","","","","","NaN",""
"","S1","","html-keyboard-response","51","98650","0.0-1.0-65.0","0","0","84198","","null","","","null","7","","","","","","","","","","","","","","","",""
"","ISI","","html-keyboard-response","52","100652","0.0-1.0-66.0","0","0","84198","","null","","","null","7","NaN","","","","","","","","","","","","","","",""
"","S2","","html-keyboard-response","53","100815","0.0-1.0-67.0","0","0","84198","","null","","","null","7","","NaN","","","","","","","","","","","","","",""
"","response","","html-keyboard-response","54","100917","0.0-1.0-68.0-0.0","0","0","84198","","101","","","75","7","","","1","7","training","adjacent","BA","2","1","M.jpg","L.jpg","0","0","1","",""
"","feedback","","html-keyboard-response","55","101923","0.0-1.0-69.0-0.0","0","0","84198","","null","","","null","7","","","","","","","","","","","","","","","",""
"","ITI","","html-keyboard-response","56","102929","0.0-1.0-72.0","0","0","84198","","null","","","null","7","","","","","","","","","","","","","","","NaN",""
"","S1","","html-keyboard-response","57","103086","0.0-1.0-74.0","0","0","84198","","null","","","null","8","","","","","","","","","","","","","","","",""
"","ISI","","html-keyboard-response","58","105092","0.0-1.0-75.0","0","0","84198","","null","","","null","8","NaN","","","","","","","","","","","","","","",""
"","S2","","html-keyboard-response","59","105244","0.0-1.0-76.0","0","0","84198","","null","","","null","8","","NaN","","","","","","","","","","","","","",""
"","response","","html-keyboard-response","60","105375","0.0-1.0-77.0-0.0","0","0","84198","","130","","","75","8","","","1","8","training","adjacent","FE","6","5","R.jpg","Q.jpg","0","0","1","",""
"","feedback","","html-keyboard-response","61","106389","0.0-1.0-78.0-0.0","0","0","84198","","null","","","null","8","","","","","","","","","","","","","","","",""
"","ITI","","html-keyboard-response","62","107391","0.0-1.0-81.0","0","0","84198","","null","","","null","8","","","","","","","","","","","","","","","NaN",""
"","S1","","html-keyboard-response","63","107543","0.0-1.0-83.0","0","0","84198","","null","","","null","9","","","","","","","","","","","","","","","",""
"","ISI","","html-keyboard-response","64","109546","0.0-1.0-84.0","0","0","84198","","null","","","null","9","NaN","","","","","","","","","","","","","","",""
"","S2","","html-keyboard-response","65","109706","0.0-1.0-85.0","0","0","84198","","null","","","null","9","","NaN","","","","","","","","","","","","","",""
"","response","","html-keyboard-response","66","110058","0.0-1.0-86.0-0.0","0","0","84198","","351","","","75","9","","","1","9","training","adjacent","AB","1","2","L.jpg","M.jpg","0","1","0","",""
"","feedback","","html-keyboard-response","67","111060","0.0-1.0-87.0-0.0","0","0","84198","","null","","","null","9","","","","","","","","","","","","","","","",""
"","time_out","","html-keyboard-response","68","113064","0.0-1.0-89.0-0.0","0","0","84198","","null","","","null","9","","","","","","","","","","","","","","","",""
"","ITI","","html-keyboard-response","69","114065","0.0-1.0-90.0","0","0","84198","","null","","","null","9","","","","","","","","","","","","","","","NaN",""
"","S1","","html-keyboard-response","70","114234","0.0-1.0-92.0","0","0","84198","","null","","","null","10","","","","","","","","","","","","","","","",""
"","ISI","","html-keyboard-response","71","116245","0.0-1.0-93.0","0","0","84198","","null","","","null","10","NaN","","","","","","","","","","","","","","",""
"","S2","","html-keyboard-response","72","116399","0.0-1.0-94.0","0","0","84198","","null","","","null","10","","NaN","","","","","","","","","","","","","",""
"","response","","html-keyboard-response","73","116588","0.0-1.0-95.0-0.0","0","0","84198","","188","","","68","10","","","1","10","training","adjacent","BC","2","3","M.jpg","O.jpg","1","1","1","",""
"","feedback","","html-keyboard-response","74","117601","0.0-1.0-96.0-0.0","0","0","84198","","null","","","null","10","","","","","","","","","","","","","","","",""
"","ITI","","html-keyboard-response","75","118603","0.0-1.0-99.0","0","0","84198","","null","","","null","10","","","","","","","","","","","","","","","NaN",""
"","S1","","html-keyboard-response","76","118757","0.0-1.0-101.0","0","0","84198","","null","","","null","11","","","","","","","","","","","","","","","",""
"","ISI","","html-keyboard-response","77","120760","0.0-1.0-102.0","0","0","84198","","null","","","null","11","NaN","","","","","","","","","","","","","","",""
"","S2","","html-keyboard-response","78","120923","0.0-1.0-103.0","0","0","84198","","null","","","null","11","","NaN","","","","","","","","","","","","","",""
"","response","","html-keyboard-response","79","121239","0.0-1.0-104.0-0.0","0","0","84198","","315","","","68","11","","","1","11","training","adjacent","DC","4","3","N.jpg","O.jpg","1","0","0","",""
"","feedback","","html-keyboard-response","80","122246","0.0-1.0-105.0-0.0","0","0","84198","","null","","","null","11","","","","","","","","","","","","","","","",""
"","time_out","","html-keyboard-response","81","124263","0.0-1.0-107.0-0.0","0","0","84198","","null","","","null","11","","","","","","","","","","","","","","","",""
"","ITI","","html-keyboard-response","82","125265","0.0-1.0-108.0","0","0","84198","","null","","","null","11","","","","","","","","","","","","","","","NaN",""
"","S1","","html-keyboard-response","83","125428","0.0-1.0-110.0","0","0","84198","","null","","","null","12","","","","","","","","","","","","","","","",""
"","ISI","","html-keyboard-response","84","127430","0.0-1.0-111.0","0","0","84198","","null","","","null","12","NaN","","","","","","","","","","","","","","",""
"","S2","","html-keyboard-response","85","127584","0.0-1.0-112.0","0","0","84198","","null","","","null","12","","NaN","","","","","","","","","","","","","",""
"","response","","html-keyboard-response","86","127802","0.0-1.0-113.0-0.0","0","0","84198","","218","","","68","12","","","1","12","training","adjacent","ED","5","4","Q.jpg","N.jpg","1","0","0","",""
"","feedback","","html-keyboard-response","87","128817","0.0-1.0-114.0-0.0","0","0","84198","","null","","","null","12","","","","","","","","","","","","","","","",""
"","time_out","","html-keyboard-response","88","130830","0.0-1.0-116.0-0.0","0","0","84198","","null","","","null","12","","","","","","","","","","","","","","","",""
"","ITI","","html-keyboard-response","89","131859","0.0-1.0-117.0","0","0","84198","","null","","","null","12","","","","","","","","","","","","","","","NaN",""
"","S1","","html-keyboard-response","90","132010","0.0-1.0-119.0","0","0","84198","","null","","","null","13","","","","","","","","","","","","","","","",""
"","ISI","","html-keyboard-response","91","134025","0.0-1.0-120.0","0","0","84198","","null","","","null","13","NaN","","","","","","","","","","","","","","",""
"","S2","","html-keyboard-response","92","134179","0.0-1.0-121.0","0","0","84198","","null","","","null","13","","NaN","","","","","","","","","","","","","",""
"","response","","html-keyboard-response","93","134357","0.0-1.0-122.0-0.0","0","0","84198","","177","","","75","13","","","1","13","training","adjacent","FE","6","5","R.jpg","Q.jpg","0","0","1","",""
"","feedback","","html-keyboard-response","94","135365","0.0-1.0-123.0-0.0","0","0","84198","","null","","","null","13","","","","","","","","","","","","","","","",""
"","ITI","","html-keyboard-response","95","136378","0.0-1.0-126.0","0","0","84198","","null","","","null","13","","","","","","","","","","","","","","","NaN",""
"","S1","","html-keyboard-response","96","136545","0.0-1.0-128.0","0","0","84198","","null","","","null","14","","","","","","","","","","","","","","","",""
"","ISI","","html-keyboard-response","97","138567","0.0-1.0-129.0","0","0","84198","","null","","","null","14","NaN","","","","","","","","","","","","","","",""
"","S2","","html-keyboard-response","98","138730","0.0-1.0-130.0","0","0","84198","","null","","","null","14","","NaN","","","","","","","","","","","","","",""
"","response","","html-keyboard-response","99","139023","0.0-1.0-131.0-0.0","0","0","84198","","292","","","75","14","","","1","14","training","adjacent","BC","2","3","M.jpg","O.jpg","0","1","0","",""
"","feedback","","html-keyboard-response","100","140030","0.0-1.0-132.0-0.0","0","0","84198","","null","","","null","14","","","","","","","","","","","","","","","",""
"","time_out","","html-keyboard-response","101","142042","0.0-1.0-134.0-0.0","0","0","84198","","null","","","null","14","","","","","","","","","","","","","","","",""
"","ITI","","html-keyboard-response","102","143045","0.0-1.0-135.0","0","0","84198","","null","","","null","14","","","","","","","","","","","","","","","NaN",""
"","S1","","html-keyboard-response","103","143195","0.0-1.0-137.0","0","0","84198","","null","","","null","15","","","","","","","","","","","","","","","",""
"","ISI","","html-keyboard-response","104","145206","0.0-1.0-138.0","0","0","84198","","null","","","null","15","NaN","","","","","","","","","","","","","","",""
"","S2","","html-keyboard-response","105","145358","0.0-1.0-139.0","0","0","84198","","null","","","null","15","","NaN","","","","","","","","","","","","","",""
"","response","","html-keyboard-response","106","145979","0.0-1.0-140.0-0.0","0","0","84198","","620","","","68","15","","","1","15","training","adjacent","ED","5","4","Q.jpg","N.jpg","1","0","0","",""
"","feedback","","html-keyboard-response","107","146994","0.0-1.0-141.0-0.0","0","0","84198","","null","","","null","15","","","","","","","","","","","","","","","",""
"","time_out","","html-keyboard-response","108","148997","0.0-1.0-143.0-0.0","0","0","84198","","null","","","null","15","","","","","","","","","","","","","","","",""
"","ITI","","html-keyboard-response","109","150010","0.0-1.0-144.0","0","0","84198","","null","","","null","15","","","","","","","","","","","","","","","NaN",""
"","S1","","html-keyboard-response","110","150162","0.0-1.0-146.0","0","0","84198","","null","","","null","16","","","","","","","","","","","","","","","",""
"","ISI","","html-keyboard-response","111","152187","0.0-1.0-147.0","0","0","84198","","null","","","null","16","NaN","","","","","","","","","","","","","","",""
"","S2","","html-keyboard-response","112","152344","0.0-1.0-148.0","0","0","84198","","null","","","null","16","","NaN","","","","","","","","","","","","","",""
"","response","","html-keyboard-response","113","152567","0.0-1.0-149.0-0.0","0","0","84198","","222","","","75","16","","","1","16","training","adjacent","FG","6","7","R.jpg","P.jpg","0","1","0","",""
"","feedback","","html-keyboard-response","114","153589","0.0-1.0-150.0-0.0","0","0","84198","","null","","","null","16","","","","","","","","","","","","","","","",""
"","time_out","","html-keyboard-response","115","155599","0.0-1.0-152.0-0.0","0","0","84198","","null","","","null","16","","","","","","","","","","","","","","","",""
"","ITI","","html-keyboard-response","116","156608","0.0-1.0-153.0","0","0","84198","","null","","","null","16","","","","","","","","","","","","","","","NaN",""
"","S1","","html-keyboard-response","117","156770","0.0-1.0-155.0","0","0","84198","","null","","","null","17","","","","","","","","","","","","","","","",""
"","ISI","","html-keyboard-response","118","158779","0.0-1.0-156.0","0","0","84198","","197","","","68","17","d","","","","","","","","","","","","","","",""
"","S2","","html-keyboard-response","119","158930","0.0-1.0-157.0","0","0","84198","","null","","","null","17","","NaN","","","","","","","","","","","","","",""
"","response","","html-keyboard-response","120","159297","0.0-1.0-158.0-0.0","0","0","84198","","366","","","68","17","","","1","17","training","adjacent","EF","5","6","Q.jpg","R.jpg","1","1","1","",""
"","feedback","","html-keyboard-response","121","160311","0.0-1.0-159.0-0.0","0","0","84198","","null","","","null","17","","","","","","","","","","","","","","","",""
"","ITI","","html-keyboard-response","122","161312","0.0-1.0-162.0","0","0","84198","","null","","","null","17","","","","","","","","","","","","","","","NaN",""
"","S1","","html-keyboard-response","123","161475","0.0-1.0-164.0","0","0","84198","","null","","","null","18","","","","","","","","","","","","","","","",""
"","ISI","","html-keyboard-response","124","163477","0.0-1.0-165.0","0","0","84198","","null","","","null","18","NaN","","","","","","","","","","","","","","",""
"","S2","","html-keyboard-response","125","163631","0.0-1.0-166.0","0","0","84198","","null","","","null","18","","NaN","","","","","","","","","","","","","",""
"","response","","html-keyboard-response","126","164132","0.0-1.0-167.0-0.0","0","0","84198","","499","","","75","18","","","1","18","training","adjacent","BA","2","1","M.jpg","L.jpg","0","0","1","",""
"","feedback","","html-keyboard-response","127","165149","0.0-1.0-168.0-0.0","0","0","84198","","null","","","null","18","","","","","","","","","","","","","","","",""
"","ITI","","html-keyboard-response","128","166160","0.0-1.0-171.0","0","0","84198","","null","","","null","18","","","","","","","","","","","","","","","NaN",""
"","S1","","html-keyboard-response","129","166318","0.0-1.0-173.0","0","0","84198","","null","","","null","19","","","","","","","","","","","","","","","",""
"","ISI","","html-keyboard-response","130","168320","0.0-1.0-174.0","0","0","84198","","null","","","null","19","NaN","","","","","","","","","","","","","","",""
"","S2","","html-keyboard-response","131","168482","0.0-1.0-175.0","0","0","84198","","null","","","null","19","","NaN","","","","","","","","","","","","","",""
"","response","","html-keyboard-response","132","168765","0.0-1.0-176.0-0.0","0","0","84198","","281","","","68","19","","","1","19","training","adjacent","CD","3","4","O.jpg","N.jpg","1","1","1","",""
"","feedback","","html-keyboard-response","133","169774","0.0-1.0-177.0-0.0","0","0","84198","","null","","","null","19","","","","","","","","","","","","","","","",""
"","ITI","","html-keyboard-response","134","170785","0.0-1.0-180.0","0","0","84198","","null","","","null","19","","","","","","","","","","","","","","","NaN",""
"","S1","","html-keyboard-response","135","170939","0.0-1.0-182.0","0","0","84198","","null","","","null","20","","","","","","","","","","","","","","","",""
"","ISI","","html-keyboard-response","136","172945","0.0-1.0-183.0","0","0","84198","","null","","","null","20","NaN","","","","","","","","","","","","","","",""
"","S2","","html-keyboard-response","137","173104","0.0-1.0-184.0","0","0","84198","","null","","","null","20","","NaN","","","","","","","","","","","","","",""
"","response","","html-keyboard-response","138","173297","0.0-1.0-185.0-0.0","0","0","84198","","192","","","75","20","","","1","20","training","adjacent","BC","2","3","M.jpg","O.jpg","0","1","0","",""
"","feedback","","html-keyboard-response","139","174308","0.0-1.0-186.0-0.0","0","0","84198","","null","","","null","20","","","","","","","","","","","","","","","",""
"","time_out","","html-keyboard-response","140","176316","0.0-1.0-188.0-0.0","0","0","84198","","null","","","null","20","","","","","","","","","","","","","","","",""
"","ITI","","html-keyboard-response","141","177329","0.0-1.0-189.0","0","0","84198","","null","","","null","20","","","","","","","","","","","","","","","NaN",""
"","S1","","html-keyboard-response","142","177496","0.0-1.0-191.0","0","0","84198","","null","","","null","21","","","","","","","","","","","","","","","",""
"","ISI","","html-keyboard-response","143","179518","0.0-1.0-192.0","0","0","84198","","null","","","null","21","NaN","","","","","","","","","","","","","","",""
"","S2","","html-keyboard-response","144","179680","0.0-1.0-193.0","0","0","84198","","null","","","null","21","","NaN","","","","","","","","","","","","","",""
"","response","","html-keyboard-response","145","179995","0.0-1.0-194.0-0.0","0","0","84198","","314","","","68","21","","","1","21","training","adjacent","CD","3","4","O.jpg","N.jpg","1","1","1","",""
"","feedback","","html-keyboard-response","146","181019","0.0-1.0-195.0-0.0","0","0","84198","","null","","","null","21","","","","","","","","","","","","","","","",""
"","ITI","","html-keyboard-response","147","182029","0.0-1.0-198.0","0","0","84198","","null","","","null","21","","","","","","","","","","","","","","","NaN",""
"","S1","","html-keyboard-response","148","182183","0.0-1.0-200.0","0","0","84198","","null","","","null","22","","","","","","","","","","","","","","","",""
"","ISI","","html-keyboard-response","149","184193","0.0-1.0-201.0","0","0","84198","","null","","","null","22","NaN","","","","","","","","","","","","","","",""
"","S2","","html-keyboard-response","150","184345","0.0-1.0-202.0","0","0","84198","","null","","","null","22","","NaN","","","","","","","","","","","","","",""
"","response","","html-keyboard-response","151","184493","0.0-1.0-203.0-0.0","0","0","84198","","147","","","75","22","","","1","22","training","adjacent","DE","4","5","N.jpg","Q.jpg","0","1","0","",""
"","feedback","","html-keyboard-response","152","185499","0.0-1.0-204.0-0.0","0","0","84198","","null","","","null","22","","","","","","","","","","","","","","","",""
"","time_out","","html-keyboard-response","153","187501","0.0-1.0-206.0-0.0","0","0","84198","","null","","","null","22","","","","","","","","","","","","","","","",""
"","ITI","","html-keyboard-response","154","188510","0.0-1.0-207.0","0","0","84198","","null","","","null","22","","","","","","","","","","","","","","","NaN",""
"","S1","","html-keyboard-response","155","188663","0.0-1.0-209.0","0","0","84198","","null","","","null","23","","","","","","","","","","","","","","","",""
"","ISI","","html-keyboard-response","156","190671","0.0-1.0-210.0","0","0","84198","","null","","","null","23","NaN","","","","","","","","","","","","","","",""
"","S2","","html-keyboard-response","157","190840","0.0-1.0-211.0","0","0","84198","","null","","","null","23","","NaN","","","","","","","","","","","","","",""
"","response","","html-keyboard-response","158","191185","0.0-1.0-212.0-0.0","0","0","84198","","344","","","68","23","","","1","23","training","adjacent","GF","7","6","P.jpg","R.jpg","1","0","0","",""
"","feedback","","html-keyboard-response","159","192201","0.0-1.0-213.0-0.0","0","0","84198","","null","","","null","23","","","","","","","","","","","","","","","",""
"","time_out","","html-keyboard-response","160","194212","0.0-1.0-215.0-0.0","0","0","84198","","null","","","null","23","","","","","","","","","","","","","","","",""
"","ITI","","html-keyboard-response","161","195221","0.0-1.0-216.0","0","0","84198","","null","","","null","23","","","","","","","","","","","","","","","NaN",""
"","S1","","html-keyboard-response","162","195391","0.0-1.0-218.0","0","0","84198","","null","","","null","24","","","","","","","","","","","","","","","",""
"","ISI","","html-keyboard-response","163","197397","0.0-1.0-219.0","0","0","84198","","null","","","null","24","NaN","","","","","","","","","","","","","","",""
"","S2","","html-keyboard-response","164","197572","0.0-1.0-220.0","0","0","84198","","null","","","null","24","","NaN","","","","","","","","","","","","","",""
"","response","","html-keyboard-response","165","197708","0.0-1.0-221.0-0.0","0","0","84198","","135","","","75","24","","","1","24","training","adjacent","BA","2","1","M.jpg","L.jpg","0","0","1","",""
"","feedback","","html-keyboard-response","166","198722","0.0-1.0-222.0-0.0","0","0","84198","","null","","","null","24","","","","","","","","","","","","","","","",""
"","ITI","","html-keyboard-response","167","199732","0.0-1.0-225.0","0","0","84198","","null","","","null","24","","","","","","","","","","","","","","","NaN",""
"","S1","","html-keyboard-response","168","199901","0.0-1.0-227.0","0","0","84198","","null","","","null","25","","","","","","","","","","","","","","","",""
"","ISI","","html-keyboard-response","169","201913","0.0-1.0-228.0","0","0","84198","","null","","","null","25","NaN","","","","","","","","","","","","","","",""
"","S2","","html-keyboard-response","170","202066","0.0-1.0-229.0","0","0","84198","","null","","","null","25","","NaN","","","","","","","","","","","","","",""
"","response","","html-keyboard-response","171","202286","0.0-1.0-230.0-0.0","0","0","84198","","218","","","68","25","","","1","25","training","adjacent","DC","4","3","N.jpg","O.jpg","1","0","0","",""
"","feedback","","html-keyboard-response","172","203297","0.0-1.0-231.0-0.0","0","0","84198","","null","","","null","25","","","","","","","","","","","","","","","",""
"","time_out","","html-keyboard-response","173","205312","0.0-1.0-233.0-0.0","0","0","84198","","null","","","null","25","","","","","","","","","","","","","","","",""
"","ITI","","html-keyboard-response","174","206315","0.0-1.0-234.0","0","0","84198","","null","","","null","25","","","","","","","","","","","","","","","NaN",""
"","S1","","html-keyboard-response","175","206468","0.0-1.0-236.0","0","0","84198","","null","","","null","26","","","","","","","","","","","","","","","",""
"","ISI","","html-keyboard-response","176","208479","0.0-1.0-237.0","0","0","84198","","null","","","null","26","NaN","","","","","","","","","","","","","","",""
"","S2","","html-keyboard-response","177","208645","0.0-1.0-238.0","0","0","84198","","null","","","null","26","","NaN","","","","","","","","","","","","","",""
"","response","","html-keyboard-response","178","208746","0.0-1.0-239.0-0.0","0","0","84198","","98","","","68","26","","","1","26","training","adjacent","FE","6","5","R.jpg","Q.jpg","1","0","0","",""
"","feedback","","html-keyboard-response","179","209772","0.0-1.0-240.0-0.0","0","0","84198","","null","","","null","26","","","","","","","","","","","","","","","",""
"","time_out","","html-keyboard-response","180","211780","0.0-1.0-242.0-0.0","0","0","84198","","null","","","null","26","","","","","","","","","","","","","","","",""
"","ITI","","html-keyboard-response","181","212791","0.0-1.0-243.0","0","0","84198","","null","","","null","26","","","","","","","","","","","","","","","NaN",""
"","S1","","html-keyboard-response","182","212952","0.0-1.0-245.0","0","0","84198","","null","","","null","27","","","","","","","","","","","","","","","",""
"","ISI","","html-keyboard-response","183","214976","0.0-1.0-246.0","0","0","84198","","null","","","null","27","NaN","","","","","","","","","","","","","","",""
"","S2","","html-keyboard-response","184","215129","0.0-1.0-247.0","0","0","84198","","null","","","null","27","","NaN","","","","","","","","","","","","","",""
"","response","","html-keyboard-response","185","215484","0.0-1.0-248.0-0.0","0","0","84198","","353","","","75","27","","","1","27","training","adjacent","ED","5","4","Q.jpg","N.jpg","0","0","1","",""
"","feedback","","html-keyboard-response","186","216493","0.0-1.0-249.0-0.0","0","0","84198","","null","","","null","27","","","","","","","","","","","","","","","",""
"","ITI","","html-keyboard-response","187","217508","0.0-1.0-252.0","0","0","84198","","null","","","null","27","","","","","","","","","","","","","","","NaN",""
"","S1","","html-keyboard-response","188","217677","0.0-1.0-254.0","0","0","84198","","null","","","null","28","","","","","","","","","","","","","","","",""
"","ISI","","html-keyboard-response","189","219679","0.0-1.0-255.0","0","0","84198","","null","","","null","28","NaN","","","","","","","","","","","","","","",""
"","S2","","html-keyboard-response","190","219830","0.0-1.0-256.0","0","0","84198","","null","","","null","28","","NaN","","","","","","","","","","","","","",""
"","response","","html-keyboard-response","191","220119","0.0-1.0-257.0-0.0","0","0","84198","","288","","","75","28","","","1","28","training","adjacent","ED","5","4","Q.jpg","N.jpg","0","0","1","",""
"","feedback","","html-keyboard-response","192","221126","0.0-1.0-258.0-0.0","0","0","84198","","null","","","null","28","","","","","","","","","","","","","","","",""
"","ITI","","html-keyboard-response","193","222129","0.0-1.0-261.0","0","0","84198","","null","","","null","28","","","","","","","","","","","","","","","NaN",""
"","S1","","html-keyboard-response","194","222280","0.0-1.0-263.0","0","0","84198","","null","","","null","29","","","","","","","","","","","","","","","",""
"","ISI","","html-keyboard-response","195","224283","0.0-1.0-264.0","0","0","84198","","null","","","null","29","NaN","","","","","","","","","","","","","","",""
"","S2","","html-keyboard-response","196","224443","0.0-1.0-265.0","0","0","84198","","null","","","null","29","","NaN","","","","","","","","","","","","","",""
"","response","","html-keyboard-response","197","224601","0.0-1.0-266.0-0.0","0","0","84198","","157","","","75","29","","","1","29","training","adjacent","BC","2","3","M.jpg","O.jpg","0","1","0","",""
"","feedback","","html-keyboard-response","198","225612","0.0-1.0-267.0-0.0","0","0","84198","","null","","","null","29","","","","","","","","","","","","","","","",""
"","time_out","","html-keyboard-response","199","227620","0.0-1.0-269.0-0.0","0","0","84198","","null","","","null","29","","","","","","","","","","","","","","","",""
"","ITI","","html-keyboard-response","200","228627","0.0-1.0-270.0","0","0","84198","","null","","","null","29","","","","","","","","","","","","","","","NaN",""
"","S1","","html-keyboard-response","201","228790","0.0-1.0-272.0","0","0","84198","","null","","","null","30","","","","","","","","","","","","","","","",""
"","ISI","","html-keyboard-response","202","230792","0.0-1.0-273.0","0","0","84198","","null","","","null","30","NaN","","","","","","","","","","","","","","",""
"","S2","","html-keyboard-response","203","230955","0.0-1.0-274.0","0","0","84198","","null","","","null","30","","NaN","","","","","","","","","","","","","",""
"","response","","html-keyboard-response","204","231308","0.0-1.0-275.0-0.0","0","0","84198","","352","","","75","30","","","1","30","training","adjacent","DC","4","3","N.jpg","O.jpg","0","0","1","",""
"","feedback","","html-keyboard-response","205","232309","0.0-1.0-276.0-0.0","0","0","84198","","null","","","null","30","","","","","","","","","","","","","","","",""
"","ITI","","html-keyboard-response","206","233314","0.0-1.0-279.0","0","0","84198","","null","","","null","30","","","","","","","","","","","","","","","NaN",""
"","S1","","html-keyboard-response","207","233474","0.0-1.0-281.0","0","0","84198","","null","","","null","31","","","","","","","","","","","","","","","",""
"","ISI","","html-keyboard-response","208","235476","0.0-1.0-282.0","0","0","84198","","null","","","null","31","NaN","","","","","","","","","","","","","","",""
"","S2","","html-keyboard-response","209","235630","0.0-1.0-283.0","0","0","84198","","null","","","null","31","","NaN","","","","","","","","","","","","","",""
"","response","","html-keyboard-response","210","235903","0.0-1.0-284.0-0.0","0","0","84198","","272","","","68","31","","","1","31","training","adjacent","CB","3","2","O.jpg","M.jpg","1","0","0","",""
"","feedback","","html-keyboard-response","211","236916","0.0-1.0-285.0-0.0","0","0","84198","","null","","","null","31","","","","","","","","","","","","","","","",""
"","time_out","","html-keyboard-response","212","238929","0.0-1.0-287.0-0.0","0","0","84198","","null","","","null","31","","","","","","","","","","","","","","","",""
"","ITI","","html-keyboard-response","213","239936","0.0-1.0-288.0","0","0","84198","","null","","","null","31","","","","","","","","","","","","","","","NaN",""
"","S1","","html-keyboard-response","214","240098","0.0-1.0-290.0","0","0","84198","","null","","","null","32","","","","","","","","","","","","","","","",""
"","ISI","","html-keyboard-response","215","242108","0.0-1.0-291.0","0","0","84198","","null","","","null","32","NaN","","","","","","","","","","","","","","",""
"","S2","","html-keyboard-response","216","242262","0.0-1.0-292.0","0","0","84198","","null","","","null","32","","NaN","","","","","","","","","","","","","",""
"","response","","html-keyboard-response","217","243922","0.0-1.0-293.0-0.0","0","0","84198","","1659","","","75","32","","","1","32","training","adjacent","FG","6","7","R.jpg","P.jpg","0","1","0","",""
"","feedback","","html-keyboard-response","218","244928","0.0-1.0-294.0-0.0","0","0","84198","","null","","","null","32","","","","","","","","","","","","","","","",""
"","time_out","","html-keyboard-response","219","246930","0.0-1.0-296.0-0.0","0","0","84198","","null","","","null","32","","","","","","","","","","","","","","","",""
"","ITI","","html-keyboard-response","220","247931","0.0-1.0-297.0","0","0","84198","","null","","","null","32","","","","","","","","","","","","","","","NaN",""
"","S1","","html-keyboard-response","221","248092","0.0-1.0-299.0","0","0","84198","","null","","","null","33","","","","","","","","","","","","","","","",""
"","ISI","","html-keyboard-response","222","250095","0.0-1.0-300.0","0","0","84198","","null","","","null","33","NaN","","","","","","","","","","","","","","",""
"","S2","","html-keyboard-response","223","250249","0.0-1.0-301.0","0","0","84198","","null","","","null","33","","NaN","","","","","","","","","","","","","",""
"","response","","html-keyboard-response","224","250502","0.0-1.0-302.0-0.0","0","0","84198","","252","","","68","33","","","1","33","training","adjacent","DE","4","5","N.jpg","Q.jpg","1","1","1","",""
"","feedback","","html-keyboard-response","225","251512","0.0-1.0-303.0-0.0","0","0","84198","","null","","","null","33","","","","","","","","","","","","","","","",""
"","ITI","","html-keyboard-response","226","252519","0.0-1.0-306.0","0","0","84198","","null","","","null","33","","","","","","","","","","","","","","","NaN",""
"","S1","","html-keyboard-response","227","252682","0.0-1.0-308.0","0","0","84198","","null","","","null","34","","","","","","","","","","","","","","","",""
"","ISI","","html-keyboard-response","228","254695","0.0-1.0-309.0","0","0","84198","","null","","","null","34","NaN","","","","","","","","","","","","","","",""
"","S2","","html-keyboard-response","229","254846","0.0-1.0-310.0","0","0","84198","","null","","","null","34","","NaN","","","","","","","","","","","","","",""
"","response","","html-keyboard-response","230","255008","0.0-1.0-311.0-0.0","0","0","84198","","161","","","75","34","","","1","34","training","adjacent","DC","4","3","N.jpg","O.jpg","0","0","1","",""
"","feedback","","html-keyboard-response","231","256022","0.0-1.0-312.0-0.0","0","0","84198","","null","","","null","34","","","","","","","","","","","","","","","",""
"","ITI","","html-keyboard-response","232","257039","0.0-1.0-315.0","0","0","84198","","null","","","null","34","","","","","","","","","","","","","","","NaN",""
"","S1","","html-keyboard-response","233","257192","0.0-1.0-317.0","0","0","84198","","null","","","null","35","","","","","","","","","","","","","","","",""
"","ISI","","html-keyboard-response","234","259200","0.0-1.0-318.0","0","0","84198","","null","","","null","35","NaN","","","","","","","","","","","","","","",""
"","S2","","html-keyboard-response","235","259355","0.0-1.0-319.0","0","0","84198","","null","","","null","35","","NaN","","","","","","","","","","","","","",""
"","response","","html-keyboard-response","236","259626","0.0-1.0-320.0-0.0","0","0","84198","","269","","","75","35","","","1","35","training","adjacent","BA","2","1","M.jpg","L.jpg","0","0","1","",""
"","feedback","","html-keyboard-response","237","260631","0.0-1.0-321.0-0.0","0","0","84198","","null","","","null","35","","","","","","","","","","","","","","","",""
"","ITI","","html-keyboard-response","238","261640","0.0-1.0-324.0","0","0","84198","","null","","","null","35","","","","","","","","","","","","","","","NaN",""
"","S1","","html-keyboard-response","239","261803","0.0-1.0-326.0","0","0","84198","","null","","","null","36","","","","","","","","","","","","","","","",""
"","ISI","","html-keyboard-response","240","263811","0.0-1.0-327.0","0","0","84198","","null","","","null","36","NaN","","","","","","","","","","","","","","",""
"","S2","","html-keyboard-response","241","263977","0.0-1.0-328.0","0","0","84198","","null","","","null","36","","NaN","","","","","","","","","","","","","",""
"","response","","html-keyboard-response","242","264116","0.0-1.0-329.0-0.0","0","0","84198","","137","","","75","36","","","1","36","training","adjacent","DE","4","5","N.jpg","Q.jpg","0","1","0","",""
"","feedback","","html-keyboard-response","243","265129","0.0-1.0-330.0-0.0","0","0","84198","","null","","","null","36","","","","","","","","","","","","","","","",""
"","time_out","","html-keyboard-response","244","267132","0.0-1.0-332.0-0.0","0","0","84198","","null","","","null","36","","","","","","","","","","","","","","","",""
"","ITI","","html-keyboard-response","245","268146","0.0-1.0-333.0","0","0","84198","","null","","","null","36","","","","","","","","","","","","","","","NaN",""
"","S1","","html-keyboard-response","246","268310","0.0-1.0-335.0","0","0","84198","","null","","","null","37","","","","","","","","","","","","","","","",""
"","ISI","","html-keyboard-response","247","270336","0.0-1.0-336.0","0","0","84198","","null","","","null","37","NaN","","","","","","","","","","","","","","",""
"","S2","","html-keyboard-response","248","270498","0.0-1.0-337.0","0","0","84198","","null","","","null","37","","NaN","","","","","","","","","","","","","",""
"","response","","html-keyboard-response","249","270751","0.0-1.0-338.0-0.0","0","0","84198","","252","","","68","37","","","1","37","training","adjacent","GF","7","6","P.jpg","R.jpg","1","0","0","",""
"","feedback","","html-keyboard-response","250","271754","0.0-1.0-339.0-0.0","0","0","84198","","null","","","null","37","","","","","","","","","","","","","","","",""
"","time_out","","html-keyboard-response","251","273762","0.0-1.0-341.0-0.0","0","0","84198","","null","","","null","37","","","","","","","","","","","","","","","",""
"","ITI","","html-keyboard-response","252","274774","0.0-1.0-342.0","0","0","84198","","null","","","null","37","","","","","","","","","","","","","","","NaN",""
"","S1","","html-keyboard-response","253","274936","0.0-1.0-344.0","0","0","84198","","null","","","null","38","","","","","","","","","","","","","","","",""
"","ISI","","html-keyboard-response","254","276946","0.0-1.0-345.0","0","0","84198","","null","","","null","38","NaN","","","","","","","","","","","","","","",""
"","S2","","html-keyboard-response","255","277111","0.0-1.0-346.0","0","0","84198","","null","","","null","38","","NaN","","","","","","","","","","","","","",""
"","response","","html-keyboard-response","256","277396","0.0-1.0-347.0-0.0","0","0","84198","","282","","","68","38","","","1","38","training","adjacent","CB","3","2","O.jpg","M.jpg","1","0","0","",""
"","feedback","","html-keyboard-response","257","278411","0.0-1.0-348.0-0.0","0","0","84198","","null","","","null","38","","","","","","","","","","","","","","","",""
"","time_out","","html-keyboard-response","258","280412","0.0-1.0-350.0-0.0","0","0","84198","","null","","","null","38","","","","","","","","","","","","","","","",""
"","ITI","","html-keyboard-response","259","281415","0.0-1.0-351.0","0","0","84198","","null","","","null","38","","","","","","","","","","","","","","","NaN",""
"","S1","","html-keyboard-response","260","281569","0.0-1.0-353.0","0","0","84198","","null","","","null","39","","","","","","","","","","","","","","","",""
"","ISI","","html-keyboard-response","261","283571","0.0-1.0-354.0","0","0","84198","","null","","","null","39","NaN","","","","","","","","","","","","","","",""
"","S2","","html-keyboard-response","262","283730","0.0-1.0-355.0","0","0","84198","","null","","","null","39","","NaN","","","","","","","","","","","","","",""
"","response","","html-keyboard-response","263","283942","0.0-1.0-356.0-0.0","0","0","84198","","212","","","75","39","","","1","39","training","adjacent","CB","3","2","O.jpg","M.jpg","0","0","1","",""
"","feedback","","html-keyboard-response","264","284956","0.0-1.0-357.0-0.0","0","0","84198","","null","","","null","39","","","","","","","","","","","","","","","",""
"","ITI","","html-keyboard-response","265","285967","0.0-1.0-360.0","0","0","84198","","null","","","null","39","","","","","","","","","","","","","","","NaN",""
"","S1","","html-keyboard-response","266","286121","0.0-1.0-362.0","0","0","84198","","null","","","null","40","","","","","","","","","","","","","","","",""
"","ISI","","html-keyboard-response","267","288128","0.0-1.0-363.0","0","0","84198","","null","","","null","40","NaN","","","","","","","","","","","","","","",""
"","S2","","html-keyboard-response","268","288280","0.0-1.0-364.0","0","0","84198","","null","","","null","40","","NaN","","","","","","","","","","","","","",""
"","response","","html-keyboard-response","269","288472","0.0-1.0-365.0-0.0","0","0","84198","","191","","","68","40","","","1","40","training","adjacent","FG","6","7","R.jpg","P.jpg","1","1","1","",""
"","feedback","","html-keyboard-response","270","289482","0.0-1.0-366.0-0.0","0","0","84198","","null","","","null","40","","","","","","","","","","","","","","","",""
"","ITI","","html-keyboard-response","271","290496","0.0-1.0-369.0","0","0","84198","","null","","","null","40","","","","","","","","","","","","","","","NaN",""
"","S1","","html-keyboard-response","272","290665","0.0-1.0-371.0","0","0","84198","","null","","","null","41","","","","","","","","","","","","","","","",""
"","ISI","","html-keyboard-response","273","292667","0.0-1.0-372.0","0","0","84198","","null","","","null","41","NaN","","","","","","","","","","","","","","",""
"","S2","","html-keyboard-response","274","292830","0.0-1.0-373.0","0","0","84198","","null","","","null","41","","NaN","","","","","","","","","","","","","",""
"","response","","html-keyboard-response","275","293027","0.0-1.0-374.0-0.0","0","0","84198","","196","","","68","41","","","1","41","training","adjacent","AB","1","2","L.jpg","M.jpg","1","1","1","",""
"","feedback","","html-keyboard-response","276","294029","0.0-1.0-375.0-0.0","0","0","84198","","null","","","null","41","","","","","","","","","","","","","","","",""
"","ITI","","html-keyboard-response","277","295031","0.0-1.0-378.0","0","0","84198","","null","","","null","41","","","","","","","","","","","","","","","NaN",""
"","S1","","html-keyboard-response","278","295184","0.0-1.0-380.0","0","0","84198","","null","","","null","42","","","","","","","","","","","","","","","",""
"","ISI","","html-keyboard-response","279","297197","0.0-1.0-381.0","0","0","84198","","null","","","null","42","NaN","","","","","","","","","","","","","","",""
"","S2","","html-keyboard-response","280","297363","0.0-1.0-382.0","0","0","84198","","null","","","null","42","","NaN","","","","","","","","","","","","","",""
"","response","","html-keyboard-response","281","297653","0.0-1.0-383.0-0.0","0","0","84198","","289","","","75","42","","","1","42","training","adjacent","FG","6","7","R.jpg","P.jpg","0","1","0","",""
"","feedback","","html-keyboard-response","282","298672","0.0-1.0-384.0-0.0","0","0","84198","","null","","","null","42","","","","","","","","","","","","","","","",""
"","time_out","","html-keyboard-response","283","300681","0.0-1.0-386.0-0.0","0","0","84198","","null","","","null","42","","","","","","","","","","","","","","","",""
"","ITI","","html-keyboard-response","284","301690","0.0-1.0-387.0","0","0","84198","","null","","","null","42","","","","","","","","","","","","","","","NaN",""
"","S1","","html-keyboard-response","285","301852","0.0-1.0-389.0","0","0","84198","","null","","","null","43","","","","","","","","","","","","","","","",""
"","ISI","","html-keyboard-response","286","303876","0.0-1.0-390.0","0","0","84198","","null","","","null","43","NaN","","","","","","","","","","","","","","",""
"","S2","","html-keyboard-response","287","304030","0.0-1.0-391.0","0","0","84198","","null","","","null","43","","NaN","","","","","","","","","","","","","",""
"","response","","html-keyboard-response","288","304383","0.0-1.0-392.0-0.0","0","0","84198","","352","","","68","43","","","1","43","training","adjacent","CD","3","4","O.jpg","N.jpg","1","1","1","",""
"","feedback","","html-keyboard-response","289","305394","0.0-1.0-393.0-0.0","0","0","84198","","null","","","null","43","","","","","","","","","","","","","","","",""
"","ITI","","html-keyboard-response","290","306410","0.0-1.0-396.0","0","0","84198","","null","","","null","43","","","","","","","","","","","","","","","NaN",""
"","S1","","html-keyboard-response","291","306579","0.0-1.0-398.0","0","0","84198","","null","","","null","44","","","","","","","","","","","","","","","",""
"","ISI","","html-keyboard-response","292","308580","0.0-1.0-399.0","0","0","84198","","null","","","null","44","NaN","","","","","","","","","","","","","","",""
"","S2","","html-keyboard-response","293","308747","0.0-1.0-400.0","0","0","84198","","null","","","null","44","","NaN","","","","","","","","","","","","","",""
"","response","","html-keyboard-response","294","309138","0.0-1.0-401.0-0.0","0","0","84198","","391","","","68","44","","","1","44","training","adjacent","EF","5","6","Q.jpg","R.jpg","1","1","1","",""
"","feedback","","html-keyboard-response","295","310147","0.0-1.0-402.0-0.0","0","0","84198","","null","","","null","44","","","","","","","","","","","","","","","",""
"","ITI","","html-keyboard-response","296","311161","0.0-1.0-405.0","0","0","84198","","null","","","null","44","","","","","","","","","","","","","","","NaN",""
"","S1","","html-keyboard-response","297","311314","0.0-1.0-407.0","0","0","84198","","null","","","null","45","","","","","","","","","","","","","","","",""
"","ISI","","html-keyboard-response","298","313328","0.0-1.0-408.0","0","0","84198","","null","","","null","45","NaN","","","","","","","","","","","","","","",""
"","S2","","html-keyboard-response","299","313485","0.0-1.0-409.0","0","0","84198","","null","","","null","45","","NaN","","","","","","","","","","","","","",""
"","response","","html-keyboard-response","300","314245","0.0-1.0-410.0-0.0","0","0","84198","","758","","","75","45","","","1","45","training","adjacent","FE","6","5","R.jpg","Q.jpg","0","0","1","",""
"","feedback","","html-keyboard-response","301","315261","0.0-1.0-411.0-0.0","0","0","84198","","null","","","null","45","","","","","","","","","","","","","","","",""
"","ITI","","html-keyboard-response","302","316265","0.0-1.0-414.0","0","0","84198","","null","","","null","45","","","","","","","","","","","","","","","NaN",""
"","S1","","html-keyboard-response","303","316419","0.0-1.0-416.0","0","0","84198","","null","","","null","46","","","","","","","","","","","","","","","",""
"","ISI","","html-keyboard-response","304","318423","0.0-1.0-417.0","0","0","84198","","null","","","null","46","NaN","","","","","","","","","","","","","","",""
"","S2","","html-keyboard-response","305","318592","0.0-1.0-418.0","0","0","84198","","null","","","null","46","","NaN","","","","","","","","","","","","","",""
"","response","","html-keyboard-response","306","319055","0.0-1.0-419.0-0.0","0","0","84198","","462","","","75","46","","","1","46","training","adjacent","GF","7","6","P.jpg","R.jpg","0","0","1","",""
"","feedback","","html-keyboard-response","307","320056","0.0-1.0-420.0-0.0","0","0","84198","","null","","","null","46","","","","","","","","","","","","","","","",""
"","ITI","","html-keyboard-response","308","321060","0.0-1.0-423.0","0","0","84198","","null","","","null","46","","","","","","","","","","","","","","","NaN",""
"","S1","","html-keyboard-response","309","321226","0.0-1.0-425.0","0","0","84198","","null","","","null","47","","","","","","","","","","","","","","","",""
"","ISI","","html-keyboard-response","310","323230","0.0-1.0-426.0","0","0","84198","","null","","","null","47","NaN","","","","","","","","","","","","","","",""
"","S2","","html-keyboard-response","311","323398","0.0-1.0-427.0","0","0","84198","","null","","","null","47","","NaN","","","","","","","","","","","","","",""
"","response","","html-keyboard-response","312","323641","0.0-1.0-428.0-0.0","0","0","84198","","241","","","68","47","","","1","47","training","adjacent","EF","5","6","Q.jpg","R.jpg","1","1","1","",""
"","feedback","","html-keyboard-response","313","324647","0.0-1.0-429.0-0.0","0","0","84198","","null","","","null","47","","","","","","","","","","","","","","","",""
"","ITI","","html-keyboard-response","314","325650","0.0-1.0-432.0","0","0","84198","","null","","","null","47","","","","","","","","","","","","","","","NaN",""
"","block_over","","html-keyboard-response","315","330182","0.0-1.0-433.0-0.0","0","0","84198","","4530","","","32","47","","","","","","","","","","","","","","","",""
"","S1","","html-keyboard-response","316","330341","0.0-1.0-434.0","0","0","84198","","null","","","null","48","","","","","","","","","","","","","","","",""
"","ISI","","html-keyboard-response","317","332342","0.0-1.0-435.0","0","0","84198","","null","","","null","48","NaN","","","","","","","","","","","","","","",""
"","S2","","html-keyboard-response","318","332506","0.0-1.0-436.0","0","0","84198","","null","","","null","48","","NaN","","","","","","","","","","","","","",""
"","response","","html-keyboard-response","319","333183","0.0-1.0-437.0-0.0","0","0","84198","","675","","","75","48","","","2","48","training","adjacent","BA","2","1","M.jpg","L.jpg","0","0","1","",""
"","feedback","","html-keyboard-response","320","334193","0.0-1.0-438.0-0.0","0","0","84198","","null","","","null","48","","","","","","","","","","","","","","","",""
"","ITI","","html-keyboard-response","321","335195","0.0-1.0-441.0","0","0","84198","","null","","","null","48","","","","","","","","","","","","","","","NaN",""
"","S1","","html-keyboard-response","322","335362","0.0-1.0-443.0","0","0","84198","","null","","","null","49","","","","","","","","","","","","","","","",""
"","ISI","","html-keyboard-response","323","337364","0.0-1.0-444.0","0","0","84198","","null","","","null","49","NaN","","","","","","","","","","","","","","",""
"","S2","","html-keyboard-response","324","337518","0.0-1.0-445.0","0","0","84198","","null","","","null","49","","NaN","","","","","","","","","","","","","",""
"","response","","html-keyboard-response","325","337696","0.0-1.0-446.0-0.0","0","0","84198","","176","","","75","49","","","2","49","training","adjacent","CB","3","2","O.jpg","M.jpg","0","0","1","",""
"","feedback","","html-keyboard-response","326","338719","0.0-1.0-447.0-0.0","0","0","84198","","null","","","null","49","","","","","","","","","","","","","","","",""
"","ITI","","html-keyboard-response","327","339731","0.0-1.0-450.0","0","0","84198","","null","","","null","49","","","","","","","","","","","","","","","NaN",""
"","S1","","html-keyboard-response","328","339897","0.0-1.0-452.0","0","0","84198","","null","","","null","50","","","","","","","","","","","","","","","",""
"","ISI","","html-keyboard-response","329","341922","0.0-1.0-453.0","0","0","84198","","null","","","null","50","NaN","","","","","","","","","","","","","","",""
"","S2","","html-keyboard-response","330","342084","0.0-1.0-454.0","0","0","84198","","null","","","null","50","","NaN","","","","","","","","","","","","","",""
"","response","","html-keyboard-response","331","342291","0.0-1.0-455.0-0.0","0","0","84198","","206","","","68","50","","","2","50","training","adjacent","DE","4","5","N.jpg","Q.jpg","1","1","1","",""
"","feedback","","html-keyboard-response","332","343293","0.0-1.0-456.0-0.0","0","0","84198","","null","","","null","50","","","","","","","","","","","","","","","",""
"","ITI","","html-keyboard-response","333","344296","0.0-1.0-459.0","0","0","84198","","null","","","null","50","","","","","","","","","","","","","","","NaN",""
"","S1","","html-keyboard-response","334","344462","0.0-1.0-461.0","0","0","84198","","null","","","null","51","","","","","","","","","","","","","","","",""
"","ISI","","html-keyboard-response","335","346473","0.0-1.0-462.0","0","0","84198","","null","","","null","51","NaN","","","","","","","","","","","","","","",""
"","S2","","html-keyboard-response","336","346626","0.0-1.0-463.0","0","0","84198","","null","","","null","51","","NaN","","","","","","","","","","","","","",""
"","response","","html-keyboard-response","337","346741","0.0-1.0-464.0-0.0","0","0","84198","","114","","","75","51","","","2","51","training","adjacent","FG","6","7","R.jpg","P.jpg","0","1","0","",""
"","feedback","","html-keyboard-response","338","347757","0.0-1.0-465.0-0.0","0","0","84198","","null","","","null","51","","","","","","","","","","","","","","","",""
"","time_out","","html-keyboard-response","339","349759","0.0-1.0-467.0-0.0","0","0","84198","","null","","","null","51","","","","","","","","","","","","","","","",""
"","ITI","","html-keyboard-response","340","350763","0.0-1.0-468.0","0","0","84198","","null","","","null","51","","","","","","","","","","","","","","","NaN",""
"","S1","","html-keyboard-response","341","350915","0.0-1.0-470.0","0","0","84198","","null","","","null","52","","","","","","","","","","","","","","","",""
"","ISI","","html-keyboard-response","342","352930","0.0-1.0-471.0","0","0","84198","","null","","","null","52","NaN","","","","","","","","","","","","","","",""
"","S2","","html-keyboard-response","343","353092","0.0-1.0-472.0","0","0","84198","","null","","","null","52","","NaN","","","","","","","","","","","","","",""
"","response","","html-keyboard-response","344","353359","0.0-1.0-473.0-0.0","0","0","84198","","265","","","68","52","","","2","52","training","adjacent","FE","6","5","R.jpg","Q.jpg","1","0","0","",""
"","feedback","","html-keyboard-response","345","354363","0.0-1.0-474.0-0.0","0","0","84198","","null","","","null","52","","","","","","","","","","","","","","","",""
"","time_out","","html-keyboard-response","346","356378","0.0-1.0-476.0-0.0","0","0","84198","","null","","","null","52","","","","","","","","","","","","","","","",""
"","ITI","","html-keyboard-response","347","357381","0.0-1.0-477.0","0","0","84198","","null","","","null","52","","","","","","","","","","","","","","","NaN",""
"","S1","","html-keyboard-response","348","357546","0.0-1.0-479.0","0","0","84198","","null","","","null","53","","","","","","","","","","","","","","","",""
"","ISI","","html-keyboard-response","349","359555","0.0-1.0-480.0","0","0","84198","","526","","","75","53","k","","","","","","","","","","","","","","",""
"","S2","","html-keyboard-response","350","359713","0.0-1.0-481.0","0","0","84198","","null","","","null","53","","NaN","","","","","","","","","","","","","",""
"","response","","html-keyboard-response","351","359963","0.0-1.0-482.0-0.0","0","0","84198","","249","","","75","53","","","2","53","training","adjacent","FE","6","5","R.jpg","Q.jpg","0","0","1","",""
"","feedback","","html-keyboard-response","352","360974","0.0-1.0-483.0-0.0","0","0","84198","","null","","","null","53","","","","","","","","","","","","","","","",""
"","ITI","","html-keyboard-response","353","361978","0.0-1.0-486.0","0","0","84198","","null","","","null","53","","","","","","","","","","","","","","","NaN",""
"","S1","","html-keyboard-response","354","362144","0.0-1.0-488.0","0","0","84198","","null","","","null","54","","","","","","","","","","","","","","","",""
"","ISI","","html-keyboard-response","355","364146","0.0-1.0-489.0","0","0","84198","","null","","","null","54","NaN","","","","","","","","","","","","","","",""
"","S2","","html-keyboard-response","356","364308","0.0-1.0-490.0","0","0","84198","","null","","","null","54","","NaN","","","","","","","","","","","","","",""
"","response","","html-keyboard-response","357","364484","0.0-1.0-491.0-0.0","0","0","84198","","174","","","75","54","","","2","54","training","adjacent","BC","2","3","M.jpg","O.jpg","0","1","0","",""
"","feedback","","html-keyboard-response","358","365495","0.0-1.0-492.0-0.0","0","0","84198","","null","","","null","54","","","","","","","","","","","","","","","",""
"","time_out","","html-keyboard-response","359","367498","0.0-1.0-494.0-0.0","0","0","84198","","null","","","null","54","","","","","","","","","","","","","","","",""
"","ITI","","html-keyboard-response","360","368499","0.0-1.0-495.0","0","0","84198","","null","","","null","54","","","","","","","","","","","","","","","NaN",""
"","S1","","html-keyboard-response","361","368652","0.0-1.0-497.0","0","0","84198","","null","","","null","55","","","","","","","","","","","","","","","",""
"","ISI","","html-keyboard-response","362","370664","0.0-1.0-498.0","0","0","84198","","null","","","null","55","NaN","","","","","","","","","","","","","","",""
"","S2","","html-keyboard-response","363","370822","0.0-1.0-499.0","0","0","84198","","null","","","null","55","","NaN","","","","","","","","","","","","","",""
"","response","","html-keyboard-response","364","370961","0.0-1.0-500.0-0.0","0","0","84198","","136","","","68","55","","","2","55","training","adjacent","FE","6","5","R.jpg","Q.jpg","1","0","0","",""
"","feedback","","html-keyboard-response","365","371973","0.0-1.0-501.0-0.0","0","0","84198","","null","","","null","55","","","","","","","","","","","","","","","",""
"","time_out","","html-keyboard-response","366","373976","0.0-1.0-503.0-0.0","0","0","84198","","null","","","null","55","","","","","","","","","","","","","","","",""
"","ITI","","html-keyboard-response","367","374977","0.0-1.0-504.0","0","0","84198","","null","","","null","55","","","","","","","","","","","","","","","NaN",""
"","S1","","html-keyboard-response","368","375129","0.0-1.0-506.0","0","0","84198","","null","","","null","56","","","","","","","","","","","","","","","",""
"","ISI","","html-keyboard-response","369","377144","0.0-1.0-507.0","0","0","84198","","null","","","null","56","NaN","","","","","","","","","","","","","","",""
"","S2","","html-keyboard-response","370","377297","0.0-1.0-508.0","0","0","84198","","null","","","null","56","","NaN","","","","","","","","","","","","","",""
"","response","","html-keyboard-response","371","377612","0.0-1.0-509.0-0.0","0","0","84198","","313","","","75","56","","","2","56","training","adjacent","CD","3","4","O.jpg","N.jpg","0","1","0","",""
"","feedback","","html-keyboard-response","372","378628","0.0-1.0-510.0-0.0","0","0","84198","","null","","","null","56","","","","","","","","","","","","","","","",""
"","time_out","","html-keyboard-response","373","380633","0.0-1.0-512.0-0.0","0","0","84198","","null","","","null","56","","","","","","","","","","","","","","","",""
"","ITI","","html-keyboard-response","374","381649","0.0-1.0-513.0","0","0","84198","","null","","","null","56","","","","","","","","","","","","","","","NaN",""
"","S1","","html-keyboard-response","375","381803","0.0-1.0-515.0","0","0","84198","","null","","","null","57","","","","","","","","","","","","","","","",""
"","ISI","","html-keyboard-response","376","383805","0.0-1.0-516.0","0","0","84198","","null","","","null","57","NaN","","","","","","","","","","","","","","",""
"","S2","","html-keyboard-response","377","383967","0.0-1.0-517.0","0","0","84198","","null","","","null","57","","NaN","","","","","","","","","","","","","",""
"","response","","html-keyboard-response","378","384695","0.0-1.0-518.0-0.0","0","0","84198","","727","","","68","57","","","2","57","training","adjacent","DC","4","3","N.jpg","O.jpg","1","0","0","",""
"","feedback","","html-keyboard-response","379","385706","0.0-1.0-519.0-0.0","0","0","84198","","null","","","null","57","","","","","","","","","","","","","","","",""
"","time_out","","html-keyboard-response","380","387712","0.0-1.0-521.0-0.0","0","0","84198","","null","","","null","57","","","","","","","","","","","","","","","",""
"","ITI","","html-keyboard-response","381","388715","0.0-1.0-522.0","0","0","84198","","null","","","null","57","","","","","","","","","","","","","","","NaN",""
"","S1","","html-keyboard-response","382","388876","0.0-1.0-524.0","0","0","84198","","null","","","null","58","","","","","","","","","","","","","","","",""
"","ISI","","html-keyboard-response","383","390880","0.0-1.0-525.0","0","0","84198","","null","","","null","58","NaN","","","","","","","","","","","","","","",""
"","S2","","html-keyboard-response","384","391044","0.0-1.0-526.0","0","0","84198","","null","","","null","58","","NaN","","","","","","","","","","","","","",""
"","response","","html-keyboard-response","385","391290","0.0-1.0-527.0-0.0","0","0","84198","","245","","","68","58","","","2","58","training","adjacent","DE","4","5","N.jpg","Q.jpg","1","1","1","",""
"","feedback","","html-keyboard-response","386","392297","0.0-1.0-528.0-0.0","0","0","84198","","null","","","null","58","","","","","","","","","","","","","","","",""
"","ITI","","html-keyboard-response","387","393298","0.0-1.0-531.0","0","0","84198","","null","","","null","58","","","","","","","","","","","","","","","NaN",""
"","S1","","html-keyboard-response","388","393463","0.0-1.0-533.0","0","0","84198","","null","","","null","59","","","","","","","","","","","","","","","",""
"","ISI","","html-keyboard-response","389","395486","0.0-1.0-534.0","0","0","84198","","null","","","null","59","NaN","","","","","","","","","","","","","","",""
"","S2","","html-keyboard-response","390","395648","0.0-1.0-535.0","0","0","84198","","null","","","null","59","","NaN","","","","","","","","","","","","","",""
"","response","","html-keyboard-response","391","396020","0.0-1.0-536.0-0.0","0","0","84198","","371","","","75","59","","","2","59","training","adjacent","BC","2","3","M.jpg","O.jpg","0","1","0","",""
"","feedback","","html-keyboard-response","392","397035","0.0-1.0-537.0-0.0","0","0","84198","","null","","","null","59","","","","","","","","","","","","","","","",""
"","time_out","","html-keyboard-response","393","399047","0.0-1.0-539.0-0.0","0","0","84198","","null","","","null","59","","","","","","","","","","","","","","","",""
"","ITI","","html-keyboard-response","394","400054","0.0-1.0-540.0","0","0","84198","","null","","","null","59","","","","","","","","","","","","","","","NaN",""
"","S1","","html-keyboard-response","395","400207","0.0-1.0-542.0","0","0","84198","","null","","","null","60","","","","","","","","","","","","","","","",""
"","ISI","","html-keyboard-response","396","402214","0.0-1.0-543.0","0","0","84198","","null","","","null","60","NaN","","","","","","","","","","","","","","",""
"","S2","","html-keyboard-response","397","402365","0.0-1.0-544.0","0","0","84198","","null","","","null","60","","NaN","","","","","","","","","","","","","",""
"","response","","html-keyboard-response","398","403688","0.0-1.0-545.0-0.0","0","0","84198","","1322","","","68","60","","","2","60","training","adjacent","CB","3","2","O.jpg","M.jpg","1","0","0","",""
"","feedback","","html-keyboard-response","399","404700","0.0-1.0-546.0-0.0","0","0","84198","","null","","","null","60","","","","","","","","","","","","","","","",""
"","time_out","","html-keyboard-response","400","406713","0.0-1.0-548.0-0.0","0","0","84198","","null","","","null","60","","","","","","","","","","","","","","","",""
"","ITI","","html-keyboard-response","401","407719","0.0-1.0-549.0","0","0","84198","","null","","","null","60","","","","","","","","","","","","","","","NaN",""
"","S1","","html-keyboard-response","402","407882","0.0-1.0-551.0","0","0","84198","","null","","","null","61","","","","","","","","","","","","","","","",""
"","ISI","","html-keyboard-response","403","409891","0.0-1.0-552.0","0","0","84198","","null","","","null","61","NaN","","","","","","","","","","","","","","",""
"","S2","","html-keyboard-response","404","410052","0.0-1.0-553.0","0","0","84198","","null","","","null","61","","NaN","","","","","","","","","","","","","",""
"","response","","html-keyboard-response","405","410300","0.0-1.0-554.0-0.0","0","0","84198","","246","","","75","61","","","2","61","training","adjacent","DC","4","3","N.jpg","O.jpg","0","0","1","",""
"","feedback","","html-keyboard-response","406","411309","0.0-1.0-555.0-0.0","0","0","84198","","null","","","null","61","","","","","","","","","","","","","","","",""
"","ITI","","html-keyboard-response","407","412319","0.0-1.0-558.0","0","0","84198","","null","","","null","61","","","","","","","","","","","","","","","NaN",""
"","S1","","html-keyboard-response","408","412473","0.0-1.0-560.0","0","0","84198","","null","","","null","62","","","","","","","","","","","","","","","",""
"","ISI","","html-keyboard-response","409","414478","0.0-1.0-561.0","0","0","84198","","1315","","","75","62","k","","","","","","","","","","","","","","",""
"","S2","","html-keyboard-response","410","414630","0.0-1.0-562.0","0","0","84198","","null","","","null","62","","NaN","","","","","","","","","","","","","",""
"","response","","html-keyboard-response","411","415030","0.0-1.0-563.0-0.0","0","0","84198","","398","","","68","62","","","2","62","training","adjacent","DE","4","5","N.jpg","Q.jpg","1","1","1","",""
"","feedback","","html-keyboard-response","412","416047","0.0-1.0-564.0-0.0","0","0","84198","","null","","","null","62","","","","","","","","","","","","","","","",""
"","ITI","","html-keyboard-response","413","417060","0.0-1.0-567.0","0","0","84198","","null","","","null","62","","","","","","","","","","","","","","","NaN",""
"","S1","","html-keyboard-response","414","417223","0.0-1.0-569.0","0","0","84198","","null","","","null","63","","","","","","","","","","","","","","","",""
"","ISI","","html-keyboard-response","415","419233","0.0-1.0-570.0","0","0","84198","","null","","","null","63","NaN","","","","","","","","","","","","","","",""
"","S2","","html-keyboard-response","416","419395","0.0-1.0-571.0","0","0","84198","","null","","","null","63","","NaN","","","","","","","","","","","","","",""
"","response","","html-keyboard-response","417","419896","0.0-1.0-572.0-0.0","0","0","84198","","500","","","75","63","","","2","63","training","adjacent","BA","2","1","M.jpg","L.jpg","0","0","1","",""
"","feedback","","html-keyboard-response","418","420912","0.0-1.0-573.0-0.0","0","0","84198","","null","","","null","63","","","","","","","","","","","","","","","",""
"","ITI","","html-keyboard-response","419","421921","0.0-1.0-576.0","0","0","84198","","null","","","null","63","","","","","","","","","","","","","","","NaN",""
"","S1","","html-keyboard-response","420","422083","0.0-1.0-578.0","0","0","84198","","null","","","null","64","","","","","","","","","","","","","","","",""
"","ISI","","html-keyboard-response","421","424097","0.0-1.0-579.0","0","0","84198","","null","","","null","64","NaN","","","","","","","","","","","","","","",""
"","S2","","html-keyboard-response","422","424248","0.0-1.0-580.0","0","0","84198","","null","","","null","64","","NaN","","","","","","","","","","","","","",""
"","response","","html-keyboard-response","423","424978","0.0-1.0-581.0-0.0","0","0","84198","","730","","","75","64","","","2","64","training","adjacent","GF","7","6","P.jpg","R.jpg","0","0","1","",""
"","feedback","","html-keyboard-response","424","425982","0.0-1.0-582.0-0.0","0","0","84198","","null","","","null","64","","","","","","","","","","","","","","","",""
"","ITI","","html-keyboard-response","425","426986","0.0-1.0-585.0","0","0","84198","","null","","","null","64","","","","","","","","","","","","","","","NaN",""
"","S1","","html-keyboard-response","426","427139","0.0-1.0-587.0","0","0","84198","","null","","","null","65","","","","","","","","","","","","","","","",""
"","ISI","","html-keyboard-response","427","429147","0.0-1.0-588.0","0","0","84198","","null","","","null","65","NaN","","","","","","","","","","","","","","",""
"","S2","","html-keyboard-response","428","429303","0.0-1.0-589.0","0","0","84198","","null","","","null","65","","NaN","","","","","","","","","","","","","",""
"","response","","html-keyboard-response","429","429950","0.0-1.0-590.0-0.0","0","0","84198","","645","","","75","65","","","2","65","training","adjacent","AB","1","2","L.jpg","M.jpg","0","1","0","",""
"","feedback","","html-keyboard-response","430","430958","0.0-1.0-591.0-0.0","0","0","84198","","null","","","null","65","","","","","","","","","","","","","","","",""
"","time_out","","html-keyboard-response","431","432960","0.0-1.0-593.0-0.0","0","0","84198","","null","","","null","65","","","","","","","","","","","","","","","",""
"","ITI","","html-keyboard-response","432","433961","0.0-1.0-594.0","0","0","84198","","null","","","null","65","","","","","","","","","","","","","","","NaN",""
"","S1","","html-keyboard-response","433","434131","0.0-1.0-596.0","0","0","84198","","null","","","null","66","","","","","","","","","","","","","","","",""
"","ISI","","html-keyboard-response","434","436132","0.0-1.0-597.0","0","0","84198","","null","","","null","66","NaN","","","","","","","","","","","","","","",""
"","S2","","html-keyboard-response","435","436295","0.0-1.0-598.0","0","0","84198","","null","","","null","66","","NaN","","","","","","","","","","","","","",""
"","response","","html-keyboard-response","436","436705","0.0-1.0-599.0-0.0","0","0","84198","","409","","","68","66","","","2","66","training","adjacent","EF","5","6","Q.jpg","R.jpg","1","1","1","",""
"","feedback","","html-keyboard-response","437","437712","0.0-1.0-600.0-0.0","0","0","84198","","null","","","null","66","","","","","","","","","","","","","","","",""
"","ITI","","html-keyboard-response","438","438714","0.0-1.0-603.0","0","0","84198","","null","","","null","66","","","","","","","","","","","","","","","NaN",""
"","S1","","html-keyboard-response","439","438868","0.0-1.0-605.0","0","0","84198","","null","","","null","67","","","","","","","","","","","","","","","",""
"","ISI","","html-keyboard-response","440","440881","0.0-1.0-606.0","0","0","84198","","null","","","null","67","NaN","","","","","","","","","","","","","","",""
"","S2","","html-keyboard-response","441","441047","0.0-1.0-607.0","0","0","84198","","null","","","null","67","","NaN","","","","","","","","","","","","","",""
"","response","","html-keyboard-response","442","441395","0.0-1.0-608.0-0.0","0","0","84198","","346","","","68","67","","","2","67","training","adjacent","ED","5","4","Q.jpg","N.jpg","1","0","0","",""
"","feedback","","html-keyboard-response","443","442403","0.0-1.0-609.0-0.0","0","0","84198","","null","","","null","67","","","","","","","","","","","","","","","",""
"","time_out","","html-keyboard-response","444","444412","0.0-1.0-611.0-0.0","0","0","84198","","null","","","null","67","","","","","","","","","","","","","","","",""
"","ITI","","html-keyboard-response","445","445415","0.0-1.0-612.0","0","0","84198","","null","","","null","67","","","","","","","","","","","","","","","NaN",""
"","S1","","html-keyboard-response","446","445575","0.0-1.0-614.0","0","0","84198","","null","","","null","68","","","","","","","","","","","","","","","",""
"","ISI","","html-keyboard-response","447","447577","0.0-1.0-615.0","0","0","84198","","null","","","null","68","NaN","","","","","","","","","","","","","","",""
"","S2","","html-keyboard-response","448","447729","0.0-1.0-616.0","0","0","84198","","null","","","null","68","","NaN","","","","","","","","","","","","","",""
"","response","","html-keyboard-response","449","449580","0.0-1.0-617.0-0.0","0","0","84198","","null","","","null","68","","","2","68","training","adjacent","DE","4","5","N.jpg","Q.jpg","NaN","1","0","",""
"","too_slow_prompt","","html-keyboard-response","450","450597","0.0-1.0-619.0-0.0","1","0","84198","","null","","","null","","","","","","","","","","","","","","","","",""
"","time_out","","html-keyboard-response","451","452613","0.0-1.0-620.0-0.0","0","0","84198","","null","","","null","68","","","","","","","","","","","","","","","",""
"","ITI","","html-keyboard-response","452","453618","0.0-1.0-621.0","0","0","84198","","586","","","75","68","","","","","","","","","","","","","","","k",""
"","S1","","html-keyboard-response","453","453772","0.0-1.0-623.0","0","0","84198","","null","","","null","69","","","","","","","","","","","","","","","",""
"","ISI","","html-keyboard-response","454","455774","0.0-1.0-624.0","0","0","84198","","300","","","75","69","k","","","","","","","","","","","","","","",""
"","S2","","html-keyboard-response","455","455931","0.0-1.0-625.0","0","0","84198","","null","","","null","69","","NaN","","","","","","","","","","","","","",""
"","response","","html-keyboard-response","456","456546","0.0-1.0-626.0-0.0","0","0","84198","","614","","","68","69","","","2","69","training","adjacent","GF","7","6","P.jpg","R.jpg","1","0","0","",""
"","feedback","","html-keyboard-response","457","457562","0.0-1.0-627.0-0.0","0","0","84198","","null","","","null","69","","","","","","","","","","","","","","","",""
"","time_out","","html-keyboard-response","458","459573","0.0-1.0-629.0-0.0","0","0","84198","","null","","","null","69","","","","","","","","","","","","","","","",""
"","ITI","","html-keyboard-response","459","460581","0.0-1.0-630.0","0","0","84198","","null","","","null","69","","","","","","","","","","","","","","","NaN",""
"","S1","","html-keyboard-response","460","460744","0.0-1.0-632.0","0","0","84198","","null","","","null","70","","","","","","","","","","","","","","","",""
"","ISI","","html-keyboard-response","461","462748","0.0-1.0-633.0","0","0","84198","","null","","","null","70","NaN","","","","","","","","","","","","","","",""
"","S2","","html-keyboard-response","462","462899","0.0-1.0-634.0","0","0","84198","","null","","","null","70","","NaN","","","","","","","","","","","","","",""
"","response","","html-keyboard-response","463","463093","0.0-1.0-635.0-0.0","0","0","84198","","193","","","68","70","","","2","70","training","adjacent","CB","3","2","O.jpg","M.jpg","1","0","0","",""
"","feedback","","html-keyboard-response","464","464099","0.0-1.0-636.0-0.0","0","0","84198","","null","","","null","70","","","","","","","","","","","","","","","",""
"","time_out","","html-keyboard-response","465","466112","0.0-1.0-638.0-0.0","0","0","84198","","null","","","null","70","","","","","","","","","","","","","","","",""
"","ITI","","html-keyboard-response","466","467115","0.0-1.0-639.0","0","0","84198","","null","","","null","70","","","","","","","","","","","","","","","NaN",""
"","S1","","html-keyboard-response","467","467280","0.0-1.0-641.0","0","0","84198","","null","","","null","71","","","","","","","","","","","","","","","",""
"","ISI","","html-keyboard-response","468","469288","0.0-1.0-642.0","0","0","84198","","null","","","null","71","NaN","","","","","","","","","","","","","","",""
"","S2","","html-keyboard-response","469","469444","0.0-1.0-643.0","0","0","84198","","null","","","null","71","","NaN","","","","","","","","","","","","","",""
"","response","","html-keyboard-response","470","469545","0.0-1.0-644.0-0.0","0","0","84198","","99","","","75","71","","","2","71","training","adjacent","CD","3","4","O.jpg","N.jpg","0","1","0","",""
"","feedback","","html-keyboard-response","471","470552","0.0-1.0-645.0-0.0","0","0","84198","","null","","","null","71","","","","","","","","","","","","","","","",""
"","time_out","","html-keyboard-response","472","472575","0.0-1.0-647.0-0.0","0","0","84198","","null","","","null","71","","","","","","","","","","","","","","","",""
"","ITI","","html-keyboard-response","473","473582","0.0-1.0-648.0","0","0","84198","","null","","","null","71","","","","","","","","","","","","","","","NaN",""
"","S1","","html-keyboard-response","474","473738","0.0-1.0-650.0","0","0","84198","","null","","","null","72","","","","","","","","","","","","","","","",""
"","ISI","","html-keyboard-response","475","475745","0.0-1.0-651.0","0","0","84198","","null","","","null","72","NaN","","","","","","","","","","","","","","",""
"","S2","","html-keyboard-response","476","475897","0.0-1.0-652.0","0","0","84198","","null","","","null","72","","NaN","","","","","","","","","","","","","",""
"","response","","html-keyboard-response","477","476331","0.0-1.0-653.0-0.0","0","0","84198","","433","","","68","72","","","2","72","training","adjacent","ED","5","4","Q.jpg","N.jpg","1","0","0","",""
"","feedback","","html-keyboard-response","478","477343","0.0-1.0-654.0-0.0","0","0","84198","","null","","","null","72","","","","","","","","","","","","","","","",""
"","time_out","","html-keyboard-response","479","479359","0.0-1.0-656.0-0.0","0","0","84198","","null","","","null","72","","","","","","","","","","","","","","","",""
"","ITI","","html-keyboard-response","480","480381","0.0-1.0-657.0","0","0","84198","","null","","","null","72","","","","","","","","","","","","","","","NaN",""
"","S1","","html-keyboard-response","481","480543","0.0-1.0-659.0","0","0","84198","","null","","","null","73","","","","","","","","","","","","","","","",""
"","ISI","","html-keyboard-response","482","482547","0.0-1.0-660.0","0","0","84198","","null","","","null","73","NaN","","","","","","","","","","","","","","",""
"","S2","","html-keyboard-response","483","482698","0.0-1.0-661.0","0","0","84198","","null","","","null","73","","NaN","","","","","","","","","","","","","",""
"","response","","html-keyboard-response","484","483047","0.0-1.0-662.0-0.0","0","0","84198","","347","","","75","73","","","2","73","training","adjacent","ED","5","4","Q.jpg","N.jpg","0","0","1","",""
"","feedback","","html-keyboard-response","485","484064","0.0-1.0-663.0-0.0","0","0","84198","","null","","","null","73","","","","","","","","","","","","","","","",""
"","ITI","","html-keyboard-response","486","485086","0.0-1.0-666.0","0","0","84198","","null","","","null","73","","","","","","","","","","","","","","","NaN",""
"","S1","","html-keyboard-response","487","485249","0.0-1.0-668.0","0","0","84198","","null","","","null","74","","","","","","","","","","","","","","","",""
"","ISI","","html-keyboard-response","488","487264","0.0-1.0-669.0","0","0","84198","","null","","","null","74","NaN","","","","","","","","","","","","","","",""
"","S2","","html-keyboard-response","489","487416","0.0-1.0-670.0","0","0","84198","","null","","","null","74","","NaN","","","","","","","","","","","","","",""
"","response","","html-keyboard-response","490","487593","0.0-1.0-671.0-0.0","0","0","84198","","176","","","68","74","","","2","74","training","adjacent","AB","1","2","L.jpg","M.jpg","1","1","1","",""
"","feedback","","html-keyboard-response","491","488609","0.0-1.0-672.0-0.0","0","0","84198","","null","","","null","74","","","","","","","","","","","","","","","",""
"","ITI","","html-keyboard-response","492","489625","0.0-1.0-675.0","0","0","84198","","null","","","null","74","","","","","","","","","","","","","","","NaN",""
"","S1","","html-keyboard-response","493","489776","0.0-1.0-677.0","0","0","84198","","null","","","null","75","","","","","","","","","","","","","","","",""
"","ISI","","html-keyboard-response","494","491798","0.0-1.0-678.0","0","0","84198","","null","","","null","75","NaN","","","","","","","","","","","","","","",""
"","S2","","html-keyboard-response","495","491958","0.0-1.0-679.0","0","0","84198","","null","","","null","75","","NaN","","","","","","","","","","","","","",""
"","response","","html-keyboard-response","496","492227","0.0-1.0-680.0-0.0","0","0","84198","","268","","","68","75","","","2","75","training","adjacent","EF","5","6","Q.jpg","R.jpg","1","1","1","",""
"","feedback","","html-keyboard-response","497","493229","0.0-1.0-681.0-0.0","0","0","84198","","null","","","null","75","","","","","","","","","","","","","","","",""
"","ITI","","html-keyboard-response","498","494248","0.0-1.0-684.0","0","0","84198","","null","","","null","75","","","","","","","","","","","","","","","NaN",""
"","S1","","html-keyboard-response","499","494410","0.0-1.0-686.0","0","0","84198","","null","","","null","76","","","","","","","","","","","","","","","",""
"","ISI","","html-keyboard-response","500","496418","0.0-1.0-687.0","0","0","84198","","null","","","null","76","NaN","","","","","","","","","","","","","","",""
"","S2","","html-keyboard-response","501","496578","0.0-1.0-688.0","0","0","84198","","null","","","null","76","","NaN","","","","","","","","","","","","","",""
"","response","","html-keyboard-response","502","496990","0.0-1.0-689.0-0.0","0","0","84198","","411","","","75","76","","","2","76","training","adjacent","EF","5","6","Q.jpg","R.jpg","0","1","0","",""
"","feedback","","html-keyboard-response","503","498004","0.0-1.0-690.0-0.0","0","0","84198","","null","","","null","76","","","","","","","","","","","","","","","",""
"","time_out","","html-keyboard-response","504","500014","0.0-1.0-692.0-0.0","0","0","84198","","null","","","null","76","","","","","","","","","","","","","","","",""
"","ITI","","html-keyboard-response","505","501024","0.0-1.0-693.0","0","0","84198","","null","","","null","76","","","","","","","","","","","","","","","NaN",""
"","S1","","html-keyboard-response","506","501187","0.0-1.0-695.0","0","0","84198","","null","","","null","77","","","","","","","","","","","","","","","",""
"","ISI","","html-keyboard-response","507","503213","0.0-1.0-696.0","0","0","84198","","null","","","null","77","NaN","","","","","","","","","","","","","","",""
"","S2","","html-keyboard-response","508","503363","0.0-1.0-697.0","0","0","84198","","null","","","null","77","","NaN","","","","","","","","","","","","","",""
"","response","","html-keyboard-response","509","503497","0.0-1.0-698.0-0.0","0","0","84198","","133","","","75","77","","","2","77","training","adjacent","ED","5","4","Q.jpg","N.jpg","0","0","1","",""
"","feedback","","html-keyboard-response","510","504514","0.0-1.0-699.0-0.0","0","0","84198","","null","","","null","77","","","","","","","","","","","","","","","",""
"","ITI","","html-keyboard-response","511","505515","0.0-1.0-702.0","0","0","84198","","null","","","null","77","","","","","","","","","","","","","","","NaN",""
"","S1","","html-keyboard-response","512","505678","0.0-1.0-704.0","0","0","84198","","null","","","null","78","","","","","","","","","","","","","","","",""
"","ISI","","html-keyboard-response","513","507682","0.0-1.0-705.0","0","0","84198","","null","","","null","78","NaN","","","","","","","","","","","","","","",""
"","S2","","html-keyboard-response","514","507836","0.0-1.0-706.0","0","0","84198","","null","","","null","78","","NaN","","","","","","","","","","","","","",""
"","response","","html-keyboard-response","515","508003","0.0-1.0-707.0-0.0","0","0","84198","","166","","","68","78","","","2","78","training","adjacent","BC","2","3","M.jpg","O.jpg","1","1","1","",""
"","feedback","","html-keyboard-response","516","509021","0.0-1.0-708.0-0.0","0","0","84198","","null","","","null","78","","","","","","","","","","","","","","","",""
"","ITI","","html-keyboard-response","517","510037","0.0-1.0-711.0","0","0","84198","","null","","","null","78","","","","","","","","","","","","","","","NaN",""
"","S1","","html-keyboard-response","518","510197","0.0-1.0-713.0","0","0","84198","","null","","","null","79","","","","","","","","","","","","","","","",""
"","ISI","","html-keyboard-response","519","512202","0.0-1.0-714.0","0","0","84198","","null","","","null","79","NaN","","","","","","","","","","","","","","",""
"","S2","","html-keyboard-response","520","512355","0.0-1.0-715.0","0","0","84198","","null","","","null","79","","NaN","","","","","","","","","","","","","",""
"","response","","html-keyboard-response","521","512661","0.0-1.0-716.0-0.0","0","0","84198","","305","","","68","79","","","2","79","training","adjacent","AB","1","2","L.jpg","M.jpg","1","1","1","",""
"","feedback","","html-keyboard-response","522","513666","0.0-1.0-717.0-0.0","0","0","84198","","null","","","null","79","","","","","","","","","","","","","","","",""
"","ITI","","html-keyboard-response","523","514673","0.0-1.0-720.0","0","0","84198","","null","","","null","79","","","","","","","","","","","","","","","NaN",""
"","S1","","html-keyboard-response","524","514826","0.0-1.0-722.0","0","0","84198","","null","","","null","80","","","","","","","","","","","","","","","",""
"","ISI","","html-keyboard-response","525","516831","0.0-1.0-723.0","0","0","84198","","1842","","","75","80","k","","","","","","","","","","","","","","",""
"","S2","","html-keyboard-response","526","516999","0.0-1.0-724.0","0","0","84198","","null","","","null","80","","NaN","","","","","","","","","","","","","",""
"","response","","html-keyboard-response","527","517143","0.0-1.0-725.0-0.0","0","0","84198","","143","","","75","80","","","2","80","training","adjacent","DC","4","3","N.jpg","O.jpg","0","0","1","",""
"","feedback","","html-keyboard-response","528","518145","0.0-1.0-726.0-0.0","0","0","84198","","null","","","null","80","","","","","","","","","","","","","","","",""
"","ITI","","html-keyboard-response","529","519146","0.0-1.0-729.0","0","0","84198","","null","","","null","80","","","","","","","","","","","","","","","NaN",""
"","S1","","html-keyboard-response","530","519297","0.0-1.0-731.0","0","0","84198","","null","","","null","81","","","","","","","","","","","","","","","",""
"","ISI","","html-keyboard-response","531","521311","0.0-1.0-732.0","0","0","84198","","null","","","null","81","NaN","","","","","","","","","","","","","","",""
"","S2","","html-keyboard-response","532","521465","0.0-1.0-733.0","0","0","84198","","null","","","null","81","","NaN","","","","","","","","","","","","","",""
"","response","","html-keyboard-response","533","521610","0.0-1.0-734.0-0.0","0","0","84198","","144","","","75","81","","","2","81","training","adjacent","FG","6","7","R.jpg","P.jpg","0","1","0","",""
"","feedback","","html-keyboard-response","534","522614","0.0-1.0-735.0-0.0","0","0","84198","","null","","","null","81","","","","","","","","","","","","","","","",""
"","time_out","","html-keyboard-response","535","524616","0.0-1.0-737.0-0.0","0","0","84198","","null","","","null","81","","","","","","","","","","","","","","","",""
"","ITI","","html-keyboard-response","536","525639","0.0-1.0-738.0","0","0","84198","","null","","","null","81","","","","","","","","","","","","","","","NaN",""
"","S1","","html-keyboard-response","537","525797","0.0-1.0-740.0","0","0","84198","","null","","","null","82","","","","","","","","","","","","","","","",""
"","ISI","","html-keyboard-response","538","527804","0.0-1.0-741.0","0","0","84198","","null","","","null","82","NaN","","","","","","","","","","","","","","",""
"","S2","","html-keyboard-response","539","527957","0.0-1.0-742.0","0","0","84198","","null","","","null","82","","NaN","","","","","","","","","","","","","",""
"","response","","html-keyboard-response","540","528165","0.0-1.0-743.0-0.0","0","0","84198","","206","","","68","82","","","2","82","training","adjacent","BC","2","3","M.jpg","O.jpg","1","1","1","",""
"","feedback","","html-keyboard-response","541","529174","0.0-1.0-744.0-0.0","0","0","84198","","null","","","null","82","","","","","","","","","","","","","","","",""
"","ITI","","html-keyboard-response","542","530176","0.0-1.0-747.0","0","0","84198","","null","","","null","82","","","","","","","","","","","","","","","NaN",""
"","S1","","html-keyboard-response","543","530344","0.0-1.0-749.0","0","0","84198","","null","","","null","83","","","","","","","","","","","","","","","",""
"","ISI","","html-keyboard-response","544","532347","0.0-1.0-750.0","0","0","84198","","null","","","null","83","NaN","","","","","","","","","","","","","","",""
"","S2","","html-keyboard-response","545","532510","0.0-1.0-751.0","0","0","84198","","null","","","null","83","","NaN","","","","","","","","","","","","","",""
"","response","","html-keyboard-response","546","532599","0.0-1.0-752.0-0.0","0","0","84198","","88","","","68","83","","","2","83","training","adjacent","EF","5","6","Q.jpg","R.jpg","1","1","1","",""
"","feedback","","html-keyboard-response","547","533610","0.0-1.0-753.0-0.0","0","0","84198","","null","","","null","83","","","","","","","","","","","","","","","",""
"","ITI","","html-keyboard-response","548","534612","0.0-1.0-756.0","0","0","84198","","null","","","null","83","","","","","","","","","","","","","","","NaN",""
"","S1","","html-keyboard-response","549","534766","0.0-1.0-758.0","0","0","84198","","null","","","null","84","","","","","","","","","","","","","","","",""
"","ISI","","html-keyboard-response","550","536782","0.0-1.0-759.0","0","0","84198","","553","","","68","84","d","","","","","","","","","","","","","","",""
"","S2","","html-keyboard-response","551","536953","0.0-1.0-760.0","0","0","84198","","null","","","null","84","","NaN","","","","","","","","","","","","","",""
"","response","","html-keyboard-response","552","537065","0.0-1.0-761.0-0.0","0","0","84198","","111","","","75","84","","","2","84","training","adjacent","CD","3","4","O.jpg","N.jpg","0","1","0","",""
"","feedback","","html-keyboard-response","553","538070","0.0-1.0-762.0-0.0","0","0","84198","","null","","","null","84","","","","","","","","","","","","","","","",""
"","time_out","","html-keyboard-response","554","540083","0.0-1.0-764.0-0.0","0","0","84198","","null","","","null","84","","","","","","","","","","","","","","","",""
"","ITI","","html-keyboard-response","555","541090","0.0-1.0-765.0","0","0","84198","","null","","","null","84","","","","","","","","","","","","","","","NaN",""
"","S1","","html-keyboard-response","556","541259","0.0-1.0-767.0","0","0","84198","","null","","","null","85","","","","","","","","","","","","","","","",""
"","ISI","","html-keyboard-response","557","543261","0.0-1.0-768.0","0","0","84198","","null","","","null","85","NaN","","","","","","","","","","","","","","",""
"","S2","","html-keyboard-response","558","543416","0.0-1.0-769.0","0","0","84198","","null","","","null","85","","NaN","","","","","","","","","","","","","",""
"","response","","html-keyboard-response","559","543749","0.0-1.0-770.0-0.0","0","0","84198","","332","","","75","85","","","2","85","training","adjacent","BA","2","1","M.jpg","L.jpg","0","0","1","",""
"","feedback","","html-keyboard-response","560","544763","0.0-1.0-771.0-0.0","0","0","84198","","null","","","null","85","","","","","","","","","","","","","","","",""
"","ITI","","html-keyboard-response","561","545765","0.0-1.0-774.0","0","0","84198","","null","","","null","85","","","","","","","","","","","","","","","NaN",""
"","S1","","html-keyboard-response","562","545928","0.0-1.0-776.0","0","0","84198","","null","","","null","86","","","","","","","","","","","","","","","",""
"","ISI","","html-keyboard-response","563","547930","0.0-1.0-777.0","0","0","84198","","null","","","null","86","NaN","","","","","","","","","","","","","","",""
"","S2","","html-keyboard-response","564","548083","0.0-1.0-778.0","0","0","84198","","null","","","null","86","","NaN","","","","","","","","","","","","","",""
"","response","","html-keyboard-response","565","548293","0.0-1.0-779.0-0.0","0","0","84198","","209","","","75","86","","","2","86","training","adjacent","CB","3","2","O.jpg","M.jpg","0","0","1","",""
"","feedback","","html-keyboard-response","566","549299","0.0-1.0-780.0-0.0","0","0","84198","","null","","","null","86","","","","","","","","","","","","","","","",""
"","ITI","","html-keyboard-response","567","550316","0.0-1.0-783.0","0","0","84198","","null","","","null","86","","","","","","","","","","","","","","","NaN",""
"","S1","","html-keyboard-response","568","550469","0.0-1.0-785.0","0","0","84198","","null","","","null","87","","","","","","","","","","","","","","","",""
"","ISI","","html-keyboard-response","569","552486","0.0-1.0-786.0","0","0","84198","","null","","","null","87","NaN","","","","","","","","","","","","","","",""
"","S2","","html-keyboard-response","570","552649","0.0-1.0-787.0","0","0","84198","","null","","","null","87","","NaN","","","","","","","","","","","","","",""
"","response","","html-keyboard-response","571","552809","0.0-1.0-788.0-0.0","0","0","84198","","159","","","68","87","","","2","87","training","adjacent","GF","7","6","P.jpg","R.jpg","1","0","0","",""
"","feedback","","html-keyboard-response","572","553818","0.0-1.0-789.0-0.0","0","0","84198","","null","","","null","87","","","","","","","","","","","","","","","",""
"","time_out","","html-keyboard-response","573","555819","0.0-1.0-791.0-0.0","0","0","84198","","null","","","null","87","","","","","","","","","","","","","","","",""
"","ITI","","html-keyboard-response","574","556825","0.0-1.0-792.0","0","0","84198","","null","","","null","87","","","","","","","","","","","","","","","NaN",""
"","S1","","html-keyboard-response","575","556990","0.0-1.0-794.0","0","0","84198","","null","","","null","88","","","","","","","","","","","","","","","",""
"","ISI","","html-keyboard-response","576","558998","0.0-1.0-795.0","0","0","84198","","null","","","null","88","NaN","","","","","","","","","","","","","","",""
"","S2","","html-keyboard-response","577","559152","0.0-1.0-796.0","0","0","84198","","null","","","null","88","","NaN","","","","","","","","","","","","","",""
"","response","","html-keyboard-response","578","560332","0.0-1.0-797.0-0.0","0","0","84198","","1178","","","68","88","","","2","88","training","adjacent","BA","2","1","M.jpg","L.jpg","1","0","0","",""
"","feedback","","html-keyboard-response","579","561344","0.0-1.0-798.0-0.0","0","0","84198","","null","","","null","88","","","","","","","","","","","","","","","",""
"","time_out","","html-keyboard-response","580","563356","0.0-1.0-800.0-0.0","0","0","84198","","null","","","null","88","","","","","","","","","","","","","","","",""
