"success","ttype","start_time","trial_type","trial_index","time_elapsed","internal_node_id","warning","missed_checkup","PID","view_history","rt","responses","repeat_instructions","key_press","index","keypress_isi","keypress_S2","block","trial_num","phase","group_type","pair_type","S1_stim","S2_stim","S1_img","S2_img","S1_chosen","S1_higher","accuracy","keypress_iti","total_bonus_tally"
"true","full_screen","d03072023hr1739","fullscreen","0","2606","0.0-0.0","0","0","28482","","","","","","","","","","","","","","","","","","","","","",""
"","instructions","","instructions","1","18432","0.0-1.0-0.0-0.0","0","0","28482","[{""page_index"":0,""viewing_time"":5170},{""page_index"":1,""viewing_time"":5564},{""page_index"":2,""viewing_time"":3766},{""page_index"":3,""viewing_time"":1322}]","15822","","","","","","","","","","","","","","","","","","","",""
"","comprehension_check","","survey-multi-choice","2","45082","0.0-1.0-0.0-1.0","0","0","28482","","26644","{""Q0"":""True"",""Q1"":""D"",""Q2"":""Only when the screen 'MAKE A CHOICE' is shown"",""Q3"":""Green mark"",""Q4"":""either D or K""}","1","","","","","","","","","","","","","","","","","",""
"","missed_instruction_checkup","","html-keyboard-response","3","48019","0.0-1.0-0.0-2.0-0.0","0","1","28482","","2931","","","32","","","","","","","","","","","","","","","","",""
"","instructions","","instructions","4","58233","0.0-1.0-0.1-0.1","0","0","28482","[{""page_index"":0,""viewing_time"":2788},{""page_index"":1,""viewing_time"":6218},{""page_index"":2,""viewing_time"":622},{""page_index"":3,""viewing_time"":584}]","10212","","","","","","","","","","","","","","","","","","","",""
"","comprehension_check","","survey-multi-choice","5","68621","0.0-1.0-0.1-1.1","0","0","28482","","10385","{""Q0"":""True"",""Q1"":""D"",""Q2"":""Once the second image appears and while the screen 'MAKE A CHOICE' is shown"",""Q3"":""Green mark"",""Q4"":""either D or K""}","0","","","","","","","","","","","","","","","","","",""
"","start_exp","","html-keyboard-response","6","70149","0.0-1.0-1.0","0","0","28482","","1522","","","32","","","","","","","","","","","","","","","","",""
"","S1","","html-keyboard-response","7","70406","0.0-1.0-2.0","0","0","28482","","null","","","null","0","","","","","","","","","","","","","","","",""
"","ISI","","html-keyboard-response","8","71410","0.0-1.0-3.0","0","0","28482","","null","","","null","0","NaN","","","","","","","","","","","","","","",""
"","S2","","html-keyboard-response","9","71666","0.0-1.0-4.0","0","0","28482","","null","","","null","0","","NaN","","","","","","","","","","","","","",""
"","response","","html-keyboard-response","10","71838","0.0-1.0-5.0-0.0","0","0","28482","","166","","","68","0","","","1","0","training","adjacent","DC","4","3","O.jpg","M.jpg","1","0","0","",""
"","feedback","","html-keyboard-response","11","72844","0.0-1.0-6.0-0.0","0","0","28482","","null","","","null","0","","","","","","","","","","","","","","","",""
"","time_out","","html-keyboard-response","12","74849","0.0-1.0-8.0-0.0","0","0","28482","","null","","","null","0","","","","","","","","","","","","","","","",""
"","ITI","","html-keyboard-response","13","75854","0.0-1.0-9.0","0","0","28482","","112","","","68","0","","","","","","","","","","","","","","","d",""
"","S1","","html-keyboard-response","14","76110","0.0-1.0-11.0","0","0","28482","","null","","","null","1","","","","","","","","","","","","","","","",""
"","ISI","","html-keyboard-response","15","77115","0.0-1.0-12.0","0","0","28482","","403","","","68","1","d","","","","","","","","","","","","","","",""
"","S2","","html-keyboard-response","16","77310","0.0-1.0-13.0","0","0","28482","","188","","","68","1","","d","1","1","training","adjacent","EF","5","6","R.jpg","Q.jpg","1","1","1","",""
"","feedback","","html-keyboard-response","17","78317","0.0-1.0-15.0-0.0","0","0","28482","","null","","","null","1","","","","","","","","","","","","","","","",""
"","ITI","","html-keyboard-response","18","79321","0.0-1.0-18.0","0","0","28482","","700","","","68","1","","","","","","","","","","","","","","","d",""
"","S1","","html-keyboard-response","19","79576","0.0-1.0-20.0","0","0","28482","","null","","","null","2","","","","","","","","","","","","","","","",""
"","ISI","","html-keyboard-response","20","80578","0.0-1.0-21.0","0","0","28482","","306","","","68","2","d","","","","","","","","","","","","","","",""
"","S2","","html-keyboard-response","21","80587","0.0-1.0-22.0","0","0","28482","","6","","","68","2","","d","1","2","training","adjacent","ED","5","4","R.jpg","O.jpg","1","0","0","",""
"","feedback","","html-keyboard-response","22","81591","0.0-1.0-24.0-0.0","0","0","28482","","null","","","null","2","","","","","","","","","","","","","","","",""
"","time_out","","html-keyboard-response","23","83595","0.0-1.0-26.0-0.0","0","0","28482","","null","","","null","2","","","","","","","","","","","","","","","",""
"","ITI","","html-keyboard-response","24","84598","0.0-1.0-27.0","0","0","28482","","46","","","68","2","","","","","","","","","","","","","","","d",""
"","S1","","html-keyboard-response","25","84851","0.0-1.0-29.0","0","0","28482","","null","","","null","3","","","","","","","","","","","","","","","",""
"","ISI","","html-keyboard-response","26","85856","0.0-1.0-30.0","0","0","28482","","102","","","75","3","k","","","","","","","","","","","","","","",""
"","S2","","html-keyboard-response","27","86061","0.0-1.0-31.0","0","0","28482","","200","","","75","3","","k","1","3","training","adjacent","CD","3","4","M.jpg","O.jpg","0","1","0","",""
"","feedback","","html-keyboard-response","28","87067","0.0-1.0-33.0-0.0","0","0","28482","","null","","","null","3","","","","","","","","","","","","","","","",""
"","time_out","","html-keyboard-response","29","89071","0.0-1.0-35.0-0.0","0","0","28482","","null","","","null","3","","","","","","","","","","","","","","","",""
"","ITI","","html-keyboard-response","30","90077","0.0-1.0-36.0","0","0","28482","","75","","","75","3","","","","","","","","","","","","","","","k",""
"","S1","","html-keyboard-response","31","90332","0.0-1.0-38.0","0","0","28482","","null","","","null","4","","","","","","","","","","","","","","","",""
"","ISI","","html-keyboard-response","32","91337","0.0-1.0-39.0","0","0","28482","","118","","","75","4","k","","","","","","","","","","","","","","",""
"","S2","","html-keyboard-response","33","91593","0.0-1.0-40.0","0","0","28482","","null","","","null","4","","NaN","","","","","","","","","","","","","",""
"","response","","html-keyboard-response","34","91741","0.0-1.0-41.0-0.0","0","0","28482","","143","","","75","4","","","1","4","training","adjacent","FG","6","7","Q.jpg","N.jpg","0","1","0","",""
"","feedback","","html-keyboard-response","35","92750","0.0-1.0-42.0-0.0","0","0","28482","","null","","","null","4","","","","","","","","","","","","","","","",""
"","time_out","","html-keyboard-response","36","94757","0.0-1.0-44.0-0.0","0","0","28482","","null","","","null","4","","","","","","","","","","","","","","","",""
"","ITI","","html-keyboard-response","37","95762","0.0-1.0-45.0","0","0","28482","","380","","","68","4","","","","","","","","","","","","","","","d",""
"","S1","","html-keyboard-response","38","96019","0.0-1.0-47.0","0","0","28482","","null","","","null","5","","","","","","","","","","","","","","","",""
"","ISI","","html-keyboard-response","39","97023","0.0-1.0-48.0","0","0","28482","","670","","","68","5","d","","","","","","","","","","","","","","",""
"","S2","","html-keyboard-response","40","97133","0.0-1.0-49.0","0","0","28482","","104","","","68","5","","d","1","5","training","adjacent","FE","6","5","Q.jpg","R.jpg","1","0","0","",""
"","feedback","","html-keyboard-response","41","98139","0.0-1.0-51.0-0.0","0","0","28482","","null","","","null","5","","","","","","","","","","","","","","","",""
"","time_out","","html-keyboard-response","42","100142","0.0-1.0-53.0-0.0","0","0","28482","","null","","","null","5","","","","","","","","","","","","","","","",""
"","ITI","","html-keyboard-response","43","101147","0.0-1.0-54.0","0","0","28482","","514","","","68","5","","","","","","","","","","","","","","","d",""
"","S1","","html-keyboard-response","44","101402","0.0-1.0-56.0","0","0","28482","","null","","","null","6","","","","","","","","","","","","","","","",""
"","ISI","","html-keyboard-response","45","102407","0.0-1.0-57.0","0","0","28482","","815","","","68","6","d","","","","","","","","","","","","","","",""
"","S2","","html-keyboard-response","46","102664","0.0-1.0-58.0","0","0","28482","","null","","","null","6","","NaN","","","","","","","","","","","","","",""
"","response","","html-keyboard-response","47","103045","0.0-1.0-59.0-0.0","0","0","28482","","376","","","68","6","","","1","6","training","adjacent","EF","5","6","R.jpg","Q.jpg","1","1","1","",""
"","feedback","","html-keyboard-response","48","104050","0.0-1.0-60.0-0.0","0","0","28482","","null","","","null","6","","","","","","","","","","","","","","","",""
"","ITI","","html-keyboard-response","49","105056","0.0-1.0-63.0","0","0","28482","","150","","","68","6","","","","","","","","","","","","","","","d",""
"","S1","","html-keyboard-response","50","105311","0.0-1.0-65.0","0","0","28482","","null","","","null","7","","","","","","","","","","","","","","","",""
"","ISI","","html-keyboard-response","51","106315","0.0-1.0-66.0","0","0","28482","","58","","","68","7","d","","","","","","","","","","","","","","",""
"","S2","","html-keyboard-response","52","106570","0.0-1.0-67.0","0","0","28482","","null","","","null","7","","NaN","","","","","","","","","","","","","",""
"","response","","html-keyboard-response","53","106749","0.0-1.0-68.0-0.0","0","0","28482","","175","","","68","7","","","1","7","training","adjacent","GF","7","6","N.jpg","Q.jpg","1","0","0","",""
"","feedback","","html-keyboard-response","54","107755","0.0-1.0-69.0-0.0","0","0","28482","","null","","","null","7","","","","","","","","","","","","","","","",""
"","time_out","","html-keyboard-response","55","109771","0.0-1.0-71.0-0.0","0","0","28482","","null","","","null","7","","","","","","","","","","","","","","","",""
"","ITI","","html-keyboard-response","56","110775","0.0-1.0-72.0","0","0","28482","","134","","","68","7","","","","","","","","","","","","","","","d",""
"","S1","","html-keyboard-response","57","111031","0.0-1.0-74.0","0","0","28482","","null","","","null","8","","","","","","","","","","","","","","","",""
"","ISI","","html-keyboard-response","58","112036","0.0-1.0-75.0","0","0","28482","","202","","","68","8","d","","","","","","","","","","","","","","",""
"","S2","","html-keyboard-response","59","112253","0.0-1.0-76.0","0","0","28482","","212","","","68","8","","d","1","8","training","adjacent","DE","4","5","O.jpg","R.jpg","1","1","1","",""
"","feedback","","html-keyboard-response","60","113258","0.0-1.0-78.0-0.0","0","0","28482","","null","","","null","8","","","","","","","","","","","","","","","",""
"","ITI","","html-keyboard-response","61","114263","0.0-1.0-81.0","0","0","28482","","287","","","68","8","","","","","","","","","","","","","","","d",""
"","S1","","html-keyboard-response","62","114519","0.0-1.0-83.0","0","0","28482","","null","","","null","9","","","","","","","","","","","","","","","",""
"","ISI","","html-keyboard-response","63","115523","0.0-1.0-84.0","0","0","28482","","2","","","68","9","d","","","","","","","","","","","","","","",""
"","S2","","html-keyboard-response","64","115668","0.0-1.0-85.0","0","0","28482","","140","","","68","9","","d","1","9","training","adjacent","EF","5","6","R.jpg","Q.jpg","1","1","1","",""
"","feedback","","html-keyboard-response","65","116673","0.0-1.0-87.0-0.0","0","0","28482","","null","","","null","9","","","","","","","","","","","","","","","",""
"","ITI","","html-keyboard-response","66","117678","0.0-1.0-90.0","0","0","28482","","256","","","68","9","","","","","","","","","","","","","","","d",""
"","S1","","html-keyboard-response","67","117932","0.0-1.0-92.0","0","0","28482","","null","","","null","10","","","","","","","","","","","","","","","",""
"","ISI","","html-keyboard-response","68","118935","0.0-1.0-93.0","0","0","28482","","221","","","68","10","d","","","","","","","","","","","","","","",""
"","S2","","html-keyboard-response","69","119191","0.0-1.0-94.0","0","0","28482","","null","","","null","10","","NaN","","","","","","","","","","","","","",""
"","response","","html-keyboard-response","70","119220","0.0-1.0-95.0-0.0","0","0","28482","","25","","","68","10","","","1","10","training","adjacent","BC","2","3","P.jpg","M.jpg","1","1","1","",""
"","feedback","","html-keyboard-response","71","120226","0.0-1.0-96.0-0.0","0","0","28482","","null","","","null","10","","","","","","","","","","","","","","","",""
"","ITI","","html-keyboard-response","72","121231","0.0-1.0-99.0","0","0","28482","","703","","","68","10","","","","","","","","","","","","","","","d",""
"","S1","","html-keyboard-response","73","121488","0.0-1.0-101.0","0","0","28482","","null","","","null","11","","","","","","","","","","","","","","","",""
"","ISI","","html-keyboard-response","74","122492","0.0-1.0-102.0","0","0","28482","","41","","","68","11","d","","","","","","","","","","","","","","",""
"","S2","","html-keyboard-response","75","122732","0.0-1.0-103.0","0","0","28482","","234","","","68","11","","d","1","11","training","adjacent","BA","2","1","P.jpg","L.jpg","1","0","0","",""
"","feedback","","html-keyboard-response","76","123738","0.0-1.0-105.0-0.0","0","0","28482","","null","","","null","11","","","","","","","","","","","","","","","",""
"","time_out","","html-keyboard-response","77","125744","0.0-1.0-107.0-0.0","0","0","28482","","null","","","null","11","","","","","","","","","","","","","","","",""
"","ITI","","html-keyboard-response","78","126748","0.0-1.0-108.0","0","0","28482","","353","","","68","11","","","","","","","","","","","","","","","d",""
"","S1","","html-keyboard-response","79","127003","0.0-1.0-110.0","0","0","28482","","null","","","null","12","","","","","","","","","","","","","","","",""
"","ISI","","html-keyboard-response","80","128008","0.0-1.0-111.0","0","0","28482","","637","","","68","12","d","","","","","","","","","","","","","","",""
"","S2","","html-keyboard-response","81","128235","0.0-1.0-112.0","0","0","28482","","222","","","68","12","","d","1","12","training","adjacent","BC","2","3","P.jpg","M.jpg","1","1","1","",""
"","feedback","","html-keyboard-response","82","129243","0.0-1.0-114.0-0.0","0","0","28482","","null","","","null","12","","","","","","","","","","","","","","","",""
"","ITI","","html-keyboard-response","83","130248","0.0-1.0-117.0","0","0","28482","","253","","","68","12","","","","","","","","","","","","","","","d",""
"","S1","","html-keyboard-response","84","130504","0.0-1.0-119.0","0","0","28482","","null","","","null","13","","","","","","","","","","","","","","","",""
"","ISI","","html-keyboard-response","85","131531","0.0-1.0-120.0","0","0","28482","","232","","","68","13","d","","","","","","","","","","","","","","",""
"","S2","","html-keyboard-response","86","131785","0.0-1.0-121.0","0","0","28482","","null","","","null","13","","NaN","","","","","","","","","","","","","",""
"","response","","html-keyboard-response","87","132229","0.0-1.0-122.0-0.0","0","0","28482","","439","","","68","13","","","1","13","training","adjacent","GF","7","6","N.jpg","Q.jpg","1","0","0","",""
"","feedback","","html-keyboard-response","88","133234","0.0-1.0-123.0-0.0","0","0","28482","","null","","","null","13","","","","","","","","","","","","","","","",""
"","time_out","","html-keyboard-response","89","135238","0.0-1.0-125.0-0.0","0","0","28482","","null","","","null","13","","","","","","","","","","","","","","","",""
"","ITI","","html-keyboard-response","90","136242","0.0-1.0-126.0","0","0","28482","","786","","","68","13","","","","","","","","","","","","","","","d",""
"","S1","","html-keyboard-response","91","136499","0.0-1.0-128.0","0","0","28482","","null","","","null","14","","","","","","","","","","","","","","","",""
"","ISI","","html-keyboard-response","92","137502","0.0-1.0-129.0","0","0","28482","","198","","","68","14","d","","","","","","","","","","","","","","",""
"","S2","","html-keyboard-response","93","137660","0.0-1.0-130.0","0","0","28482","","153","","","75","14","","k","1","14","training","adjacent","FE","6","5","Q.jpg","R.jpg","0","0","1","",""
"","feedback","","html-keyboard-response","94","138667","0.0-1.0-132.0-0.0","0","0","28482","","null","","","null","14","","","","","","","","","","","","","","","",""
"","ITI","","html-keyboard-response","95","139671","0.0-1.0-135.0","0","0","28482","","365","","","75","14","","","","","","","","","","","","","","","k",""
"","S1","","html-keyboard-response","96","139925","0.0-1.0-137.0","0","0","28482","","null","","","null","15","","","","","","","","","","","","","","","",""
"","ISI","","html-keyboard-response","97","140929","0.0-1.0-138.0","0","0","28482","","267","","","75","15","k","","","","","","","","","","","","","","",""
"","S2","","html-keyboard-response","98","141036","0.0-1.0-139.0","0","0","28482","","101","","","75","15","","k","1","15","training","adjacent","GF","7","6","N.jpg","Q.jpg","0","0","1","",""
"","feedback","","html-keyboard-response","99","142041","0.0-1.0-141.0-0.0","0","0","28482","","null","","","null","15","","","","","","","","","","","","","","","",""
"","ITI","","html-keyboard-response","100","143047","0.0-1.0-144.0","0","0","28482","","375","","","75","15","","","","","","","","","","","","","","","k",""
"","S1","","html-keyboard-response","101","143302","0.0-1.0-146.0","0","0","28482","","null","","","null","16","","","","","","","","","","","","","","","",""
"","ISI","","html-keyboard-response","102","144307","0.0-1.0-147.0","0","0","28482","","282","","","75","16","k","","","","","","","","","","","","","","",""
"","S2","","html-keyboard-response","103","144364","0.0-1.0-148.0","0","0","28482","","52","","","68","16","","d","1","16","training","adjacent","DE","4","5","O.jpg","R.jpg","1","1","1","",""
"","feedback","","html-keyboard-response","104","145371","0.0-1.0-150.0-0.0","0","0","28482","","null","","","null","16","","","","","","","","","","","","","","","",""
"","ITI","","html-keyboard-response","105","146375","0.0-1.0-153.0","0","0","28482","","125","","","68","16","","","","","","","","","","","","","","","d",""
"","S1","","html-keyboard-response","106","146641","0.0-1.0-155.0","0","0","28482","","null","","","null","17","","","","","","","","","","","","","","","",""
"","ISI","","html-keyboard-response","107","147645","0.0-1.0-156.0","0","0","28482","","7","","","68","17","d","","","","","","","","","","","","","","",""
"","S2","","html-keyboard-response","108","147901","0.0-1.0-157.0","0","0","28482","","null","","","null","17","","NaN","","","","","","","","","","","","","",""
"","response","","html-keyboard-response","109","147972","0.0-1.0-158.0-0.0","0","0","28482","","66","","","75","17","","","1","17","training","adjacent","BC","2","3","P.jpg","M.jpg","0","1","0","",""
"","feedback","","html-keyboard-response","110","148978","0.0-1.0-159.0-0.0","0","0","28482","","null","","","null","17","","","","","","","","","","","","","","","",""
"","time_out","","html-keyboard-response","111","150982","0.0-1.0-161.0-0.0","0","0","28482","","null","","","null","17","","","","","","","","","","","","","","","",""
"","ITI","","html-keyboard-response","112","151987","0.0-1.0-162.0","0","0","28482","","137","","","75","17","","","","","","","","","","","","","","","k",""
"","S1","","html-keyboard-response","113","152242","0.0-1.0-164.0","0","0","28482","","null","","","null","18","","","","","","","","","","","","","","","",""
"","ISI","","html-keyboard-response","114","153246","0.0-1.0-165.0","0","0","28482","","391","","","68","18","d","","","","","","","","","","","","","","",""
"","S2","","html-keyboard-response","115","153494","0.0-1.0-166.0","0","0","28482","","241","","","68","18","","d","1","18","training","adjacent","BC","2","3","P.jpg","M.jpg","1","1","1","",""
"","feedback","","html-keyboard-response","116","154499","0.0-1.0-168.0-0.0","0","0","28482","","null","","","null","18","","","","","","","","","","","","","","","",""
"","ITI","","html-keyboard-response","117","155503","0.0-1.0-171.0","0","0","28482","","269","","","75","18","","","","","","","","","","","","","","","k",""
"","S1","","html-keyboard-response","118","155759","0.0-1.0-173.0","0","0","28482","","null","","","null","19","","","","","","","","","","","","","","","",""
"","ISI","","html-keyboard-response","119","156763","0.0-1.0-174.0","0","0","28482","","266","","","68","19","d","","","","","","","","","","","","","","",""
"","S2","","html-keyboard-response","120","157018","0.0-1.0-175.0","0","0","28482","","null","","","null","19","","NaN","","","","","","","","","","","","","",""
"","response","","html-keyboard-response","121","157058","0.0-1.0-176.0-0.0","0","0","28482","","38","","","68","19","","","1","19","training","adjacent","AB","1","2","L.jpg","P.jpg","1","1","1","",""
"","feedback","","html-keyboard-response","122","158061","0.0-1.0-177.0-0.0","0","0","28482","","null","","","null","19","","","","","","","","","","","","","","","",""
"","ITI","","html-keyboard-response","123","159066","0.0-1.0-180.0","0","0","28482","","291","","","75","19","","","","","","","","","","","","","","","k",""
"","S1","","html-keyboard-response","124","159321","0.0-1.0-182.0","0","0","28482","","null","","","null","20","","","","","","","","","","","","","","","",""
"","ISI","","html-keyboard-response","125","160325","0.0-1.0-183.0","0","0","28482","","167","","","75","20","k","","","","","","","","","","","","","","",""
"","S2","","html-keyboard-response","126","160340","0.0-1.0-184.0","0","0","28482","","9","","","75","20","","k","1","20","training","adjacent","ED","5","4","R.jpg","O.jpg","0","0","1","",""
"","feedback","","html-keyboard-response","127","161345","0.0-1.0-186.0-0.0","0","0","28482","","null","","","null","20","","","","","","","","","","","","","","","",""
"","ITI","","html-keyboard-response","128","162349","0.0-1.0-189.0","0","0","28482","","295","","","68","20","","","","","","","","","","","","","","","d",""
"","S1","","html-keyboard-response","129","162604","0.0-1.0-191.0","0","0","28482","","null","","","null","21","","","","","","","","","","","","","","","",""
"","ISI","","html-keyboard-response","130","163609","0.0-1.0-192.0","0","0","28482","","476","","","68","21","d","","","","","","","","","","","","","","",""
"","S2","","html-keyboard-response","131","163757","0.0-1.0-193.0","0","0","28482","","142","","","68","21","","d","1","21","training","adjacent","CB","3","2","M.jpg","P.jpg","1","0","0","",""
"","feedback","","html-keyboard-response","132","164761","0.0-1.0-195.0-0.0","0","0","28482","","null","","","null","21","","","","","","","","","","","","","","","",""
"","time_out","","html-keyboard-response","133","166765","0.0-1.0-197.0-0.0","0","0","28482","","null","","","null","21","","","","","","","","","","","","","","","",""
"","ITI","","html-keyboard-response","134","167769","0.0-1.0-198.0","0","0","28482","","324","","","75","21","","","","","","","","","","","","","","","k",""
"","S1","","html-keyboard-response","135","168023","0.0-1.0-200.0","0","0","28482","","null","","","null","22","","","","","","","","","","","","","","","",""
"","ISI","","html-keyboard-response","136","169027","0.0-1.0-201.0","0","0","28482","","18","","","68","22","d","","","","","","","","","","","","","","",""
"","S2","","html-keyboard-response","137","169032","0.0-1.0-202.0","0","0","28482","","0","","","68","22","","d","1","22","training","adjacent","CB","3","2","M.jpg","P.jpg","1","0","0","",""
"","feedback","","html-keyboard-response","138","170037","0.0-1.0-204.0-0.0","0","0","28482","","null","","","null","22","","","","","","","","","","","","","","","",""
"","time_out","","html-keyboard-response","139","172042","0.0-1.0-206.0-0.0","0","0","28482","","null","","","null","22","","","","","","","","","","","","","","","",""
"","ITI","","html-keyboard-response","140","173046","0.0-1.0-207.0","0","0","28482","","111","","","68","22","","","","","","","","","","","","","","","d",""
"","S1","","html-keyboard-response","141","173301","0.0-1.0-209.0","0","0","28482","","null","","","null","23","","","","","","","","","","","","","","","",""
"","ISI","","html-keyboard-response","142","174306","0.0-1.0-210.0","0","0","28482","","76","","","68","23","d","","","","","","","","","","","","","","",""
"","S2","","html-keyboard-response","143","174402","0.0-1.0-211.0","0","0","28482","","92","","","75","23","","k","1","23","training","adjacent","FG","6","7","Q.jpg","N.jpg","0","1","0","",""
"","feedback","","html-keyboard-response","144","175411","0.0-1.0-213.0-0.0","0","0","28482","","null","","","null","23","","","","","","","","","","","","","","","",""
"","time_out","","html-keyboard-response","145","177416","0.0-1.0-215.0-0.0","0","0","28482","","null","","","null","23","","","","","","","","","","","","","","","",""
"","ITI","","html-keyboard-response","146","178422","0.0-1.0-216.0","0","0","28482","","144","","","75","23","","","","","","","","","","","","","","","k",""
"","S1","","html-keyboard-response","147","178680","0.0-1.0-218.0","0","0","28482","","null","","","null","24","","","","","","","","","","","","","","","",""
"","ISI","","html-keyboard-response","148","179684","0.0-1.0-219.0","0","0","28482","","136","","","75","24","k","","","","","","","","","","","","","","",""
"","S2","","html-keyboard-response","149","179940","0.0-1.0-220.0","0","0","28482","","null","","","null","24","","NaN","","","","","","","","","","","","","",""
"","response","","html-keyboard-response","150","180100","0.0-1.0-221.0-0.0","0","0","28482","","155","","","75","24","","","1","24","training","adjacent","AB","1","2","L.jpg","P.jpg","0","1","0","",""
"","feedback","","html-keyboard-response","151","181106","0.0-1.0-222.0-0.0","0","0","28482","","null","","","null","24","","","","","","","","","","","","","","","",""
"","time_out","","html-keyboard-response","152","183110","0.0-1.0-224.0-0.0","0","0","28482","","null","","","null","24","","","","","","","","","","","","","","","",""
"","ITI","","html-keyboard-response","153","184114","0.0-1.0-225.0","0","0","28482","","89","","","75","24","","","","","","","","","","","","","","","k",""
"","S1","","html-keyboard-response","154","184368","0.0-1.0-227.0","0","0","28482","","null","","","null","25","","","","","","","","","","","","","","","",""
"","ISI","","html-keyboard-response","155","185372","0.0-1.0-228.0","0","0","28482","","288","","","68","25","d","","","","","","","","","","","","","","",""
"","S2","","html-keyboard-response","156","185517","0.0-1.0-229.0","0","0","28482","","140","","","75","25","","k","1","25","training","adjacent","AB","1","2","L.jpg","P.jpg","0","1","0","",""
"","feedback","","html-keyboard-response","157","186522","0.0-1.0-231.0-0.0","0","0","28482","","null","","","null","25","","","","","","","","","","","","","","","",""
"","time_out","","html-keyboard-response","158","188526","0.0-1.0-233.0-0.0","0","0","28482","","null","","","null","25","","","","","","","","","","","","","","","",""
"","ITI","","html-keyboard-response","159","189531","0.0-1.0-234.0","0","0","28482","","11","","","75","25","","","","","","","","","","","","","","","k",""
"","S1","","html-keyboard-response","160","189787","0.0-1.0-236.0","0","0","28482","","null","","","null","26","","","","","","","","","","","","","","","",""
"","ISI","","html-keyboard-response","161","190794","0.0-1.0-237.0","0","0","28482","","229","","","75","26","k","","","","","","","","","","","","","","",""
"","S2","","html-keyboard-response","162","190866","0.0-1.0-238.0","0","0","28482","","66","","","68","26","","d","1","26","training","adjacent","DC","4","3","O.jpg","M.jpg","1","0","0","",""
"","feedback","","html-keyboard-response","163","191875","0.0-1.0-240.0-0.0","0","0","28482","","null","","","null","26","","","","","","","","","","","","","","","",""
"","time_out","","html-keyboard-response","164","193880","0.0-1.0-242.0-0.0","0","0","28482","","null","","","null","26","","","","","","","","","","","","","","","",""
"","ITI","","html-keyboard-response","165","194884","0.0-1.0-243.0","0","0","28482","","128","","","68","26","","","","","","","","","","","","","","","d",""
"","S1","","html-keyboard-response","166","195139","0.0-1.0-245.0","0","0","28482","","null","","","null","27","","","","","","","","","","","","","","","",""
"","ISI","","html-keyboard-response","167","196147","0.0-1.0-246.0","0","0","28482","","149","","","75","27","k","","","","","","","","","","","","","","",""
"","S2","","html-keyboard-response","168","196194","0.0-1.0-247.0","0","0","28482","","38","","","68","27","","d","1","27","training","adjacent","BA","2","1","P.jpg","L.jpg","1","0","0","",""
"","feedback","","html-keyboard-response","169","197197","0.0-1.0-249.0-0.0","0","0","28482","","null","","","null","27","","","","","","","","","","","","","","","",""
"","time_out","","html-keyboard-response","170","199200","0.0-1.0-251.0-0.0","0","0","28482","","null","","","null","27","","","","","","","","","","","","","","","",""
"","ITI","","html-keyboard-response","171","200219","0.0-1.0-252.0","0","0","28482","","224","","","68","27","","","","","","","","","","","","","","","d",""
"","S1","","html-keyboard-response","172","200473","0.0-1.0-254.0","0","0","28482","","null","","","null","28","","","","","","","","","","","","","","","",""
"","ISI","","html-keyboard-response","173","201478","0.0-1.0-255.0","0","0","28482","","56","","","68","28","d","","","","","","","","","","","","","","",""
"","S2","","html-keyboard-response","174","201668","0.0-1.0-256.0","0","0","28482","","182","","","68","28","","d","1","28","training","adjacent","CD","3","4","M.jpg","O.jpg","1","1","1","",""
"","feedback","","html-keyboard-response","175","202686","0.0-1.0-258.0-0.0","0","0","28482","","null","","","null","28","","","","","","","","","","","","","","","",""
"","ITI","","html-keyboard-response","176","203690","0.0-1.0-261.0","0","0","28482","","233","","","68","28","","","","","","","","","","","","","","","d",""
"","S1","","html-keyboard-response","177","203945","0.0-1.0-263.0","0","0","28482","","null","","","null","29","","","","","","","","","","","","","","","",""
"","ISI","","html-keyboard-response","178","204951","0.0-1.0-264.0","0","0","28482","","63","","","68","29","d","","","","","","","","","","","","","","",""
"","S2","","html-keyboard-response","179","205098","0.0-1.0-265.0","0","0","28482","","143","","","68","29","","d","1","29","training","adjacent","ED","5","4","R.jpg","O.jpg","1","0","0","",""
"","feedback","","html-keyboard-response","180","206112","0.0-1.0-267.0-0.0","0","0","28482","","null","","","null","29","","","","","","","","","","","","","","","",""
"","time_out","","html-keyboard-response","181","208116","0.0-1.0-269.0-0.0","0","0","28482","","null","","","null","29","","","","","","","","","","","","","","","",""
"","ITI","","html-keyboard-response","182","209119","0.0-1.0-270.0","0","0","28482","","133","","","75","29","","","","","","","","","","","","","","","k",""
"","S1","","html-keyboard-response","183","209374","0.0-1.0-272.0","0","0","28482","","null","","","null","30","","","","","","","","","","","","","","","",""
"","ISI","","html-keyboard-response","184","210378","0.0-1.0-273.0","0","0","28482","","26","","","75","30","k","","","","","","","","","","","","","","",""
"","S2","","html-keyboard-response","185","210581","0.0-1.0-274.0","0","0","28482","","196","","","75","30","","k","1","30","training","adjacent","FE","6","5","Q.jpg","R.jpg","0","0","1","",""
"","feedback","","html-keyboard-response","186","211608","0.0-1.0-276.0-0.0","0","0","28482","","null","","","null","30","","","","","","","","","","","","","","","",""
"","ITI","","html-keyboard-response","187","212612","0.0-1.0-279.0","0","0","28482","","87","","","75","30","","","","","","","","","","","","","","","k",""
"","S1","","html-keyboard-response","188","212868","0.0-1.0-281.0","0","0","28482","","null","","","null","31","","","","","","","","","","","","","","","",""
"","ISI","","html-keyboard-response","189","213872","0.0-1.0-282.0","0","0","28482","","1","","","75","31","k","","","","","","","","","","","","","","",""
"","S2","","html-keyboard-response","190","214060","0.0-1.0-283.0","0","0","28482","","181","","","75","31","","k","1","31","training","adjacent","DC","4","3","O.jpg","M.jpg","0","0","1","",""
"","feedback","","html-keyboard-response","191","215066","0.0-1.0-285.0-0.0","0","0","28482","","null","","","null","31","","","","","","","","","","","","","","","",""
"","ITI","","html-keyboard-response","192","216070","0.0-1.0-288.0","0","0","28482","","214","","","75","31","","","","","","","","","","","","","","","k",""
"","S1","","html-keyboard-response","193","216325","0.0-1.0-290.0","0","0","28482","","null","","","null","32","","","","","","","","","","","","","","","",""
"","ISI","","html-keyboard-response","194","217330","0.0-1.0-291.0","0","0","28482","","171","","","75","32","k","","","","","","","","","","","","","","",""
"","S2","","html-keyboard-response","195","217572","0.0-1.0-292.0","0","0","28482","","237","","","75","32","","k","1","32","training","adjacent","DE","4","5","O.jpg","R.jpg","0","1","0","",""
"","feedback","","html-keyboard-response","196","218580","0.0-1.0-294.0-0.0","0","0","28482","","null","","","null","32","","","","","","","","","","","","","","","",""
"","time_out","","html-keyboard-response","197","220585","0.0-1.0-296.0-0.0","0","0","28482","","null","","","null","32","","","","","","","","","","","","","","","",""
"","ITI","","html-keyboard-response","198","221591","0.0-1.0-297.0","0","0","28482","","575","","","68","32","","","","","","","","","","","","","","","d",""
"","S1","","html-keyboard-response","199","221847","0.0-1.0-299.0","0","0","28482","","null","","","null","33","","","","","","","","","","","","","","","",""
"","ISI","","html-keyboard-response","200","222850","0.0-1.0-300.0","0","0","28482","","161","","","75","33","k","","","","","","","","","","","","","","",""
"","S2","","html-keyboard-response","201","223105","0.0-1.0-301.0","0","0","28482","","null","","","null","33","","NaN","","","","","","","","","","","","","",""
"","response","","html-keyboard-response","202","223188","0.0-1.0-302.0-0.0","0","0","28482","","78","","","75","33","","","1","33","training","adjacent","AB","1","2","L.jpg","P.jpg","0","1","0","",""
"","feedback","","html-keyboard-response","203","224193","0.0-1.0-303.0-0.0","0","0","28482","","null","","","null","33","","","","","","","","","","","","","","","",""
"","time_out","","html-keyboard-response","204","226200","0.0-1.0-305.0-0.0","0","0","28482","","null","","","null","33","","","","","","","","","","","","","","","",""
"","ITI","","html-keyboard-response","205","227203","0.0-1.0-306.0","0","0","28482","","81","","","68","33","","","","","","","","","","","","","","","d",""
"","S1","","html-keyboard-response","206","227457","0.0-1.0-308.0","0","0","28482","","null","","","null","34","","","","","","","","","","","","","","","",""
"","ISI","","html-keyboard-response","207","228462","0.0-1.0-309.0","0","0","28482","","607","","","68","34","d","","","","","","","","","","","","","","",""
"","S2","","html-keyboard-response","208","228722","0.0-1.0-310.0","0","0","28482","","null","","","null","34","","NaN","","","","","","","","","","","","","",""
"","response","","html-keyboard-response","209","228942","0.0-1.0-311.0-0.0","0","0","28482","","212","","","68","34","","","1","34","training","adjacent","BA","2","1","P.jpg","L.jpg","1","0","0","",""
"","feedback","","html-keyboard-response","210","229952","0.0-1.0-312.0-0.0","0","0","28482","","null","","","null","34","","","","","","","","","","","","","","","",""
"","time_out","","html-keyboard-response","211","231957","0.0-1.0-314.0-0.0","0","0","28482","","null","","","null","34","","","","","","","","","","","","","","","",""
"","ITI","","html-keyboard-response","212","232962","0.0-1.0-315.0","0","0","28482","","539","","","68","34","","","","","","","","","","","","","","","d",""
"","S1","","html-keyboard-response","213","233217","0.0-1.0-317.0","0","0","28482","","null","","","null","35","","","","","","","","","","","","","","","",""
"","ISI","","html-keyboard-response","214","234222","0.0-1.0-318.0","0","0","28482","","55","","","68","35","d","","","","","","","","","","","","","","",""
"","S2","","html-keyboard-response","215","234480","0.0-1.0-319.0","0","0","28482","","null","","","null","35","","NaN","","","","","","","","","","","","","",""
"","response","","html-keyboard-response","216","234524","0.0-1.0-320.0-0.0","0","0","28482","","39","","","68","35","","","1","35","training","adjacent","FE","6","5","Q.jpg","R.jpg","1","0","0","",""
"","feedback","","html-keyboard-response","217","235532","0.0-1.0-321.0-0.0","0","0","28482","","null","","","null","35","","","","","","","","","","","","","","","",""
"","time_out","","html-keyboard-response","218","237537","0.0-1.0-323.0-0.0","0","0","28482","","null","","","null","35","","","","","","","","","","","","","","","",""
"","ITI","","html-keyboard-response","219","238541","0.0-1.0-324.0","0","0","28482","","671","","","68","35","","","","","","","","","","","","","","","d",""
"","S1","","html-keyboard-response","220","238797","0.0-1.0-326.0","0","0","28482","","null","","","null","36","","","","","","","","","","","","","","","",""
"","ISI","","html-keyboard-response","221","239803","0.0-1.0-327.0","0","0","28482","","123","","","68","36","d","","","","","","","","","","","","","","",""
"","S2","","html-keyboard-response","222","239835","0.0-1.0-328.0","0","0","28482","","27","","","68","36","","d","1","36","training","adjacent","DC","4","3","O.jpg","M.jpg","1","0","0","",""
"","feedback","","html-keyboard-response","223","240841","0.0-1.0-330.0-0.0","0","0","28482","","null","","","null","36","","","","","","","","","","","","","","","",""
"","time_out","","html-keyboard-response","224","242845","0.0-1.0-332.0-0.0","0","0","28482","","null","","","null","36","","","","","","","","","","","","","","","",""
"","ITI","","html-keyboard-response","225","243858","0.0-1.0-333.0","0","0","28482","","498","","","68","36","","","","","","","","","","","","","","","d",""
"","S1","","html-keyboard-response","226","244113","0.0-1.0-335.0","0","0","28482","","null","","","null","37","","","","","","","","","","","","","","","",""
"","ISI","","html-keyboard-response","227","245116","0.0-1.0-336.0","0","0","28482","","457","","","68","37","d","","","","","","","","","","","","","","",""
"","S2","","html-keyboard-response","228","245293","0.0-1.0-337.0","0","0","28482","","173","","","68","37","","d","1","37","training","adjacent","CB","3","2","M.jpg","P.jpg","1","0","0","",""
"","feedback","","html-keyboard-response","229","246299","0.0-1.0-339.0-0.0","0","0","28482","","null","","","null","37","","","","","","","","","","","","","","","",""
"","time_out","","html-keyboard-response","230","248303","0.0-1.0-341.0-0.0","0","0","28482","","null","","","null","37","","","","","","","","","","","","","","","",""
"","ITI","","html-keyboard-response","231","249307","0.0-1.0-342.0","0","0","28482","","50","","","68","37","","","","","","","","","","","","","","","d",""
"","S1","","html-keyboard-response","232","249571","0.0-1.0-344.0","0","0","28482","","null","","","null","38","","","","","","","","","","","","","","","",""
"","ISI","","html-keyboard-response","233","250576","0.0-1.0-345.0","0","0","28482","","167","","","68","38","d","","","","","","","","","","","","","","",""
"","S2","","html-keyboard-response","234","250831","0.0-1.0-346.0","0","0","28482","","null","","","null","38","","NaN","","","","","","","","","","","","","",""
"","response","","html-keyboard-response","235","251261","0.0-1.0-347.0-0.0","0","0","28482","","425","","","68","38","","","1","38","training","adjacent","EF","5","6","R.jpg","Q.jpg","1","1","1","",""
"","feedback","","html-keyboard-response","236","252266","0.0-1.0-348.0-0.0","0","0","28482","","null","","","null","38","","","","","","","","","","","","","","","",""
"","ITI","","html-keyboard-response","237","253279","0.0-1.0-351.0","0","0","28482","","407","","","68","38","","","","","","","","","","","","","","","d",""
"","S1","","html-keyboard-response","238","253532","0.0-1.0-353.0","0","0","28482","","null","","","null","39","","","","","","","","","","","","","","","",""
"","ISI","","html-keyboard-response","239","254535","0.0-1.0-354.0","0","0","28482","","279","","","75","39","k","","","","","","","","","","","","","","",""
"","S2","","html-keyboard-response","240","254789","0.0-1.0-355.0","0","0","28482","","null","","","null","39","","NaN","","","","","","","","","","","","","",""
"","response","","html-keyboard-response","241","254989","0.0-1.0-356.0-0.0","0","0","28482","","195","","","75","39","","","1","39","training","adjacent","ED","5","4","R.jpg","O.jpg","0","0","1","",""
"","feedback","","html-keyboard-response","242","255998","0.0-1.0-357.0-0.0","0","0","28482","","null","","","null","39","","","","","","","","","","","","","","","",""
"","ITI","","html-keyboard-response","243","257003","0.0-1.0-360.0","0","0","28482","","363","","","75","39","","","","","","","","","","","","","","","k",""
"","S1","","html-keyboard-response","244","257257","0.0-1.0-362.0","0","0","28482","","null","","","null","40","","","","","","","","","","","","","","","",""
"","ISI","","html-keyboard-response","245","258260","0.0-1.0-363.0","0","0","28482","","409","","","75","40","k","","","","","","","","","","","","","","",""
"","S2","","html-keyboard-response","246","258331","0.0-1.0-364.0","0","0","28482","","66","","","75","40","","k","1","40","training","adjacent","FG","6","7","Q.jpg","N.jpg","0","1","0","",""
"","feedback","","html-keyboard-response","247","259334","0.0-1.0-366.0-0.0","0","0","28482","","null","","","null","40","","","","","","","","","","","","","","","",""
"","time_out","","html-keyboard-response","248","261338","0.0-1.0-368.0-0.0","0","0","28482","","null","","","null","40","","","","","","","","","","","","","","","",""
"","ITI","","html-keyboard-response","249","262343","0.0-1.0-369.0","0","0","28482","","32","","","75","40","","","","","","","","","","","","","","","k",""
"","S1","","html-keyboard-response","250","262596","0.0-1.0-371.0","0","0","28482","","null","","","null","41","","","","","","","","","","","","","","","",""
"","ISI","","html-keyboard-response","251","263599","0.0-1.0-372.0","0","0","28482","","541","","","75","41","k","","","","","","","","","","","","","","",""
"","S2","","html-keyboard-response","252","263773","0.0-1.0-373.0","0","0","28482","","169","","","75","41","","k","1","41","training","adjacent","FG","6","7","Q.jpg","N.jpg","0","1","0","",""
"","feedback","","html-keyboard-response","253","264778","0.0-1.0-375.0-0.0","0","0","28482","","null","","","null","41","","","","","","","","","","","","","","","",""
"","time_out","","html-keyboard-response","254","266782","0.0-1.0-377.0-0.0","0","0","28482","","null","","","null","41","","","","","","","","","","","","","","","",""
"","ITI","","html-keyboard-response","255","267787","0.0-1.0-378.0","0","0","28482","","204","","","68","41","","","","","","","","","","","","","","","d",""
"","S1","","html-keyboard-response","256","268041","0.0-1.0-380.0","0","0","28482","","null","","","null","42","","","","","","","","","","","","","","","",""
"","ISI","","html-keyboard-response","257","269045","0.0-1.0-381.0","0","0","28482","","480","","","68","42","d","","","","","","","","","","","","","","",""
"","S2","","html-keyboard-response","258","269301","0.0-1.0-382.0","0","0","28482","","null","","","null","42","","NaN","","","","","","","","","","","","","",""
"","response","","html-keyboard-response","259","269365","0.0-1.0-383.0-0.0","0","0","28482","","59","","","68","42","","","1","42","training","adjacent","GF","7","6","N.jpg","Q.jpg","1","0","0","",""
"","feedback","","html-keyboard-response","260","270370","0.0-1.0-384.0-0.0","0","0","28482","","null","","","null","42","","","","","","","","","","","","","","","",""
"","time_out","","html-keyboard-response","261","272374","0.0-1.0-386.0-0.0","0","0","28482","","null","","","null","42","","","","","","","","","","","","","","","",""
"","ITI","","html-keyboard-response","262","273380","0.0-1.0-387.0","0","0","28482","","154","","","75","42","","","","","","","","","","","","","","","k",""
"","S1","","html-keyboard-response","263","273635","0.0-1.0-389.0","0","0","28482","","null","","","null","43","","","","","","","","","","","","","","","",""
"","ISI","","html-keyboard-response","264","274639","0.0-1.0-390.0","0","0","28482","","54","","","75","43","k","","","","","","","","","","","","","","",""
"","S2","","html-keyboard-response","265","274894","0.0-1.0-391.0","0","0","28482","","null","","","null","43","","NaN","","","","","","","","","","","","","",""
"","response","","html-keyboard-response","266","274965","0.0-1.0-392.0-0.0","0","0","28482","","65","","","75","43","","","1","43","training","adjacent","BA","2","1","P.jpg","L.jpg","0","0","1","",""
"","feedback","","html-keyboard-response","267","275971","0.0-1.0-393.0-0.0","0","0","28482","","null","","","null","43","","","","","","","","","","","","","","","",""
"","ITI","","html-keyboard-response","268","276975","0.0-1.0-396.0","0","0","28482","","542","","","75","43","","","","","","","","","","","","","","","k",""
"","S1","","html-keyboard-response","269","277239","0.0-1.0-398.0","0","0","28482","","null","","","null","44","","","","","","","","","","","","","","","",""
"","ISI","","html-keyboard-response","270","278243","0.0-1.0-399.0","0","0","28482","","258","","","75","44","k","","","","","","","","","","","","","","",""
"","S2","","html-keyboard-response","271","278503","0.0-1.0-400.0","0","0","28482","","null","","","null","44","","NaN","","","","","","","","","","","","","",""
"","response","","html-keyboard-response","272","279413","0.0-1.0-401.0-0.0","0","0","28482","","902","","","75","44","","","1","44","training","adjacent","CB","3","2","M.jpg","P.jpg","0","0","1","",""
"","feedback","","html-keyboard-response","273","280417","0.0-1.0-402.0-0.0","0","0","28482","","null","","","null","44","","","","","","","","","","","","","","","",""
"","ITI","","html-keyboard-response","274","281421","0.0-1.0-405.0","0","0","28482","","41","","","75","44","","","","","","","","","","","","","","","k",""
"","S1","","html-keyboard-response","275","281676","0.0-1.0-407.0","0","0","28482","","null","","","null","45","","","","","","","","","","","","","","","",""
"","ISI","","html-keyboard-response","276","282683","0.0-1.0-408.0","0","0","28482","","669","","","75","45","k","","","","","","","","","","","","","","",""
"","S2","","html-keyboard-response","277","282940","0.0-1.0-409.0","0","0","28482","","null","","","null","45","","NaN","","","","","","","","","","","","","",""
"","response","","html-keyboard-response","278","283381","0.0-1.0-410.0-0.0","0","0","28482","","436","","","75","45","","","1","45","training","adjacent","CD","3","4","M.jpg","O.jpg","0","1","0","",""
"","feedback","","html-keyboard-response","279","284386","0.0-1.0-411.0-0.0","0","0","28482","","null","","","null","45","","","","","","","","","","","","","","","",""
"","time_out","","html-keyboard-response","280","286390","0.0-1.0-413.0-0.0","0","0","28482","","null","","","null","45","","","","","","","","","","","","","","","",""
"","ITI","","html-keyboard-response","281","287395","0.0-1.0-414.0","0","0","28482","","363","","","75","45","","","","","","","","","","","","","","","k",""
"","S1","","html-keyboard-response","282","287650","0.0-1.0-416.0","0","0","28482","","null","","","null","46","","","","","","","","","","","","","","","",""
"","ISI","","html-keyboard-response","283","288653","0.0-1.0-417.0","0","0","28482","","199","","","75","46","k","","","","","","","","","","","","","","",""
"","S2","","html-keyboard-response","284","288660","0.0-1.0-418.0","0","0","28482","","3","","","75","46","","k","1","46","training","adjacent","DE","4","5","O.jpg","R.jpg","0","1","0","",""
"","feedback","","html-keyboard-response","285","289669","0.0-1.0-420.0-0.0","0","0","28482","","null","","","null","46","","","","","","","","","","","","","","","",""
"","time_out","","html-keyboard-response","286","291674","0.0-1.0-422.0-0.0","0","0","28482","","null","","","null","46","","","","","","","","","","","","","","","",""
"","ITI","","html-keyboard-response","287","292677","0.0-1.0-423.0","0","0","28482","","199","","","75","46","","","","","","","","","","","","","","","k",""
"","S1","","html-keyboard-response","288","292931","0.0-1.0-425.0","0","0","28482","","null","","","null","47","","","","","","","","","","","","","","","",""
"","ISI","","html-keyboard-response","289","293936","0.0-1.0-426.0","0","0","28482","","332","","","75","47","k","","","","","","","","","","","","","","",""
"","S2","","html-keyboard-response","290","294191","0.0-1.0-427.0","0","0","28482","","null","","","null","47","","NaN","","","","","","","","","","","","","",""
"","response","","html-keyboard-response","291","294309","0.0-1.0-428.0-0.0","0","0","28482","","113","","","75","47","","","1","47","training","adjacent","CD","3","4","M.jpg","O.jpg","0","1","0","",""
"","feedback","","html-keyboard-response","292","295316","0.0-1.0-429.0-0.0","0","0","28482","","null","","","null","47","","","","","","","","","","","","","","","",""
"","time_out","","html-keyboard-response","293","297320","0.0-1.0-431.0-0.0","0","0","28482","","null","","","null","47","","","","","","","","","","","","","","","",""
"","ITI","","html-keyboard-response","294","298324","0.0-1.0-432.0","0","0","28482","","8","","","68","47","","","","","","","","","","","","","","","d",""
"","block_over","","html-keyboard-response","295","559429","0.0-1.0-433.0-0.0","0","0","28482","","261099","","","32","47","","","","","","","","","","","","","","","",""
"","S1","","html-keyboard-response","296","559684","0.0-1.0-434.0","0","0","28482","","null","","","null","48","","","","","","","","","","","","","","","",""
"","ISI","","html-keyboard-response","297","560688","0.0-1.0-435.0","0","0","28482","","652","","","68","48","d","","","","","","","","","","","","","","",""
"","S2","","html-keyboard-response","298","560945","0.0-1.0-436.0","0","0","28482","","null","","","null","48","","NaN","","","","","","","","","","","","","",""
"","response","","html-keyboard-response","299","561004","0.0-1.0-437.0-0.0","0","0","28482","","52","","","68","48","","","2","48","training","adjacent","BA","2","1","P.jpg","L.jpg","1","0","0","",""
"","feedback","","html-keyboard-response","300","562009","0.0-1.0-438.0-0.0","0","0","28482","","null","","","null","48","","","","","","","","","","","","","","","",""
"","time_out","","html-keyboard-response","301","564014","0.0-1.0-440.0-0.0","0","0","28482","","null","","","null","48","","","","","","","","","","","","","","","",""
"","ITI","","html-keyboard-response","302","565019","0.0-1.0-441.0","0","0","28482","","171","","","68","48","","","","","","","","","","","","","","","d",""
"","S1","","html-keyboard-response","303","565272","0.0-1.0-443.0","0","0","28482","","null","","","null","49","","","","","","","","","","","","","","","",""
"","ISI","","html-keyboard-response","304","566277","0.0-1.0-444.0","0","0","28482","","160","","","68","49","d","","","","","","","","","","","","","","",""
"","S2","","html-keyboard-response","305","566332","0.0-1.0-445.0","0","0","28482","","49","","","68","49","","d","2","49","training","adjacent","AB","1","2","L.jpg","P.jpg","1","1","1","",""
"","feedback","","html-keyboard-response","306","567338","0.0-1.0-447.0-0.0","0","0","28482","","null","","","null","49","","","","","","","","","","","","","","","",""
"","ITI","","html-keyboard-response","307","568342","0.0-1.0-450.0","0","0","28482","","null","","","null","49","","","","","","","","","","","","","","","NaN",""
"","S1","","html-keyboard-response","308","568597","0.0-1.0-452.0","0","0","28482","","null","","","null","50","","","","","","","","","","","","","","","",""
"","ISI","","html-keyboard-response","309","569601","0.0-1.0-453.0","0","0","28482","","null","","","null","50","NaN","","","","","","","","","","","","","","",""
"","S2","","html-keyboard-response","310","569857","0.0-1.0-454.0","0","0","28482","","null","","","null","50","","NaN","","","","","","","","","","","","","",""
"","response","","html-keyboard-response","311","570509","0.0-1.0-455.0-0.0","0","0","28482","","646","","","68","50","","","2","50","training","adjacent","GF","7","6","N.jpg","Q.jpg","1","0","0","",""
"","feedback","","html-keyboard-response","312","571516","0.0-1.0-456.0-0.0","0","0","28482","","null","","","null","50","","","","","","","","","","","","","","","",""
"","time_out","","html-keyboard-response","313","573519","0.0-1.0-458.0-0.0","0","0","28482","","null","","","null","50","","","","","","","","","","","","","","","",""
"","ITI","","html-keyboard-response","314","574523","0.0-1.0-459.0","0","0","28482","","0","","","68","50","","","","","","","","","","","","","","","d",""
"","S1","","html-keyboard-response","315","574779","0.0-1.0-461.0","0","0","28482","","null","","","null","51","","","","","","","","","","","","","","","",""
"","ISI","","html-keyboard-response","316","575784","0.0-1.0-462.0","0","0","28482","","221","","","68","51","d","","","","","","","","","","","","","","",""
"","S2","","html-keyboard-response","317","575996","0.0-1.0-463.0","0","0","28482","","204","","","68","51","","d","2","51","training","adjacent","ED","5","4","R.jpg","O.jpg","1","0","0","",""
"","feedback","","html-keyboard-response","318","577002","0.0-1.0-465.0-0.0","0","0","28482","","null","","","null","51","","","","","","","","","","","","","","","",""
"","time_out","","html-keyboard-response","319","579006","0.0-1.0-467.0-0.0","0","0","28482","","null","","","null","51","","","","","","","","","","","","","","","",""
"","ITI","","html-keyboard-response","320","580010","0.0-1.0-468.0","0","0","28482","","402","","","68","51","","","","","","","","","","","","","","","d",""
"","S1","","html-keyboard-response","321","580266","0.0-1.0-470.0","0","0","28482","","null","","","null","52","","","","","","","","","","","","","","","",""
"","ISI","","html-keyboard-response","322","581270","0.0-1.0-471.0","0","0","28482","","590","","","68","52","d","","","","","","","","","","","","","","",""
"","S2","","html-keyboard-response","323","581528","0.0-1.0-472.0","0","0","28482","","null","","","null","52","","NaN","","","","","","","","","","","","","",""
"","response","","html-keyboard-response","324","581706","0.0-1.0-473.0-0.0","0","0","28482","","172","","","68","52","","","2","52","training","adjacent","FG","6","7","Q.jpg","N.jpg","1","1","1","",""
"","feedback","","html-keyboard-response","325","582710","0.0-1.0-474.0-0.0","0","0","28482","","null","","","null","52","","","","","","","","","","","","","","","",""
"","ITI","","html-keyboard-response","326","583715","0.0-1.0-477.0","0","0","28482","","721","","","68","52","","","","","","","","","","","","","","","d",""
"","S1","","html-keyboard-response","327","583971","0.0-1.0-479.0","0","0","28482","","null","","","null","53","","","","","","","","","","","","","","","",""
"","ISI","","html-keyboard-response","328","584974","0.0-1.0-480.0","0","0","28482","","246","","","68","53","d","","","","","","","","","","","","","","",""
"","S2","","html-keyboard-response","329","585011","0.0-1.0-481.0","0","0","28482","","32","","","68","53","","d","2","53","training","adjacent","GF","7","6","N.jpg","Q.jpg","1","0","0","",""
"","feedback","","html-keyboard-response","330","586017","0.0-1.0-483.0-0.0","0","0","28482","","null","","","null","53","","","","","","","","","","","","","","","",""
"","time_out","","html-keyboard-response","331","588022","0.0-1.0-485.0-0.0","0","0","28482","","null","","","null","53","","","","","","","","","","","","","","","",""
"","ITI","","html-keyboard-response","332","589027","0.0-1.0-486.0","0","0","28482","","145","","","68","53","","","","","","","","","","","","","","","d",""
"","S1","","html-keyboard-response","333","589282","0.0-1.0-488.0","0","0","28482","","null","","","null","54","","","","","","","","","","","","","","","",""
"","ISI","","html-keyboard-response","334","590286","0.0-1.0-489.0","0","0","28482","","214","","","68","54","d","","","","","","","","","","","","","","",""
"","S2","","html-keyboard-response","335","590543","0.0-1.0-490.0","0","0","28482","","null","","","null","54","","NaN","","","","","","","","","","","","","",""
"","response","","html-keyboard-response","336","591236","0.0-1.0-491.0-0.0","0","0","28482","","689","","","68","54","","","2","54","training","adjacent","EF","5","6","R.jpg","Q.jpg","1","1","1","",""
"","feedback","","html-keyboard-response","337","592242","0.0-1.0-492.0-0.0","0","0","28482","","null","","","null","54","","","","","","","","","","","","","","","",""
"","ITI","","html-keyboard-response","338","593247","0.0-1.0-495.0","0","0","28482","","269","","","68","54","","","","","","","","","","","","","","","d",""
"","S1","","html-keyboard-response","339","593501","0.0-1.0-497.0","0","0","28482","","null","","","null","55","","","","","","","","","","","","","","","",""
"","ISI","","html-keyboard-response","340","594505","0.0-1.0-498.0","0","0","28482","","762","","","68","55","d","","","","","","","","","","","","","","",""
"","S2","","html-keyboard-response","341","594763","0.0-1.0-499.0","0","0","28482","","null","","","null","55","","NaN","","","","","","","","","","","","","",""
"","response","","html-keyboard-response","342","595171","0.0-1.0-500.0-0.0","0","0","28482","","404","","","68","55","","","2","55","training","adjacent","CD","3","4","M.jpg","O.jpg","1","1","1","",""
"","feedback","","html-keyboard-response","343","596179","0.0-1.0-501.0-0.0","0","0","28482","","null","","","null","55","","","","","","","","","","","","","","","",""
"","ITI","","html-keyboard-response","344","597183","0.0-1.0-504.0","0","0","28482","","909","","","68","55","","","","","","","","","","","","","","","d",""
"","S1","","html-keyboard-response","345","597438","0.0-1.0-506.0","0","0","28482","","null","","","null","56","","","","","","","","","","","","","","","",""
"","ISI","","html-keyboard-response","346","598445","0.0-1.0-507.0","0","0","28482","","307","","","68","56","d","","","","","","","","","","","","","","",""
"","S2","","html-keyboard-response","347","598700","0.0-1.0-508.0","0","0","28482","","247","","","68","56","","d","2","56","training","adjacent","DE","4","5","O.jpg","R.jpg","1","1","1","",""
"","feedback","","html-keyboard-response","348","599706","0.0-1.0-510.0-0.0","0","0","28482","","null","","","null","56","","","","","","","","","","","","","","","",""
"","ITI","","html-keyboard-response","349","600711","0.0-1.0-513.0","0","0","28482","","46","","","68","56","","","","","","","","","","","","","","","d",""
"","S1","","html-keyboard-response","350","600967","0.0-1.0-515.0","0","0","28482","","null","","","null","57","","","","","","","","","","","","","","","",""
"","ISI","","html-keyboard-response","351","601971","0.0-1.0-516.0","0","0","28482","","298","","","68","57","d","","","","","","","","","","","","","","",""
"","S2","","html-keyboard-response","352","602232","0.0-1.0-517.0","0","0","28482","","null","","","null","57","","NaN","","","","","","","","","","","","","",""
"","response","","html-keyboard-response","353","603308","0.0-1.0-518.0-0.0","0","0","28482","","1071","","","68","57","","","2","57","training","adjacent","DE","4","5","O.jpg","R.jpg","1","1","1","",""
"","feedback","","html-keyboard-response","354","604317","0.0-1.0-519.0-0.0","0","0","28482","","null","","","null","57","","","","","","","","","","","","","","","",""
"","ITI","","html-keyboard-response","355","605327","0.0-1.0-522.0","0","0","28482","","968","","","68","57","","","","","","","","","","","","","","","d",""
"","S1","","html-keyboard-response","356","605582","0.0-1.0-524.0","0","0","28482","","null","","","null","58","","","","","","","","","","","","","","","",""
"","ISI","","html-keyboard-response","357","606589","0.0-1.0-525.0","0","0","28482","","322","","","68","58","d","","","","","","","","","","","","","","",""
"","S2","","html-keyboard-response","358","606849","0.0-1.0-526.0","0","0","28482","","null","","","null","58","","NaN","","","","","","","","","","","","","",""
"","response","","html-keyboard-response","359","608606","0.0-1.0-527.0-0.0","0","0","28482","","null","","","null","58","","","2","58","training","adjacent","CD","3","4","M.jpg","O.jpg","NaN","1","0","",""
"","too_slow_prompt","","html-keyboard-response","360","609609","0.0-1.0-529.0-0.0","1","0","28482","","null","","","null","","","","","","","","","","","","","","","","",""
"","time_out","","html-keyboard-response","361","611612","0.0-1.0-530.0-0.0","0","0","28482","","null","","","null","58","","","","","","","","","","","","","","","",""
"","ITI","","html-keyboard-response","362","612615","0.0-1.0-531.0","0","0","28482","","null","","","null","58","","","","","","","","","","","","","","","NaN",""
"","S1","","html-keyboard-response","363","612868","0.0-1.0-533.0","0","0","28482","","null","","","null","59","","","","","","","","","","","","","","","",""
"","ISI","","html-keyboard-response","364","613872","0.0-1.0-534.0","0","0","28482","","829","","","68","59","d","","","","","","","","","","","","","","",""
"","S2","","html-keyboard-response","365","614127","0.0-1.0-535.0","0","0","28482","","null","","","null","59","","NaN","","","","","","","","","","","","","",""
"","response","","html-keyboard-response","366","614396","0.0-1.0-536.0-0.0","0","0","28482","","265","","","68","59","","","2","59","training","adjacent","BC","2","3","P.jpg","M.jpg","1","1","1","",""
"","feedback","","html-keyboard-response","367","615405","0.0-1.0-537.0-0.0","0","0","28482","","null","","","null","59","","","","","","","","","","","","","","","",""
"","ITI","","html-keyboard-response","368","616419","0.0-1.0-540.0","0","0","28482","","680","","","68","59","","","","","","","","","","","","","","","d",""
"","S1","","html-keyboard-response","369","616674","0.0-1.0-542.0","0","0","28482","","null","","","null","60","","","","","","","","","","","","","","","",""
"","ISI","","html-keyboard-response","370","617678","0.0-1.0-543.0","0","0","28482","","365","","","68","60","d","","","","","","","","","","","","","","",""
"","S2","","html-keyboard-response","371","617836","0.0-1.0-544.0","0","0","28482","","152","","","68","60","","d","2","60","training","adjacent","BC","2","3","P.jpg","M.jpg","1","1","1","",""
"","feedback","","html-keyboard-response","372","618841","0.0-1.0-546.0-0.0","0","0","28482","","null","","","null","60","","","","","","","","","","","","","","","",""
"","ITI","","html-keyboard-response","373","619846","0.0-1.0-549.0","0","0","28482","","320","","","68","60","","","","","","","","","","","","","","","d",""
"","S1","","html-keyboard-response","374","620103","0.0-1.0-551.0","0","0","28482","","null","","","null","61","","","","","","","","","","","","","","","",""
"","ISI","","html-keyboard-response","375","621106","0.0-1.0-552.0","0","0","28482","","null","","","null","61","NaN","","","","","","","","","","","","","","",""
"","S2","","html-keyboard-response","376","621360","0.0-1.0-553.0","0","0","28482","","null","","","null","61","","NaN","","","","","","","","","","","","","",""
"","response","","html-keyboard-response","377","621788","0.0-1.0-554.0-0.0","0","0","28482","","425","","","68","61","","","2","61","training","adjacent","CD","3","4","M.jpg","O.jpg","1","1","1","",""
"","feedback","","html-keyboard-response","378","622794","0.0-1.0-555.0-0.0","0","0","28482","","null","","","null","61","","","","","","","","","","","","","","","",""
"","ITI","","html-keyboard-response","379","623800","0.0-1.0-558.0","0","0","28482","","334","","","68","61","","","","","","","","","","","","","","","d",""
"","S1","","html-keyboard-response","380","624055","0.0-1.0-560.0","0","0","28482","","null","","","null","62","","","","","","","","","","","","","","","",""
"","ISI","","html-keyboard-response","381","625060","0.0-1.0-561.0","0","0","28482","","185","","","68","62","d","","","","","","","","","","","","","","",""
"","S2","","html-keyboard-response","382","625317","0.0-1.0-562.0","0","0","28482","","null","","","null","62","","NaN","","","","","","","","","","","","","",""
"","response","","html-keyboard-response","383","625563","0.0-1.0-563.0-0.0","0","0","28482","","242","","","68","62","","","2","62","training","adjacent","DE","4","5","O.jpg","R.jpg","1","1","1","",""
"","feedback","","html-keyboard-response","384","626571","0.0-1.0-564.0-0.0","0","0","28482","","null","","","null","62","","","","","","","","","","","","","","","",""
"","ITI","","html-keyboard-response","385","627575","0.0-1.0-567.0","0","0","28482","","517","","","68","62","","","","","","","","","","","","","","","d",""
"","S1","","html-keyboard-response","386","627830","0.0-1.0-569.0","0","0","28482","","null","","","null","63","","","","","","","","","","","","","","","",""
"","ISI","","html-keyboard-response","387","628835","0.0-1.0-570.0","0","0","28482","","361","","","68","63","d","","","","","","","","","","","","","","",""
"","S2","","html-keyboard-response","388","628844","0.0-1.0-571.0","0","0","28482","","4","","","68","63","","d","2","63","training","adjacent","GF","7","6","N.jpg","Q.jpg","1","0","0","",""
"","feedback","","html-keyboard-response","389","629851","0.0-1.0-573.0-0.0","0","0","28482","","null","","","null","63","","","","","","","","","","","","","","","",""
"","time_out","","html-keyboard-response","390","631856","0.0-1.0-575.0-0.0","0","0","28482","","null","","","null","63","","","","","","","","","","","","","","","",""
"","ITI","","html-keyboard-response","391","632862","0.0-1.0-576.0","0","0","28482","","455","","","68","63","","","","","","","","","","","","","","","d",""
"","S1","","html-keyboard-response","392","633129","0.0-1.0-578.0","0","0","28482","","null","","","null","64","","","","","","","","","","","","","","","",""
"","ISI","","html-keyboard-response","393","634134","0.0-1.0-579.0","0","0","28482","","565","","","68","64","d","","","","","","","","","","","","","","",""
"","S2","","html-keyboard-response","394","634392","0.0-1.0-580.0","0","0","28482","","null","","","null","64","","NaN","","","","","","","","","","","","","",""
"","response","","html-keyboard-response","395","634505","0.0-1.0-581.0-0.0","0","0","28482","","111","","","68","64","","","2","64","training","adjacent","ED","5","4","R.jpg","O.jpg","1","0","0","",""
"","feedback","","html-keyboard-response","396","635510","0.0-1.0-582.0-0.0","0","0","28482","","null","","","null","64","","","","","","","","","","","","","","","",""
"","time_out","","html-keyboard-response","397","637514","0.0-1.0-584.0-0.0","0","0","28482","","null","","","null","64","","","","","","","","","","","","","","","",""
"","ITI","","html-keyboard-response","398","638518","0.0-1.0-585.0","0","0","28482","","390","","","68","64","","","","","","","","","","","","","","","d",""
"","S1","","html-keyboard-response","399","638773","0.0-1.0-587.0","0","0","28482","","null","","","null","65","","","","","","","","","","","","","","","",""
"","ISI","","html-keyboard-response","400","639780","0.0-1.0-588.0","0","0","28482","","147","","","68","65","d","","","","","","","","","","","","","","",""
"","S2","","html-keyboard-response","401","640034","0.0-1.0-589.0","0","0","28482","","null","","","null","65","","NaN","","","","","","","","","","","","","",""
"","response","","html-keyboard-response","402","640074","0.0-1.0-590.0-0.0","0","0","28482","","36","","","68","65","","","2","65","training","adjacent","EF","5","6","R.jpg","Q.jpg","1","1","1","",""
"","feedback","","html-keyboard-response","403","641080","0.0-1.0-591.0-0.0","0","0","28482","","null","","","null","65","","","","","","","","","","","","","","","",""
"","ITI","","html-keyboard-response","404","642089","0.0-1.0-594.0","0","0","28482","","654","","","68","65","","","","","","","","","","","","","","","d",""
"","S1","","html-keyboard-response","405","642344","0.0-1.0-596.0","0","0","28482","","null","","","null","66","","","","","","","","","","","","","","","",""
"","ISI","","html-keyboard-response","406","643350","0.0-1.0-597.0","0","0","28482","","334","","","68","66","d","","","","","","","","","","","","","","",""
"","S2","","html-keyboard-response","407","643607","0.0-1.0-598.0","0","0","28482","","null","","","null","66","","NaN","","","","","","","","","","","","","",""
"","response","","html-keyboard-response","408","643749","0.0-1.0-599.0-0.0","0","0","28482","","138","","","68","66","","","2","66","training","adjacent","FE","6","5","Q.jpg","R.jpg","1","0","0","",""
"","feedback","","html-keyboard-response","409","644757","0.0-1.0-600.0-0.0","0","0","28482","","null","","","null","66","","","","","","","","","","","","","","","",""
"","time_out","","html-keyboard-response","410","646763","0.0-1.0-602.0-0.0","0","0","28482","","null","","","null","66","","","","","","","","","","","","","","","",""
"","ITI","","html-keyboard-response","411","647769","0.0-1.0-603.0","0","0","28482","","211","","","68","66","","","","","","","","","","","","","","","d",""
"","S1","","html-keyboard-response","412","648023","0.0-1.0-605.0","0","0","28482","","null","","","null","67","","","","","","","","","","","","","","","",""
"","ISI","","html-keyboard-response","413","649027","0.0-1.0-606.0","0","0","28482","","161","","","68","67","d","","","","","","","","","","","","","","",""
"","S2","","html-keyboard-response","414","649284","0.0-1.0-607.0","0","0","28482","","null","","","null","67","","NaN","","","","","","","","","","","","","",""
"","response","","html-keyboard-response","415","649539","0.0-1.0-608.0-0.0","0","0","28482","","251","","","68","67","","","2","67","training","adjacent","FG","6","7","Q.jpg","N.jpg","1","1","1","",""
"","feedback","","html-keyboard-response","416","650544","0.0-1.0-609.0-0.0","0","0","28482","","null","","","null","67","","","","","","","","","","","","","","","",""
"","ITI","","html-keyboard-response","417","651548","0.0-1.0-612.0","0","0","28482","","128","","","68","67","","","","","","","","","","","","","","","d",""
"","S1","","html-keyboard-response","418","651803","0.0-1.0-614.0","0","0","28482","","null","","","null","68","","","","","","","","","","","","","","","",""
"","ISI","","html-keyboard-response","419","652807","0.0-1.0-615.0","0","0","28482","","6","","","68","68","d","","","","","","","","","","","","","","",""
"","S2","","html-keyboard-response","420","652876","0.0-1.0-616.0","0","0","28482","","64","","","68","68","","d","2","68","training","adjacent","CB","3","2","M.jpg","P.jpg","1","0","0","",""
"","feedback","","html-keyboard-response","421","653884","0.0-1.0-618.0-0.0","0","0","28482","","null","","","null","68","","","","","","","","","","","","","","","",""
"","time_out","","html-keyboard-response","422","655891","0.0-1.0-620.0-0.0","0","0","28482","","null","","","null","68","","","","","","","","","","","","","","","",""
"","ITI","","html-keyboard-response","423","656895","0.0-1.0-621.0","0","0","28482","","20","","","68","68","","","","","","","","","","","","","","","d",""
"","S1","","html-keyboard-response","424","657151","0.0-1.0-623.0","0","0","28482","","null","","","null","69","","","","","","","","","","","","","","","",""
"","ISI","","html-keyboard-response","425","658155","0.0-1.0-624.0","0","0","28482","","250","","","68","69","d","","","","","","","","","","","","","","",""
"","S2","","html-keyboard-response","426","658388","0.0-1.0-625.0","0","0","28482","","226","","","68","69","","d","2","69","training","adjacent","CD","3","4","M.jpg","O.jpg","1","1","1","",""
"","feedback","","html-keyboard-response","427","659393","0.0-1.0-627.0-0.0","0","0","28482","","null","","","null","69","","","","","","","","","","","","","","","",""
"","ITI","","html-keyboard-response","428","660397","0.0-1.0-630.0","0","0","28482","","471","","","68","69","","","","","","","","","","","","","","","d",""
"","S1","","html-keyboard-response","429","660651","0.0-1.0-632.0","0","0","28482","","null","","","null","70","","","","","","","","","","","","","","","",""
"","ISI","","html-keyboard-response","430","661657","0.0-1.0-633.0","0","0","28482","","189","","","68","70","d","","","","","","","","","","","","","","",""
"","S2","","html-keyboard-response","431","661771","0.0-1.0-634.0","0","0","28482","","108","","","68","70","","d","2","70","training","adjacent","DC","4","3","O.jpg","M.jpg","1","0","0","",""
"","feedback","","html-keyboard-response","432","662778","0.0-1.0-636.0-0.0","0","0","28482","","null","","","null","70","","","","","","","","","","","","","","","",""
"","time_out","","html-keyboard-response","433","664783","0.0-1.0-638.0-0.0","0","0","28482","","null","","","null","70","","","","","","","","","","","","","","","",""
"","ITI","","html-keyboard-response","434","665788","0.0-1.0-639.0","0","0","28482","","377","","","68","70","","","","","","","","","","","","","","","d",""
"","S1","","html-keyboard-response","435","666044","0.0-1.0-641.0","0","0","28482","","null","","","null","71","","","","","","","","","","","","","","","",""
"","ISI","","html-keyboard-response","436","667047","0.0-1.0-642.0","0","0","28482","","396","","","68","71","d","","","","","","","","","","","","","","",""
"","S2","","html-keyboard-response","437","667251","0.0-1.0-643.0","0","0","28482","","200","","","68","71","","d","2","71","training","adjacent","AB","1","2","L.jpg","P.jpg","1","1","1","",""
"","feedback","","html-keyboard-response","438","668257","0.0-1.0-645.0-0.0","0","0","28482","","null","","","null","71","","","","","","","","","","","","","","","",""
"","ITI","","html-keyboard-response","439","669262","0.0-1.0-648.0","0","0","28482","","7","","","68","71","","","","","","","","","","","","","","","d",""
"","S1","","html-keyboard-response","440","669518","0.0-1.0-650.0","0","0","28482","","null","","","null","72","","","","","","","","","","","","","","","",""
"","ISI","","html-keyboard-response","441","670523","0.0-1.0-651.0","0","0","28482","","353","","","68","72","d","","","","","","","","","","","","","","",""
"","S2","","html-keyboard-response","442","670684","0.0-1.0-652.0","0","0","28482","","155","","","68","72","","d","2","72","training","adjacent","BC","2","3","P.jpg","M.jpg","1","1","1","",""
"","feedback","","html-keyboard-response","443","671689","0.0-1.0-654.0-0.0","0","0","28482","","null","","","null","72","","","","","","","","","","","","","","","",""
"","ITI","","html-keyboard-response","444","672695","0.0-1.0-657.0","0","0","28482","","317","","","68","72","","","","","","","","","","","","","","","d",""
"","S1","","html-keyboard-response","445","672950","0.0-1.0-659.0","0","0","28482","","null","","","null","73","","","","","","","","","","","","","","","",""
"","ISI","","html-keyboard-response","446","673955","0.0-1.0-660.0","0","0","28482","","58","","","68","73","d","","","","","","","","","","","","","","",""
"","S2","","html-keyboard-response","447","674210","0.0-1.0-661.0","0","0","28482","","null","","","null","73","","NaN","","","","","","","","","","","","","",""
"","response","","html-keyboard-response","448","674348","0.0-1.0-662.0-0.0","0","0","28482","","132","","","68","73","","","2","73","training","adjacent","FE","6","5","Q.jpg","R.jpg","1","0","0","",""
"","feedback","","html-keyboard-response","449","675354","0.0-1.0-663.0-0.0","0","0","28482","","null","","","null","73","","","","","","","","","","","","","","","",""
"","time_out","","html-keyboard-response","450","677359","0.0-1.0-665.0-0.0","0","0","28482","","null","","","null","73","","","","","","","","","","","","","","","",""
"","ITI","","html-keyboard-response","451","678363","0.0-1.0-666.0","0","0","28482","","9","","","68","73","","","","","","","","","","","","","","","d",""
"","S1","","html-keyboard-response","452","678617","0.0-1.0-668.0","0","0","28482","","null","","","null","74","","","","","","","","","","","","","","","",""
"","ISI","","html-keyboard-response","453","679625","0.0-1.0-669.0","0","0","28482","","47","","","68","74","d","","","","","","","","","","","","","","",""
"","S2","","html-keyboard-response","454","679881","0.0-1.0-670.0","0","0","28482","","null","","","null","74","","NaN","","","","","","","","","","","","","",""
"","response","","html-keyboard-response","455","679977","0.0-1.0-671.0-0.0","0","0","28482","","93","","","68","74","","","2","74","training","adjacent","DC","4","3","O.jpg","M.jpg","1","0","0","",""
"","feedback","","html-keyboard-response","456","680979","0.0-1.0-672.0-0.0","0","0","28482","","null","","","null","74","","","","","","","","","","","","","","","",""
"","time_out","","html-keyboard-response","457","682982","0.0-1.0-674.0-0.0","0","0","28482","","null","","","null","74","","","","","","","","","","","","","","","",""
"","ITI","","html-keyboard-response","458","683987","0.0-1.0-675.0","0","0","28482","","66","","","68","74","","","","","","","","","","","","","","","d",""
"","S1","","html-keyboard-response","459","684241","0.0-1.0-677.0","0","0","28482","","null","","","null","75","","","","","","","","","","","","","","","",""
"","ISI","","html-keyboard-response","460","685245","0.0-1.0-678.0","0","0","28482","","95","","","68","75","d","","","","","","","","","","","","","","",""
"","S2","","html-keyboard-response","461","685500","0.0-1.0-679.0","0","0","28482","","null","","","null","75","","NaN","","","","","","","","","","","","","",""
"","response","","html-keyboard-response","462","685555","0.0-1.0-680.0-0.0","0","0","28482","","52","","","68","75","","","2","75","training","adjacent","ED","5","4","R.jpg","O.jpg","1","0","0","",""
"","feedback","","html-keyboard-response","463","686561","0.0-1.0-681.0-0.0","0","0","28482","","null","","","null","75","","","","","","","","","","","","","","","",""
"","time_out","","html-keyboard-response","464","688567","0.0-1.0-683.0-0.0","0","0","28482","","null","","","null","75","","","","","","","","","","","","","","","",""
"","ITI","","html-keyboard-response","465","689571","0.0-1.0-684.0","0","0","28482","","25","","","68","75","","","","","","","","","","","","","","","d",""
"","S1","","html-keyboard-response","466","689836","0.0-1.0-686.0","0","0","28482","","null","","","null","76","","","","","","","","","","","","","","","",""
"","ISI","","html-keyboard-response","467","690840","0.0-1.0-687.0","0","0","28482","","148","","","68","76","d","","","","","","","","","","","","","","",""
"","S2","","html-keyboard-response","468","690884","0.0-1.0-688.0","0","0","28482","","38","","","68","76","","d","2","76","training","adjacent","AB","1","2","L.jpg","P.jpg","1","1","1","",""
"","feedback","","html-keyboard-response","469","691889","0.0-1.0-690.0-0.0","0","0","28482","","null","","","null","76","","","","","","","","","","","","","","","",""
"","ITI","","html-keyboard-response","470","692908","0.0-1.0-693.0","0","0","28482","","358","","","68","76","","","","","","","","","","","","","","","d",""
"","S1","","html-keyboard-response","471","693162","0.0-1.0-695.0","0","0","28482","","null","","","null","77","","","","","","","","","","","","","","","",""
"","ISI","","html-keyboard-response","472","694165","0.0-1.0-696.0","0","0","28482","","126","","","68","77","d","","","","","","","","","","","","","","",""
"","S2","","html-keyboard-response","473","694194","0.0-1.0-697.0","0","0","28482","","25","","","68","77","","d","2","77","training","adjacent","AB","1","2","L.jpg","P.jpg","1","1","1","",""
"","feedback","","html-keyboard-response","474","695198","0.0-1.0-699.0-0.0","0","0","28482","","null","","","null","77","","","","","","","","","","","","","","","",""
"","ITI","","html-keyboard-response","475","696206","0.0-1.0-702.0","0","0","28482","","401","","","68","77","","","","","","","","","","","","","","","d",""
"","S1","","html-keyboard-response","476","696463","0.0-1.0-704.0","0","0","28482","","null","","","null","78","","","","","","","","","","","","","","","",""
"","ISI","","html-keyboard-response","477","697470","0.0-1.0-705.0","0","0","28482","","65","","","68","78","d","","","","","","","","","","","","","","",""
"","S2","","html-keyboard-response","478","697499","0.0-1.0-706.0","0","0","28482","","24","","","68","78","","d","2","78","training","adjacent","FE","6","5","Q.jpg","R.jpg","1","0","0","",""
"","feedback","","html-keyboard-response","479","698505","0.0-1.0-708.0-0.0","0","0","28482","","null","","","null","78","","","","","","","","","","","","","","","",""
"","time_out","","html-keyboard-response","480","700511","0.0-1.0-710.0-0.0","0","0","28482","","null","","","null","78","","","","","","","","","","","","","","","",""
"","ITI","","html-keyboard-response","481","701517","0.0-1.0-711.0","0","0","28482","","287","","","68","78","","","","","","","","","","","","","","","d",""
"","S1","","html-keyboard-response","482","701773","0.0-1.0-713.0","0","0","28482","","null","","","null","79","","","","","","","","","","","","","","","",""
"","ISI","","html-keyboard-response","483","702777","0.0-1.0-714.0","0","0","28482","","459","","","68","79","d","","","","","","","","","","","","","","",""
"","S2","","html-keyboard-response","484","702826","0.0-1.0-715.0","0","0","28482","","44","","","68","79","","d","2","79","training","adjacent","DC","4","3","O.jpg","M.jpg","1","0","0","",""
"","feedback","","html-keyboard-response","485","703831","0.0-1.0-717.0-0.0","0","0","28482","","null","","","null","79","","","","","","","","","","","","","","","",""
"","time_out","","html-keyboard-response","486","705835","0.0-1.0-719.0-0.0","0","0","28482","","null","","","null","79","","","","","","","","","","","","","","","",""
"","ITI","","html-keyboard-response","487","706840","0.0-1.0-720.0","0","0","28482","","388","","","68","79","","","","","","","","","","","","","","","d",""
"","S1","","html-keyboard-response","488","707095","0.0-1.0-722.0","0","0","28482","","null","","","null","80","","","","","","","","","","","","","","","",""
"","ISI","","html-keyboard-response","489","708099","0.0-1.0-723.0","0","0","28482","","97","","","68","80","d","","","","","","","","","","","","","","",""
"","S2","","html-keyboard-response","490","708139","0.0-1.0-724.0","0","0","28482","","34","","","68","80","","d","2","80","training","adjacent","BA","2","1","P.jpg","L.jpg","1","0","0","",""
"","feedback","","html-keyboard-response","491","709152","0.0-1.0-726.0-0.0","0","0","28482","","null","","","null","80","","","","","","","","","","","","","","","",""
"","time_out","","html-keyboard-response","492","711164","0.0-1.0-728.0-0.0","0","0","28482","","null","","","null","80","","","","","","","","","","","","","","","",""
"","ITI","","html-keyboard-response","493","712168","0.0-1.0-729.0","0","0","28482","","292","","","68","80","","","","","","","","","","","","","","","d",""
"","S1","","html-keyboard-response","494","712424","0.0-1.0-731.0","0","0","28482","","null","","","null","81","","","","","","","","","","","","","","","",""
"","ISI","","html-keyboard-response","495","713429","0.0-1.0-732.0","0","0","28482","","303","","","68","81","d","","","","","","","","","","","","","","",""
"","S2","","html-keyboard-response","496","713643","0.0-1.0-733.0","0","0","28482","","209","","","68","81","","d","2","81","training","adjacent","FG","6","7","Q.jpg","N.jpg","1","1","1","",""
"","feedback","","html-keyboard-response","497","714662","0.0-1.0-735.0-0.0","0","0","28482","","null","","","null","81","","","","","","","","","","","","","","","",""
"","ITI","","html-keyboard-response","498","715670","0.0-1.0-738.0","0","0","28482","","528","","","68","81","","","","","","","","","","","","","","","d",""
"","S1","","html-keyboard-response","499","715925","0.0-1.0-740.0","0","0","28482","","null","","","null","82","","","","","","","","","","","","","","","",""
"","ISI","","html-keyboard-response","500","716929","0.0-1.0-741.0","0","0","28482","","226","","","68","82","d","","","","","","","","","","","","","","",""
"","S2","","html-keyboard-response","501","717184","0.0-1.0-742.0","0","0","28482","","null","","","null","82","","NaN","","","","","","","","","","","","","",""
"","response","","html-keyboard-response","502","717189","0.0-1.0-743.0-0.0","0","0","28482","","0","","","68","82","","","2","82","training","adjacent","BC","2","3","P.jpg","M.jpg","1","1","1","",""
"","feedback","","html-keyboard-response","503","718196","0.0-1.0-744.0-0.0","0","0","28482","","null","","","null","82","","","","","","","","","","","","","","","",""
"","ITI","","html-keyboard-response","504","719200","0.0-1.0-747.0","0","0","28482","","491","","","68","82","","","","","","","","","","","","","","","d",""
"","S1","","html-keyboard-response","505","719454","0.0-1.0-749.0","0","0","28482","","null","","","null","83","","","","","","","","","","","","","","","",""
"","ISI","","html-keyboard-response","506","720459","0.0-1.0-750.0","0","0","28482","","273","","","68","83","d","","","","","","","","","","","","","","",""
"","S2","","html-keyboard-response","507","720715","0.0-1.0-751.0","0","0","28482","","null","","","null","83","","NaN","","","","","","","","","","","","","",""
"","response","","html-keyboard-response","508","720730","0.0-1.0-752.0-0.0","0","0","28482","","12","","","68","83","","","2","83","training","adjacent","ED","5","4","R.jpg","O.jpg","1","0","0","",""
"","feedback","","html-keyboard-response","509","721741","0.0-1.0-753.0-0.0","0","0","28482","","null","","","null","83","","","","","","","","","","","","","","","",""
"","time_out","","html-keyboard-response","510","723747","0.0-1.0-755.0-0.0","0","0","28482","","null","","","null","83","","","","","","","","","","","","","","","",""
"","ITI","","html-keyboard-response","511","724751","0.0-1.0-756.0","0","0","28482","","483","","","68","83","","","","","","","","","","","","","","","d",""
"","S1","","html-keyboard-response","512","725005","0.0-1.0-758.0","0","0","28482","","null","","","null","84","","","","","","","","","","","","","","","",""
"","ISI","","html-keyboard-response","513","726010","0.0-1.0-759.0","0","0","28482","","202","","","68","84","d","","","","","","","","","","","","","","",""
"","S2","","html-keyboard-response","514","726195","0.0-1.0-760.0","0","0","28482","","181","","","68","84","","d","2","84","training","adjacent","CB","3","2","M.jpg","P.jpg","1","0","0","",""
"","feedback","","html-keyboard-response","515","727202","0.0-1.0-762.0-0.0","0","0","28482","","null","","","null","84","","","","","","","","","","","","","","","",""
"","time_out","","html-keyboard-response","516","729209","0.0-1.0-764.0-0.0","0","0","28482","","null","","","null","84","","","","","","","","","","","","","","","",""
"","ITI","","html-keyboard-response","517","730214","0.0-1.0-765.0","0","0","28482","","461","","","68","84","","","","","","","","","","","","","","","d",""
"","S1","","html-keyboard-response","518","730469","0.0-1.0-767.0","0","0","28482","","null","","","null","85","","","","","","","","","","","","","","","",""
"","ISI","","html-keyboard-response","519","731473","0.0-1.0-768.0","0","0","28482","","203","","","68","85","d","","","","","","","","","","","","","","",""
"","S2","","html-keyboard-response","520","731730","0.0-1.0-769.0","0","0","28482","","null","","","null","85","","NaN","","","","","","","","","","","","","",""
"","response","","html-keyboard-response","521","731787","0.0-1.0-770.0-0.0","0","0","28482","","53","","","68","85","","","2","85","training","adjacent","FG","6","7","Q.jpg","N.jpg","1","1","1","",""
"","feedback","","html-keyboard-response","522","732793","0.0-1.0-771.0-0.0","0","0","28482","","null","","","null","85","","","","","","","","","","","","","","","",""
"","ITI","","html-keyboard-response","523","733798","0.0-1.0-774.0","0","0","28482","","71","","","68","85","","","","","","","","","","","","","","","d",""
"","S1","","html-keyboard-response","524","734053","0.0-1.0-776.0","0","0","28482","","null","","","null","86","","","","","","","","","","","","","","","",""
"","ISI","","html-keyboard-response","525","735057","0.0-1.0-777.0","0","0","28482","","403","","","68","86","d","","","","","","","","","","","","","","",""
"","S2","","html-keyboard-response","526","735310","0.0-1.0-778.0","0","0","28482","","248","","","68","86","","d","2","86","training","adjacent","EF","5","6","R.jpg","Q.jpg","1","1","1","",""
"","feedback","","html-keyboard-response","527","736316","0.0-1.0-780.0-0.0","0","0","28482","","null","","","null","86","","","","","","","","","","","","","","","",""
"","ITI","","html-keyboard-response","528","737322","0.0-1.0-783.0","0","0","28482","","266","","","68","86","","","","","","","","","","","","","","","d",""
"","S1","","html-keyboard-response","529","737578","0.0-1.0-785.0","0","0","28482","","null","","","null","87","","","","","","","","","","","","","","","",""
"","ISI","","html-keyboard-response","530","738581","0.0-1.0-786.0","0","0","28482","","286","","","68","87","d","","","","","","","","","","","","","","",""
"","S2","","html-keyboard-response","531","738732","0.0-1.0-787.0","0","0","28482","","148","","","68","87","","d","2","87","training","adjacent","DC","4","3","O.jpg","M.jpg","1","0","0","",""
"","feedback","","html-keyboard-response","532","739739","0.0-1.0-789.0-0.0","0","0","28482","","null","","","null","87","","","","","","","","","","","","","","","",""
"","time_out","","html-keyboard-response","533","741743","0.0-1.0-791.0-0.0","0","0","28482","","null","","","null","87","","","","","","","","","","","","","","","",""
"","ITI","","html-keyboard-response","534","742747","0.0-1.0-792.0","0","0","28482","","217","","","68","87","","","","","","","","","","","","","","","d",""
"","S1","","html-keyboard-response","535","743001","0.0-1.0-794.0","0","0","28482","","null","","","null","88","","","","","","","","","","","","","","","",""
"","ISI","","html-keyboard-response","536","744006","0.0-1.0-795.0","0","0","28482","","151","","","68","88","d","","","","","","","","","","","","","","",""
"","S2","","html-keyboard-response","537","744147","0.0-1.0-796.0","0","0","28482","","136","","","68","88","","d","2","88","training","adjacent","EF","5","6","R.jpg","Q.jpg","1","1","1","",""
"","feedback","","html-keyboard-response","538","745155","0.0-1.0-798.0-0.0","0","0","28482","","null","","","null","88","","","","","","","","","","","","","","","",""
"","ITI","","html-keyboard-response","539","746159","0.0-1.0-801.0","0","0","28482","","317","","","68","88","","","","","","","","","","","","","","","d",""
"","S1","","html-keyboard-response","540","746414","0.0-1.0-803.0","0","0","28482","","null","","","null","89","","","","","","","","","","","","","","","",""
"","ISI","","html-keyboard-response","541","747419","0.0-1.0-804.0","0","0","28482","","434","","","68","89","d","","","","","","","","","","","","","","",""
"","S2","","html-keyboard-response","542","747477","0.0-1.0-805.0","0","0","28482","","51","","","68","89","","d","2","89","training","adjacent","DE","4","5","O.jpg","R.jpg","1","1","1","",""
"","feedback","","html-keyboard-response","543","748484","0.0-1.0-807.0-0.0","0","0","28482","","null","","","null","89","","","","","","","","","","","","","","","",""
"","ITI","","html-keyboard-response","544","749488","0.0-1.0-810.0","0","0","28482","","11","","","68","89","","","","","","","","","","","","","","","d",""
"","S1","","html-keyboard-response","545","749745","0.0-1.0-812.0","0","0","28482","","null","","","null","90","","","","","","","","","","","","","","","",""
"","ISI","","html-keyboard-response","546","750751","0.0-1.0-813.0","0","0","28482","","263","","","68","90","d","","","","","","","","","","","","","","",""
"","S2","","html-keyboard-response","547","751008","0.0-1.0-814.0","0","0","28482","","null","","","null","90","","NaN","","","","","","","","","","","","","",""
"","response","","html-keyboard-response","548","751123","0.0-1.0-815.0-0.0","0","0","28482","","110","","","68","90","","","2","90","training","adjacent","BA","2","1","P.jpg","L.jpg","1","0","0","",""
"","feedback","","html-keyboard-response","549","752131","0.0-1.0-816.0-0.0","0","0","28482","","null","","","null","90","","","","","","","","","","","","","","","",""
"","time_out","","html-keyboard-response","550","754135","0.0-1.0-818.0-0.0","0","0","28482","","null","","","null","90","","","","","","","","","","","","","","","",""
"","ITI","","html-keyboard-response","551","755140","0.0-1.0-819.0","0","0","28482","","81","","","68","90","","","","","","","","","","","","","","","d",""
"","S1","","html-keyboard-response","552","755395","0.0-1.0-821.0","0","0","28482","","null","","","null","91","","","","","","","","","","","","","","","",""
"","ISI","","html-keyboard-response","553","756400","0.0-1.0-822.0","0","0","28482","","45","","","68","91","d","","","","","","","","","","","","","","",""
"","S2","","html-keyboard-response","554","756656","0.0-1.0-823.0","0","0","28482","","null","","","null","91","","NaN","","","","","","","","","","","","","",""
"","response","","html-keyboard-response","555","756661","0.0-1.0-824.0-0.0","0","0","28482","","1","","","68","91","","","2","91","training","adjacent","GF","7","6","N.jpg","Q.jpg","1","0","0","",""
"","feedback","","html-keyboard-response","556","757668","0.0-1.0-825.0-0.0","0","0","28482","","null","","","null","91","","","","","","","","","","","","","","","",""
"","time_out","","html-keyboard-response","557","759673","0.0-1.0-827.0-0.0","0","0","28482","","null","","","null","91","","","","","","","","","","","","","","","",""
"","ITI","","html-keyboard-response","558","760679","0.0-1.0-828.0","0","0","28482","","207","","","68","91","","","","","","","","","","","","","","","d",""
"","S1","","html-keyboard-response","559","760943","0.0-1.0-830.0","0","0","28482","","null","","","null","92","","","","","","","","","","","","","","","",""
"","ISI","","html-keyboard-response","560","761948","0.0-1.0-831.0","0","0","28482","","425","","","68","92","d","","","","","","","","","","","","","","",""
"","S2","","html-keyboard-response","561","762205","0.0-1.0-832.0","0","0","28482","","null","","","null","92","","NaN","","","","","","","","","","","","","",""
"","response","","html-keyboard-response","562","762276","0.0-1.0-833.0-0.0","0","0","28482","","66","","","68","92","","","2","92","training","adjacent","CB","3","2","M.jpg","P.jpg","1","0","0","",""
"","feedback","","html-keyboard-response","563","763282","0.0-1.0-834.0-0.0","0","0","28482","","null","","","null","92","","","","","","","","","","","","","","","",""
"","time_out","","html-keyboard-response","564","765286","0.0-1.0-836.0-0.0","0","0","28482","","null","","","null","92","","","","","","","","","","","","","","","",""
"","ITI","","html-keyboard-response","565","766289","0.0-1.0-837.0","0","0","28482","","73","","","68","92","","","","","","","","","","","","","","","d",""
"","S1","","html-keyboard-response","566","766541","0.0-1.0-839.0","0","0","28482","","null","","","null","93","","","","","","","","","","","","","","","",""
"","ISI","","html-keyboard-response","567","767545","0.0-1.0-840.0","0","0","28482","","75","","","68","93","d","","","","","","","","","","","","","","",""
"","S2","","html-keyboard-response","568","767618","0.0-1.0-841.0","0","0","28482","","69","","","68","93","","d","2","93","training","adjacent","CB","3","2","M.jpg","P.jpg","1","0","0","",""
"","feedback","","html-keyboard-response","569","768624","0.0-1.0-843.0-0.0","0","0","28482","","null","","","null","93","","","","","","","","","","","","","","","",""
"","time_out","","html-keyboard-response","570","770629","0.0-1.0-845.0-0.0","0","0","28482","","null","","","null","93","","","","","","","","","","","","","","","",""
"","ITI","","html-keyboard-response","571","771634","0.0-1.0-846.0","0","0","28482","","419","","","68","93","","","","","","","","","","","","","","","d",""
"","S1","","html-keyboard-response","572","771889","0.0-1.0-848.0","0","0","28482","","null","","","null","94","","","","","","","","","","","","","","","",""
"","ISI","","html-keyboard-response","573","772894","0.0-1.0-849.0","0","0","28482","","119","","","68","94","d","","","","","","","","","","","","","","",""
"","S2","","html-keyboard-response","574","773114","0.0-1.0-850.0","0","0","28482","","215","","","68","94","","d","2","94","training","adjacent","BA","2","1","P.jpg","L.jpg","1","0","0","",""
"","feedback","","html-keyboard-response","575","774120","0.0-1.0-852.0-0.0","0","0","28482","","null","","","null","94","","","","","","","","","","","","","","","",""
"","time_out","","html-keyboard-response","576","776135","0.0-1.0-854.0-0.0","0","0","28482","","null","","","null","94","","","","","","","","","","","","","","","",""
"","ITI","","html-keyboard-response","577","777138","0.0-1.0-855.0","0","0","28482","","192","","","75","94","","","","","","","","","","","","","","","k",""
"","S1","","html-keyboard-response","578","777392","0.0-1.0-857.0","0","0","28482","","null","","","null","95","","","","","","","","","","","","","","","",""
"","ISI","","html-keyboard-response","579","778398","0.0-1.0-858.0","0","0","28482","","272","","","75","95","k","","","","","","","","","","","","","","",""
"","S2","","html-keyboard-response","580","778636","0.0-1.0-859.0","0","0","28482","","232","","","75","95","","k","2","95","training","adjacent","FE","6","5","Q.jpg","R.jpg","0","0","1","",""
"","feedback","","html-keyboard-response","581","779640","0.0-1.0-861.0-0.0","0","0","28482","","null","","","null","95","","","","","","","","","","","","","","","",""
"","ITI","","html-keyboard-response","582","780645","0.0-1.0-864.0","0","0","28482","","511","","","75","95","","","","","","","","","","","","","","","k",""
"","block_over","","html-keyboard-response","583","799861","0.0-1.0-865.0-0.0","0","0","28482","","19210","","","32","95","","","","","","","","","","","","","","","",""
"","S1","","html-keyboard-response","584","800115","0.0-1.0-866.0","0","0","28482","","null","","","null","96","","","","","","","","","","","","","","","",""
"","ISI","","html-keyboard-response","585","801120","0.0-1.0-867.0","0","0","28482","","478","","","75","96","k","","","","","","","","","","","","","","",""
"","S2","","html-keyboard-response","586","801376","0.0-1.0-868.0","0","0","28482","","null","","","null","96","","NaN","","","","","","","","","","","","","",""
"","response","","html-keyboard-response","587","801644","0.0-1.0-869.0-0.0","0","0","28482","","263","","","75","96","","","3","96","training","adjacent","CD","3","4","M.jpg","O.jpg","0","1","0","",""
