"success","ttype","start_time","trial_type","trial_index","time_elapsed","internal_node_id","warning","missed_checkup","PID","view_history","rt","responses","repeat_instructions","key_press","index","keypress_isi","keypress_S2","block","trial_num","phase","group_type","pair_type","S1_stim","S2_stim","S1_img","S2_img","S1_chosen","S1_higher","accuracy","keypress_iti","total_bonus_tally"
"true","full_screen","d04132023hr1902","fullscreen","0","21007","0.0-0.0","0","0","42798","","","","","","","","","","","","","","","","","","","","","",""
"","instructions","","instructions","1","84313","0.0-1.0-0.0-0.0","0","0","42798","[{""page_index"":0,""viewing_time"":4499},{""page_index"":1,""viewing_time"":23057},{""page_index"":2,""viewing_time"":33896},{""page_index"":3,""viewing_time"":1850}]","63302","","","","","","","","","","","","","","","","","","","",""
"","comprehension_check","","survey-multi-choice","2","114750","0.0-1.0-0.0-1.0","0","0","42798","","30434","{""Q0"":""True"",""Q1"":""D"",""Q2"":""Once the second image appears and while the screen 'MAKE A CHOICE' is shown"",""Q3"":""Green mark"",""Q4"":""either D or K""}","0","","","","","","","","","","","","","","","","","",""
"","start_exp","","html-keyboard-response","3","118687","0.0-1.0-1.0","0","0","42798","","3932","","","32","","","","","","","","","","","","","","","","",""
"","S1","","html-keyboard-response","4","118941","0.0-1.0-2.0","0","0","42798","","null","","","null","0","","","","","","","","","","","","","","","",""
"","ISI","","html-keyboard-response","5","119944","0.0-1.0-3.0","0","0","42798","","null","","","null","0","NaN","","","","","","","","","","","","","","",""
"","S2","","html-keyboard-response","6","120198","0.0-1.0-4.0","0","0","42798","","null","","","null","0","","NaN","","","","","","","","","","","","","",""
"","response","","html-keyboard-response","7","121208","0.0-1.0-5.0-0.0","0","0","42798","","1008","","","68","0","","","1","0","training","adjacent","ED","5","4","R.jpg","P.jpg","1","0","0","",""
"","feedback","","html-keyboard-response","8","122211","0.0-1.0-6.0-0.0","0","0","42798","","null","","","null","0","","","","","","","","","","","","","","","",""
"","time_out","","html-keyboard-response","9","124213","0.0-1.0-8.0-0.0","0","0","42798","","null","","","null","0","","","","","","","","","","","","","","","",""
"","ITI","","html-keyboard-response","10","125216","0.0-1.0-9.0","0","0","42798","","null","","","null","0","","","","","","","","","","","","","","","NaN",""
"","S1","","html-keyboard-response","11","125468","0.0-1.0-11.0","0","0","42798","","null","","","null","1","","","","","","","","","","","","","","","",""
"","ISI","","html-keyboard-response","12","126472","0.0-1.0-12.0","0","0","42798","","null","","","null","1","NaN","","","","","","","","","","","","","","",""
"","S2","","html-keyboard-response","13","126724","0.0-1.0-13.0","0","0","42798","","null","","","null","1","","NaN","","","","","","","","","","","","","",""
"","response","","html-keyboard-response","14","127655","0.0-1.0-14.0-0.0","0","0","42798","","930","","","75","1","","","1","1","training","adjacent","BC","2","3","L.jpg","O.jpg","0","1","0","",""
"","feedback","","html-keyboard-response","15","128665","0.0-1.0-15.0-0.0","0","0","42798","","null","","","null","1","","","","","","","","","","","","","","","",""
"","time_out","","html-keyboard-response","16","130667","0.0-1.0-17.0-0.0","0","0","42798","","null","","","null","1","","","","","","","","","","","","","","","",""
"","ITI","","html-keyboard-response","17","131669","0.0-1.0-18.0","0","0","42798","","null","","","null","1","","","","","","","","","","","","","","","NaN",""
"","S1","","html-keyboard-response","18","131937","0.0-1.0-20.0","0","0","42798","","null","","","null","2","","","","","","","","","","","","","","","",""
"","ISI","","html-keyboard-response","19","132939","0.0-1.0-21.0","0","0","42798","","null","","","null","2","NaN","","","","","","","","","","","","","","",""
"","S2","","html-keyboard-response","20","133191","0.0-1.0-22.0","0","0","42798","","null","","","null","2","","NaN","","","","","","","","","","","","","",""
"","response","","html-keyboard-response","21","133815","0.0-1.0-23.0-0.0","0","0","42798","","622","","","75","2","","","1","2","training","adjacent","CD","3","4","O.jpg","P.jpg","0","1","0","",""
"","feedback","","html-keyboard-response","22","134819","0.0-1.0-24.0-0.0","0","0","42798","","null","","","null","2","","","","","","","","","","","","","","","",""
"","time_out","","html-keyboard-response","23","136823","0.0-1.0-26.0-0.0","0","0","42798","","null","","","null","2","","","","","","","","","","","","","","","",""
"","ITI","","html-keyboard-response","24","137826","0.0-1.0-27.0","0","0","42798","","null","","","null","2","","","","","","","","","","","","","","","NaN",""
"","S1","","html-keyboard-response","25","138079","0.0-1.0-29.0","0","0","42798","","null","","","null","3","","","","","","","","","","","","","","","",""
"","ISI","","html-keyboard-response","26","139081","0.0-1.0-30.0","0","0","42798","","null","","","null","3","NaN","","","","","","","","","","","","","","",""
"","S2","","html-keyboard-response","27","139333","0.0-1.0-31.0","0","0","42798","","null","","","null","3","","NaN","","","","","","","","","","","","","",""
"","response","","html-keyboard-response","28","140349","0.0-1.0-32.0-0.0","0","0","42798","","1014","","","68","3","","","1","3","training","adjacent","FG","6","7","Q.jpg","N.jpg","1","1","1","",""
"","feedback","","html-keyboard-response","29","141363","0.0-1.0-33.0-0.0","0","0","42798","","null","","","null","3","","","","","","","","","","","","","","","",""
"","ITI","","html-keyboard-response","30","142376","0.0-1.0-36.0","0","0","42798","","null","","","null","3","","","","","","","","","","","","","","","NaN",""
"","S1","","html-keyboard-response","31","142628","0.0-1.0-38.0","0","0","42798","","null","","","null","4","","","","","","","","","","","","","","","",""
"","ISI","","html-keyboard-response","32","143632","0.0-1.0-39.0","0","0","42798","","null","","","null","4","NaN","","","","","","","","","","","","","","",""
"","S2","","html-keyboard-response","33","143883","0.0-1.0-40.0","0","0","42798","","null","","","null","4","","NaN","","","","","","","","","","","","","",""
"","response","","html-keyboard-response","34","144421","0.0-1.0-41.0-0.0","0","0","42798","","537","","","75","4","","","1","4","training","adjacent","GF","7","6","N.jpg","Q.jpg","0","0","1","",""
"","feedback","","html-keyboard-response","35","145423","0.0-1.0-42.0-0.0","0","0","42798","","null","","","null","4","","","","","","","","","","","","","","","",""
"","ITI","","html-keyboard-response","36","146426","0.0-1.0-45.0","0","0","42798","","null","","","null","4","","","","","","","","","","","","","","","NaN",""
"","S1","","html-keyboard-response","37","146678","0.0-1.0-47.0","0","0","42798","","null","","","null","5","","","","","","","","","","","","","","","",""
"","ISI","","html-keyboard-response","38","147680","0.0-1.0-48.0","0","0","42798","","null","","","null","5","NaN","","","","","","","","","","","","","","",""
"","S2","","html-keyboard-response","39","147933","0.0-1.0-49.0","0","0","42798","","null","","","null","5","","NaN","","","","","","","","","","","","","",""
"","response","","html-keyboard-response","40","148822","0.0-1.0-50.0-0.0","0","0","42798","","887","","","75","5","","","1","5","training","adjacent","BA","2","1","L.jpg","M.jpg","0","0","1","",""
"","feedback","","html-keyboard-response","41","149823","0.0-1.0-51.0-0.0","0","0","42798","","null","","","null","5","","","","","","","","","","","","","","","",""
"","ITI","","html-keyboard-response","42","150826","0.0-1.0-54.0","0","0","42798","","null","","","null","5","","","","","","","","","","","","","","","NaN",""
"","S1","","html-keyboard-response","43","151079","0.0-1.0-56.0","0","0","42798","","null","","","null","6","","","","","","","","","","","","","","","",""
"","ISI","","html-keyboard-response","44","152082","0.0-1.0-57.0","0","0","42798","","null","","","null","6","NaN","","","","","","","","","","","","","","",""
"","S2","","html-keyboard-response","45","152336","0.0-1.0-58.0","0","0","42798","","null","","","null","6","","NaN","","","","","","","","","","","","","",""
"","response","","html-keyboard-response","46","152899","0.0-1.0-59.0-0.0","0","0","42798","","562","","","75","6","","","1","6","training","adjacent","GF","7","6","N.jpg","Q.jpg","0","0","1","",""
"","feedback","","html-keyboard-response","47","153909","0.0-1.0-60.0-0.0","0","0","42798","","null","","","null","6","","","","","","","","","","","","","","","",""
"","ITI","","html-keyboard-response","48","154912","0.0-1.0-63.0","0","0","42798","","null","","","null","6","","","","","","","","","","","","","","","NaN",""
"","S1","","html-keyboard-response","49","155163","0.0-1.0-65.0","0","0","42798","","null","","","null","7","","","","","","","","","","","","","","","",""
"","ISI","","html-keyboard-response","50","156165","0.0-1.0-66.0","0","0","42798","","null","","","null","7","NaN","","","","","","","","","","","","","","",""
"","S2","","html-keyboard-response","51","156419","0.0-1.0-67.0","0","0","42798","","null","","","null","7","","NaN","","","","","","","","","","","","","",""
"","response","","html-keyboard-response","52","157466","0.0-1.0-68.0-0.0","0","0","42798","","1044","","","75","7","","","1","7","training","adjacent","CD","3","4","O.jpg","P.jpg","0","1","0","",""
"","feedback","","html-keyboard-response","53","158468","0.0-1.0-69.0-0.0","0","0","42798","","null","","","null","7","","","","","","","","","","","","","","","",""
"","time_out","","html-keyboard-response","54","160470","0.0-1.0-71.0-0.0","0","0","42798","","null","","","null","7","","","","","","","","","","","","","","","",""
"","ITI","","html-keyboard-response","55","161473","0.0-1.0-72.0","0","0","42798","","null","","","null","7","","","","","","","","","","","","","","","NaN",""
"","S1","","html-keyboard-response","56","161725","0.0-1.0-74.0","0","0","42798","","null","","","null","8","","","","","","","","","","","","","","","",""
"","ISI","","html-keyboard-response","57","162727","0.0-1.0-75.0","0","0","42798","","null","","","null","8","NaN","","","","","","","","","","","","","","",""
"","S2","","html-keyboard-response","58","162982","0.0-1.0-76.0","0","0","42798","","null","","","null","8","","NaN","","","","","","","","","","","","","",""
"","response","","html-keyboard-response","59","163804","0.0-1.0-77.0-0.0","0","0","42798","","820","","","75","8","","","1","8","training","adjacent","CD","3","4","O.jpg","P.jpg","0","1","0","",""
"","feedback","","html-keyboard-response","60","164806","0.0-1.0-78.0-0.0","0","0","42798","","null","","","null","8","","","","","","","","","","","","","","","",""
"","time_out","","html-keyboard-response","61","166809","0.0-1.0-80.0-0.0","0","0","42798","","null","","","null","8","","","","","","","","","","","","","","","",""
"","ITI","","html-keyboard-response","62","167813","0.0-1.0-81.0","0","0","42798","","null","","","null","8","","","","","","","","","","","","","","","NaN",""
"","S1","","html-keyboard-response","63","168067","0.0-1.0-83.0","0","0","42798","","null","","","null","9","","","","","","","","","","","","","","","",""
"","ISI","","html-keyboard-response","64","169070","0.0-1.0-84.0","0","0","42798","","null","","","null","9","NaN","","","","","","","","","","","","","","",""
"","S2","","html-keyboard-response","65","169324","0.0-1.0-85.0","0","0","42798","","null","","","null","9","","NaN","","","","","","","","","","","","","",""
"","response","","html-keyboard-response","66","170411","0.0-1.0-86.0-0.0","0","0","42798","","1084","","","75","9","","","1","9","training","adjacent","DC","4","3","P.jpg","O.jpg","0","0","1","",""
"","feedback","","html-keyboard-response","67","171414","0.0-1.0-87.0-0.0","0","0","42798","","null","","","null","9","","","","","","","","","","","","","","","",""
"","ITI","","html-keyboard-response","68","172417","0.0-1.0-90.0","0","0","42798","","null","","","null","9","","","","","","","","","","","","","","","NaN",""
"","S1","","html-keyboard-response","69","172669","0.0-1.0-92.0","0","0","42798","","null","","","null","10","","","","","","","","","","","","","","","",""
"","ISI","","html-keyboard-response","70","173672","0.0-1.0-93.0","0","0","42798","","null","","","null","10","NaN","","","","","","","","","","","","","","",""
"","S2","","html-keyboard-response","71","173924","0.0-1.0-94.0","0","0","42798","","null","","","null","10","","NaN","","","","","","","","","","","","","",""
"","response","","html-keyboard-response","72","174300","0.0-1.0-95.0-0.0","0","0","42798","","375","","","75","10","","","1","10","training","adjacent","EF","5","6","R.jpg","Q.jpg","0","1","0","",""
"","feedback","","html-keyboard-response","73","175302","0.0-1.0-96.0-0.0","0","0","42798","","null","","","null","10","","","","","","","","","","","","","","","",""
"","time_out","","html-keyboard-response","74","177304","0.0-1.0-98.0-0.0","0","0","42798","","null","","","null","10","","","","","","","","","","","","","","","",""
"","ITI","","html-keyboard-response","75","178308","0.0-1.0-99.0","0","0","42798","","null","","","null","10","","","","","","","","","","","","","","","NaN",""
"","S1","","html-keyboard-response","76","178560","0.0-1.0-101.0","0","0","42798","","null","","","null","11","","","","","","","","","","","","","","","",""
"","ISI","","html-keyboard-response","77","179563","0.0-1.0-102.0","0","0","42798","","null","","","null","11","NaN","","","","","","","","","","","","","","",""
"","S2","","html-keyboard-response","78","179816","0.0-1.0-103.0","0","0","42798","","null","","","null","11","","NaN","","","","","","","","","","","","","",""
"","response","","html-keyboard-response","79","180417","0.0-1.0-104.0-0.0","0","0","42798","","598","","","75","11","","","1","11","training","adjacent","DE","4","5","P.jpg","R.jpg","0","1","0","",""
"","feedback","","html-keyboard-response","80","181421","0.0-1.0-105.0-0.0","0","0","42798","","null","","","null","11","","","","","","","","","","","","","","","",""
"","time_out","","html-keyboard-response","81","183423","0.0-1.0-107.0-0.0","0","0","42798","","null","","","null","11","","","","","","","","","","","","","","","",""
"","ITI","","html-keyboard-response","82","184425","0.0-1.0-108.0","0","0","42798","","null","","","null","11","","","","","","","","","","","","","","","NaN",""
"","S1","","html-keyboard-response","83","184678","0.0-1.0-110.0","0","0","42798","","null","","","null","12","","","","","","","","","","","","","","","",""
"","ISI","","html-keyboard-response","84","185679","0.0-1.0-111.0","0","0","42798","","null","","","null","12","NaN","","","","","","","","","","","","","","",""
"","S2","","html-keyboard-response","85","185932","0.0-1.0-112.0","0","0","42798","","null","","","null","12","","NaN","","","","","","","","","","","","","",""
"","response","","html-keyboard-response","86","186970","0.0-1.0-113.0-0.0","0","0","42798","","1037","","","68","12","","","1","12","training","adjacent","DC","4","3","P.jpg","O.jpg","1","0","0","",""
"","feedback","","html-keyboard-response","87","187972","0.0-1.0-114.0-0.0","0","0","42798","","null","","","null","12","","","","","","","","","","","","","","","",""
"","time_out","","html-keyboard-response","88","189973","0.0-1.0-116.0-0.0","0","0","42798","","null","","","null","12","","","","","","","","","","","","","","","",""
"","ITI","","html-keyboard-response","89","190975","0.0-1.0-117.0","0","0","42798","","null","","","null","12","","","","","","","","","","","","","","","NaN",""
"","S1","","html-keyboard-response","90","191229","0.0-1.0-119.0","0","0","42798","","null","","","null","13","","","","","","","","","","","","","","","",""
"","ISI","","html-keyboard-response","91","192232","0.0-1.0-120.0","0","0","42798","","null","","","null","13","NaN","","","","","","","","","","","","","","",""
"","S2","","html-keyboard-response","92","192484","0.0-1.0-121.0","0","0","42798","","null","","","null","13","","NaN","","","","","","","","","","","","","",""
"","response","","html-keyboard-response","93","192827","0.0-1.0-122.0-0.0","0","0","42798","","341","","","75","13","","","1","13","training","adjacent","BA","2","1","L.jpg","M.jpg","0","0","1","",""
"","feedback","","html-keyboard-response","94","193831","0.0-1.0-123.0-0.0","0","0","42798","","null","","","null","13","","","","","","","","","","","","","","","",""
"","ITI","","html-keyboard-response","95","194835","0.0-1.0-126.0","0","0","42798","","null","","","null","13","","","","","","","","","","","","","","","NaN",""
"","S1","","html-keyboard-response","96","195087","0.0-1.0-128.0","0","0","42798","","null","","","null","14","","","","","","","","","","","","","","","",""
"","ISI","","html-keyboard-response","97","196088","0.0-1.0-129.0","0","0","42798","","268","","","16","14","shift","","","","","","","","","","","","","","",""
"","S2","","html-keyboard-response","98","196341","0.0-1.0-130.0","0","0","42798","","null","","","null","14","","NaN","","","","","","","","","","","","","",""
"","response","","html-keyboard-response","99","197964","0.0-1.0-131.0-0.0","0","0","42798","","1621","","","75","14","","","1","14","training","adjacent","FG","6","7","Q.jpg","N.jpg","0","1","0","",""
"","feedback","","html-keyboard-response","100","198965","0.0-1.0-132.0-0.0","0","0","42798","","null","","","null","14","","","","","","","","","","","","","","","",""
"","time_out","","html-keyboard-response","101","200967","0.0-1.0-134.0-0.0","0","0","42798","","null","","","null","14","","","","","","","","","","","","","","","",""
"","ITI","","html-keyboard-response","102","201968","0.0-1.0-135.0","0","0","42798","","null","","","null","14","","","","","","","","","","","","","","","NaN",""
"","S1","","html-keyboard-response","103","202224","0.0-1.0-137.0","0","0","42798","","null","","","null","15","","","","","","","","","","","","","","","",""
"","ISI","","html-keyboard-response","104","203226","0.0-1.0-138.0","0","0","42798","","null","","","null","15","NaN","","","","","","","","","","","","","","",""
"","S2","","html-keyboard-response","105","203479","0.0-1.0-139.0","0","0","42798","","null","","","null","15","","NaN","","","","","","","","","","","","","",""
"","response","","html-keyboard-response","106","204280","0.0-1.0-140.0-0.0","0","0","42798","","800","","","68","15","","","1","15","training","adjacent","FG","6","7","Q.jpg","N.jpg","1","1","1","",""
"","feedback","","html-keyboard-response","107","205283","0.0-1.0-141.0-0.0","0","0","42798","","null","","","null","15","","","","","","","","","","","","","","","",""
"","ITI","","html-keyboard-response","108","206285","0.0-1.0-144.0","0","0","42798","","null","","","null","15","","","","","","","","","","","","","","","NaN",""
"","S1","","html-keyboard-response","109","206538","0.0-1.0-146.0","0","0","42798","","null","","","null","16","","","","","","","","","","","","","","","",""
"","ISI","","html-keyboard-response","110","207541","0.0-1.0-147.0","0","0","42798","","null","","","null","16","NaN","","","","","","","","","","","","","","",""
"","S2","","html-keyboard-response","111","207795","0.0-1.0-148.0","0","0","42798","","null","","","null","16","","NaN","","","","","","","","","","","","","",""
"","response","","html-keyboard-response","112","208254","0.0-1.0-149.0-0.0","0","0","42798","","458","","","68","16","","","1","16","training","adjacent","ED","5","4","R.jpg","P.jpg","1","0","0","",""
"","feedback","","html-keyboard-response","113","209259","0.0-1.0-150.0-0.0","0","0","42798","","null","","","null","16","","","","","","","","","","","","","","","",""
"","time_out","","html-keyboard-response","114","211262","0.0-1.0-152.0-0.0","0","0","42798","","null","","","null","16","","","","","","","","","","","","","","","",""
"","ITI","","html-keyboard-response","115","212263","0.0-1.0-153.0","0","0","42798","","null","","","null","16","","","","","","","","","","","","","","","NaN",""
"","S1","","html-keyboard-response","116","212516","0.0-1.0-155.0","0","0","42798","","null","","","null","17","","","","","","","","","","","","","","","",""
"","ISI","","html-keyboard-response","117","213519","0.0-1.0-156.0","0","0","42798","","null","","","null","17","NaN","","","","","","","","","","","","","","",""
"","S2","","html-keyboard-response","118","213773","0.0-1.0-157.0","0","0","42798","","null","","","null","17","","NaN","","","","","","","","","","","","","",""
"","response","","html-keyboard-response","119","214280","0.0-1.0-158.0-0.0","0","0","42798","","506","","","75","17","","","1","17","training","adjacent","AB","1","2","M.jpg","L.jpg","0","1","0","",""
"","feedback","","html-keyboard-response","120","215281","0.0-1.0-159.0-0.0","0","0","42798","","null","","","null","17","","","","","","","","","","","","","","","",""
"","time_out","","html-keyboard-response","121","217286","0.0-1.0-161.0-0.0","0","0","42798","","null","","","null","17","","","","","","","","","","","","","","","",""
"","ITI","","html-keyboard-response","122","218289","0.0-1.0-162.0","0","0","42798","","null","","","null","17","","","","","","","","","","","","","","","NaN",""
"","S1","","html-keyboard-response","123","218542","0.0-1.0-164.0","0","0","42798","","null","","","null","18","","","","","","","","","","","","","","","",""
"","ISI","","html-keyboard-response","124","219545","0.0-1.0-165.0","0","0","42798","","null","","","null","18","NaN","","","","","","","","","","","","","","",""
"","S2","","html-keyboard-response","125","219797","0.0-1.0-166.0","0","0","42798","","null","","","null","18","","NaN","","","","","","","","","","","","","",""
"","response","","html-keyboard-response","126","221549","0.0-1.0-167.0-0.0","0","0","42798","","null","","","null","18","","","1","18","training","adjacent","DE","4","5","P.jpg","R.jpg","NaN","1","0","",""
"","too_slow_prompt","","html-keyboard-response","127","222552","0.0-1.0-169.0-0.0","1","0","42798","","null","","","null","","","","","","","","","","","","","","","","",""
"","time_out","","html-keyboard-response","128","224554","0.0-1.0-170.0-0.0","0","0","42798","","null","","","null","18","","","","","","","","","","","","","","","",""
"","ITI","","html-keyboard-response","129","225566","0.0-1.0-171.0","0","0","42798","","null","","","null","18","","","","","","","","","","","","","","","NaN",""
"","S1","","html-keyboard-response","130","225818","0.0-1.0-173.0","0","0","42798","","null","","","null","19","","","","","","","","","","","","","","","",""
"","ISI","","html-keyboard-response","131","226821","0.0-1.0-174.0","0","0","42798","","null","","","null","19","NaN","","","","","","","","","","","","","","",""
"","S2","","html-keyboard-response","132","227074","0.0-1.0-175.0","0","0","42798","","null","","","null","19","","NaN","","","","","","","","","","","","","",""
"","response","","html-keyboard-response","133","228038","0.0-1.0-176.0-0.0","0","0","42798","","962","","","75","19","","","1","19","training","adjacent","CD","3","4","O.jpg","P.jpg","0","1","0","",""
"","feedback","","html-keyboard-response","134","229043","0.0-1.0-177.0-0.0","0","0","42798","","null","","","null","19","","","","","","","","","","","","","","","",""
"","time_out","","html-keyboard-response","135","231047","0.0-1.0-179.0-0.0","0","0","42798","","null","","","null","19","","","","","","","","","","","","","","","",""
"","ITI","","html-keyboard-response","136","232050","0.0-1.0-180.0","0","0","42798","","null","","","null","19","","","","","","","","","","","","","","","NaN",""
"","S1","","html-keyboard-response","137","232303","0.0-1.0-182.0","0","0","42798","","null","","","null","20","","","","","","","","","","","","","","","",""
"","ISI","","html-keyboard-response","138","233307","0.0-1.0-183.0","0","0","42798","","null","","","null","20","NaN","","","","","","","","","","","","","","",""
"","S2","","html-keyboard-response","139","233559","0.0-1.0-184.0","0","0","42798","","null","","","null","20","","NaN","","","","","","","","","","","","","",""
"","response","","html-keyboard-response","140","233838","0.0-1.0-185.0-0.0","0","0","42798","","278","","","68","20","","","1","20","training","adjacent","FG","6","7","Q.jpg","N.jpg","1","1","1","",""
"","feedback","","html-keyboard-response","141","234841","0.0-1.0-186.0-0.0","0","0","42798","","null","","","null","20","","","","","","","","","","","","","","","",""
"","ITI","","html-keyboard-response","142","235844","0.0-1.0-189.0","0","0","42798","","null","","","null","20","","","","","","","","","","","","","","","NaN",""
"","S1","","html-keyboard-response","143","236096","0.0-1.0-191.0","0","0","42798","","null","","","null","21","","","","","","","","","","","","","","","",""
"","ISI","","html-keyboard-response","144","237099","0.0-1.0-192.0","0","0","42798","","null","","","null","21","NaN","","","","","","","","","","","","","","",""
"","S2","","html-keyboard-response","145","237352","0.0-1.0-193.0","0","0","42798","","null","","","null","21","","NaN","","","","","","","","","","","","","",""
"","response","","html-keyboard-response","146","237879","0.0-1.0-194.0-0.0","0","0","42798","","525","","","68","21","","","1","21","training","adjacent","AB","1","2","M.jpg","L.jpg","1","1","1","",""
"","feedback","","html-keyboard-response","147","238882","0.0-1.0-195.0-0.0","0","0","42798","","null","","","null","21","","","","","","","","","","","","","","","",""
"","ITI","","html-keyboard-response","148","239886","0.0-1.0-198.0","0","0","42798","","null","","","null","21","","","","","","","","","","","","","","","NaN",""
"","S1","","html-keyboard-response","149","240142","0.0-1.0-200.0","0","0","42798","","null","","","null","22","","","","","","","","","","","","","","","",""
"","ISI","","html-keyboard-response","150","241144","0.0-1.0-201.0","0","0","42798","","null","","","null","22","NaN","","","","","","","","","","","","","","",""
"","S2","","html-keyboard-response","151","241397","0.0-1.0-202.0","0","0","42798","","null","","","null","22","","NaN","","","","","","","","","","","","","",""
"","response","","html-keyboard-response","152","241931","0.0-1.0-203.0-0.0","0","0","42798","","533","","","68","22","","","1","22","training","adjacent","FE","6","5","Q.jpg","R.jpg","1","0","0","",""
"","feedback","","html-keyboard-response","153","242934","0.0-1.0-204.0-0.0","0","0","42798","","null","","","null","22","","","","","","","","","","","","","","","",""
"","time_out","","html-keyboard-response","154","244936","0.0-1.0-206.0-0.0","0","0","42798","","null","","","null","22","","","","","","","","","","","","","","","",""
"","ITI","","html-keyboard-response","155","245938","0.0-1.0-207.0","0","0","42798","","null","","","null","22","","","","","","","","","","","","","","","NaN",""
"","S1","","html-keyboard-response","156","246191","0.0-1.0-209.0","0","0","42798","","null","","","null","23","","","","","","","","","","","","","","","",""
"","ISI","","html-keyboard-response","157","247193","0.0-1.0-210.0","0","0","42798","","null","","","null","23","NaN","","","","","","","","","","","","","","",""
"","S2","","html-keyboard-response","158","247446","0.0-1.0-211.0","0","0","42798","","null","","","null","23","","NaN","","","","","","","","","","","","","",""
"","response","","html-keyboard-response","159","248145","0.0-1.0-212.0-0.0","0","0","42798","","697","","","75","23","","","1","23","training","adjacent","CB","3","2","O.jpg","L.jpg","0","0","1","",""
"","feedback","","html-keyboard-response","160","249148","0.0-1.0-213.0-0.0","0","0","42798","","null","","","null","23","","","","","","","","","","","","","","","",""
"","ITI","","html-keyboard-response","161","250151","0.0-1.0-216.0","0","0","42798","","null","","","null","23","","","","","","","","","","","","","","","NaN",""
"","S1","","html-keyboard-response","162","250404","0.0-1.0-218.0","0","0","42798","","null","","","null","24","","","","","","","","","","","","","","","",""
"","ISI","","html-keyboard-response","163","251405","0.0-1.0-219.0","0","0","42798","","null","","","null","24","NaN","","","","","","","","","","","","","","",""
"","S2","","html-keyboard-response","164","251657","0.0-1.0-220.0","0","0","42798","","null","","","null","24","","NaN","","","","","","","","","","","","","",""
"","response","","html-keyboard-response","165","252363","0.0-1.0-221.0-0.0","0","0","42798","","704","","","75","24","","","1","24","training","adjacent","BC","2","3","L.jpg","O.jpg","0","1","0","",""
"","feedback","","html-keyboard-response","166","253365","0.0-1.0-222.0-0.0","0","0","42798","","null","","","null","24","","","","","","","","","","","","","","","",""
"","time_out","","html-keyboard-response","167","255369","0.0-1.0-224.0-0.0","0","0","42798","","null","","","null","24","","","","","","","","","","","","","","","",""
"","ITI","","html-keyboard-response","168","256372","0.0-1.0-225.0","0","0","42798","","null","","","null","24","","","","","","","","","","","","","","","NaN",""
"","S1","","html-keyboard-response","169","256627","0.0-1.0-227.0","0","0","42798","","null","","","null","25","","","","","","","","","","","","","","","",""
"","ISI","","html-keyboard-response","170","257629","0.0-1.0-228.0","0","0","42798","","null","","","null","25","NaN","","","","","","","","","","","","","","",""
"","S2","","html-keyboard-response","171","257881","0.0-1.0-229.0","0","0","42798","","null","","","null","25","","NaN","","","","","","","","","","","","","",""
"","response","","html-keyboard-response","172","258593","0.0-1.0-230.0-0.0","0","0","42798","","711","","","68","25","","","1","25","training","adjacent","BA","2","1","L.jpg","M.jpg","1","0","0","",""
"","feedback","","html-keyboard-response","173","259596","0.0-1.0-231.0-0.0","0","0","42798","","null","","","null","25","","","","","","","","","","","","","","","",""
"","time_out","","html-keyboard-response","174","261599","0.0-1.0-233.0-0.0","0","0","42798","","null","","","null","25","","","","","","","","","","","","","","","",""
"","ITI","","html-keyboard-response","175","262601","0.0-1.0-234.0","0","0","42798","","null","","","null","25","","","","","","","","","","","","","","","NaN",""
"","S1","","html-keyboard-response","176","262853","0.0-1.0-236.0","0","0","42798","","null","","","null","26","","","","","","","","","","","","","","","",""
"","ISI","","html-keyboard-response","177","263862","0.0-1.0-237.0","0","0","42798","","null","","","null","26","NaN","","","","","","","","","","","","","","",""
"","S2","","html-keyboard-response","178","264113","0.0-1.0-238.0","0","0","42798","","null","","","null","26","","NaN","","","","","","","","","","","","","",""
"","response","","html-keyboard-response","179","264502","0.0-1.0-239.0-0.0","0","0","42798","","387","","","75","26","","","1","26","training","adjacent","BC","2","3","L.jpg","O.jpg","0","1","0","",""
"","feedback","","html-keyboard-response","180","265504","0.0-1.0-240.0-0.0","0","0","42798","","null","","","null","26","","","","","","","","","","","","","","","",""
"","time_out","","html-keyboard-response","181","267506","0.0-1.0-242.0-0.0","0","0","42798","","null","","","null","26","","","","","","","","","","","","","","","",""
"","ITI","","html-keyboard-response","182","268508","0.0-1.0-243.0","0","0","42798","","null","","","null","26","","","","","","","","","","","","","","","NaN",""
"","S1","","html-keyboard-response","183","268762","0.0-1.0-245.0","0","0","42798","","null","","","null","27","","","","","","","","","","","","","","","",""
"","ISI","","html-keyboard-response","184","269765","0.0-1.0-246.0","0","0","42798","","null","","","null","27","NaN","","","","","","","","","","","","","","",""
"","S2","","html-keyboard-response","185","270018","0.0-1.0-247.0","0","0","42798","","null","","","null","27","","NaN","","","","","","","","","","","","","",""
"","response","","html-keyboard-response","186","270540","0.0-1.0-248.0-0.0","0","0","42798","","520","","","68","27","","","1","27","training","adjacent","ED","5","4","R.jpg","P.jpg","1","0","0","",""
"","feedback","","html-keyboard-response","187","271544","0.0-1.0-249.0-0.0","0","0","42798","","null","","","null","27","","","","","","","","","","","","","","","",""
"","time_out","","html-keyboard-response","188","273546","0.0-1.0-251.0-0.0","0","0","42798","","null","","","null","27","","","","","","","","","","","","","","","",""
"","ITI","","html-keyboard-response","189","274549","0.0-1.0-252.0","0","0","42798","","null","","","null","27","","","","","","","","","","","","","","","NaN",""
"","S1","","html-keyboard-response","190","274805","0.0-1.0-254.0","0","0","42798","","null","","","null","28","","","","","","","","","","","","","","","",""
"","ISI","","html-keyboard-response","191","275808","0.0-1.0-255.0","0","0","42798","","null","","","null","28","NaN","","","","","","","","","","","","","","",""
"","S2","","html-keyboard-response","192","276068","0.0-1.0-256.0","0","0","42798","","null","","","null","28","","NaN","","","","","","","","","","","","","",""
"","response","","html-keyboard-response","193","277014","0.0-1.0-257.0-0.0","0","0","42798","","944","","","68","28","","","1","28","training","adjacent","FE","6","5","Q.jpg","R.jpg","1","0","0","",""
"","feedback","","html-keyboard-response","194","278018","0.0-1.0-258.0-0.0","0","0","42798","","null","","","null","28","","","","","","","","","","","","","","","",""
"","time_out","","html-keyboard-response","195","280020","0.0-1.0-260.0-0.0","0","0","42798","","null","","","null","28","","","","","","","","","","","","","","","",""
"","ITI","","html-keyboard-response","196","281023","0.0-1.0-261.0","0","0","42798","","null","","","null","28","","","","","","","","","","","","","","","NaN",""
"","S1","","html-keyboard-response","197","281276","0.0-1.0-263.0","0","0","42798","","null","","","null","29","","","","","","","","","","","","","","","",""
"","ISI","","html-keyboard-response","198","282279","0.0-1.0-264.0","0","0","42798","","null","","","null","29","NaN","","","","","","","","","","","","","","",""
"","S2","","html-keyboard-response","199","282542","0.0-1.0-265.0","0","0","42798","","null","","","null","29","","NaN","","","","","","","","","","","","","",""
"","response","","html-keyboard-response","200","282863","0.0-1.0-266.0-0.0","0","0","42798","","319","","","75","29","","","1","29","training","adjacent","DE","4","5","P.jpg","R.jpg","0","1","0","",""
"","feedback","","html-keyboard-response","201","283865","0.0-1.0-267.0-0.0","0","0","42798","","null","","","null","29","","","","","","","","","","","","","","","",""
"","time_out","","html-keyboard-response","202","285867","0.0-1.0-269.0-0.0","0","0","42798","","null","","","null","29","","","","","","","","","","","","","","","",""
"","ITI","","html-keyboard-response","203","286871","0.0-1.0-270.0","0","0","42798","","null","","","null","29","","","","","","","","","","","","","","","NaN",""
"","S1","","html-keyboard-response","204","287124","0.0-1.0-272.0","0","0","42798","","null","","","null","30","","","","","","","","","","","","","","","",""
"","ISI","","html-keyboard-response","205","288127","0.0-1.0-273.0","0","0","42798","","null","","","null","30","NaN","","","","","","","","","","","","","","",""
"","S2","","html-keyboard-response","206","288380","0.0-1.0-274.0","0","0","42798","","null","","","null","30","","NaN","","","","","","","","","","","","","",""
"","response","","html-keyboard-response","207","289208","0.0-1.0-275.0-0.0","0","0","42798","","825","","","68","30","","","1","30","training","adjacent","GF","7","6","N.jpg","Q.jpg","1","0","0","",""
"","feedback","","html-keyboard-response","208","290213","0.0-1.0-276.0-0.0","0","0","42798","","null","","","null","30","","","","","","","","","","","","","","","",""
"","time_out","","html-keyboard-response","209","292215","0.0-1.0-278.0-0.0","0","0","42798","","null","","","null","30","","","","","","","","","","","","","","","",""
"","ITI","","html-keyboard-response","210","293217","0.0-1.0-279.0","0","0","42798","","null","","","null","30","","","","","","","","","","","","","","","NaN",""
"","S1","","html-keyboard-response","211","293469","0.0-1.0-281.0","0","0","42798","","null","","","null","31","","","","","","","","","","","","","","","",""
"","ISI","","html-keyboard-response","212","294474","0.0-1.0-282.0","0","0","42798","","null","","","null","31","NaN","","","","","","","","","","","","","","",""
"","S2","","html-keyboard-response","213","294746","0.0-1.0-283.0","0","0","42798","","null","","","null","31","","NaN","","","","","","","","","","","","","",""
"","response","","html-keyboard-response","214","295712","0.0-1.0-284.0-0.0","0","0","42798","","965","","","75","31","","","1","31","training","adjacent","AB","1","2","M.jpg","L.jpg","0","1","0","",""
"","feedback","","html-keyboard-response","215","296716","0.0-1.0-285.0-0.0","0","0","42798","","null","","","null","31","","","","","","","","","","","","","","","",""
"","time_out","","html-keyboard-response","216","298721","0.0-1.0-287.0-0.0","0","0","42798","","null","","","null","31","","","","","","","","","","","","","","","",""
"","ITI","","html-keyboard-response","217","299724","0.0-1.0-288.0","0","0","42798","","null","","","null","31","","","","","","","","","","","","","","","NaN",""
"","S1","","html-keyboard-response","218","299976","0.0-1.0-290.0","0","0","42798","","null","","","null","32","","","","","","","","","","","","","","","",""
"","ISI","","html-keyboard-response","219","300977","0.0-1.0-291.0","0","0","42798","","null","","","null","32","NaN","","","","","","","","","","","","","","",""
"","S2","","html-keyboard-response","220","301229","0.0-1.0-292.0","0","0","42798","","null","","","null","32","","NaN","","","","","","","","","","","","","",""
"","response","","html-keyboard-response","221","302663","0.0-1.0-293.0-0.0","0","0","42798","","1433","","","75","32","","","1","32","training","adjacent","CB","3","2","O.jpg","L.jpg","0","0","1","",""
"","feedback","","html-keyboard-response","222","303668","0.0-1.0-294.0-0.0","0","0","42798","","null","","","null","32","","","","","","","","","","","","","","","",""
"","ITI","","html-keyboard-response","223","304685","0.0-1.0-297.0","0","0","42798","","null","","","null","32","","","","","","","","","","","","","","","NaN",""
"","S1","","html-keyboard-response","224","304936","0.0-1.0-299.0","0","0","42798","","null","","","null","33","","","","","","","","","","","","","","","",""
"","ISI","","html-keyboard-response","225","305939","0.0-1.0-300.0","0","0","42798","","null","","","null","33","NaN","","","","","","","","","","","","","","",""
"","S2","","html-keyboard-response","226","306191","0.0-1.0-301.0","0","0","42798","","null","","","null","33","","NaN","","","","","","","","","","","","","",""
"","response","","html-keyboard-response","227","307052","0.0-1.0-302.0-0.0","0","0","42798","","859","","","75","33","","","1","33","training","adjacent","EF","5","6","R.jpg","Q.jpg","0","1","0","",""
"","feedback","","html-keyboard-response","228","308055","0.0-1.0-303.0-0.0","0","0","42798","","null","","","null","33","","","","","","","","","","","","","","","",""
"","time_out","","html-keyboard-response","229","310058","0.0-1.0-305.0-0.0","0","0","42798","","null","","","null","33","","","","","","","","","","","","","","","",""
"","ITI","","html-keyboard-response","230","311060","0.0-1.0-306.0","0","0","42798","","null","","","null","33","","","","","","","","","","","","","","","NaN",""
"","S1","","html-keyboard-response","231","311313","0.0-1.0-308.0","0","0","42798","","null","","","null","34","","","","","","","","","","","","","","","",""
"","ISI","","html-keyboard-response","232","312316","0.0-1.0-309.0","0","0","42798","","null","","","null","34","NaN","","","","","","","","","","","","","","",""
"","S2","","html-keyboard-response","233","312567","0.0-1.0-310.0","0","0","42798","","null","","","null","34","","NaN","","","","","","","","","","","","","",""
"","response","","html-keyboard-response","234","313045","0.0-1.0-311.0-0.0","0","0","42798","","477","","","68","34","","","1","34","training","adjacent","ED","5","4","R.jpg","P.jpg","1","0","0","",""
"","feedback","","html-keyboard-response","235","314048","0.0-1.0-312.0-0.0","0","0","42798","","null","","","null","34","","","","","","","","","","","","","","","",""
"","time_out","","html-keyboard-response","236","316051","0.0-1.0-314.0-0.0","0","0","42798","","null","","","null","34","","","","","","","","","","","","","","","",""
"","ITI","","html-keyboard-response","237","317052","0.0-1.0-315.0","0","0","42798","","null","","","null","34","","","","","","","","","","","","","","","NaN",""
"","S1","","html-keyboard-response","238","317305","0.0-1.0-317.0","0","0","42798","","null","","","null","35","","","","","","","","","","","","","","","",""
"","ISI","","html-keyboard-response","239","318308","0.0-1.0-318.0","0","0","42798","","null","","","null","35","NaN","","","","","","","","","","","","","","",""
"","S2","","html-keyboard-response","240","318560","0.0-1.0-319.0","0","0","42798","","null","","","null","35","","NaN","","","","","","","","","","","","","",""
"","response","","html-keyboard-response","241","319773","0.0-1.0-320.0-0.0","0","0","42798","","1212","","","75","35","","","1","35","training","adjacent","DC","4","3","P.jpg","O.jpg","0","0","1","",""
"","feedback","","html-keyboard-response","242","320776","0.0-1.0-321.0-0.0","0","0","42798","","null","","","null","35","","","","","","","","","","","","","","","",""
"","ITI","","html-keyboard-response","243","321779","0.0-1.0-324.0","0","0","42798","","null","","","null","35","","","","","","","","","","","","","","","NaN",""
"","S1","","html-keyboard-response","244","322046","0.0-1.0-326.0","0","0","42798","","null","","","null","36","","","","","","","","","","","","","","","",""
"","ISI","","html-keyboard-response","245","323048","0.0-1.0-327.0","0","0","42798","","null","","","null","36","NaN","","","","","","","","","","","","","","",""
"","S2","","html-keyboard-response","246","323300","0.0-1.0-328.0","0","0","42798","","null","","","null","36","","NaN","","","","","","","","","","","","","",""
"","response","","html-keyboard-response","247","323978","0.0-1.0-329.0-0.0","0","0","42798","","677","","","75","36","","","1","36","training","adjacent","DE","4","5","P.jpg","R.jpg","0","1","0","",""
"","feedback","","html-keyboard-response","248","324981","0.0-1.0-330.0-0.0","0","0","42798","","null","","","null","36","","","","","","","","","","","","","","","",""
"","time_out","","html-keyboard-response","249","326983","0.0-1.0-332.0-0.0","0","0","42798","","null","","","null","36","","","","","","","","","","","","","","","",""
"","ITI","","html-keyboard-response","250","327985","0.0-1.0-333.0","0","0","42798","","null","","","null","36","","","","","","","","","","","","","","","NaN",""
"","S1","","html-keyboard-response","251","328238","0.0-1.0-335.0","0","0","42798","","null","","","null","37","","","","","","","","","","","","","","","",""
"","ISI","","html-keyboard-response","252","329241","0.0-1.0-336.0","0","0","42798","","null","","","null","37","NaN","","","","","","","","","","","","","","",""
"","S2","","html-keyboard-response","253","329493","0.0-1.0-337.0","0","0","42798","","null","","","null","37","","NaN","","","","","","","","","","","","","",""
"","response","","html-keyboard-response","254","330037","0.0-1.0-338.0-0.0","0","0","42798","","543","","","68","37","","","1","37","training","adjacent","CB","3","2","O.jpg","L.jpg","1","0","0","",""
"","feedback","","html-keyboard-response","255","331040","0.0-1.0-339.0-0.0","0","0","42798","","null","","","null","37","","","","","","","","","","","","","","","",""
"","time_out","","html-keyboard-response","256","333043","0.0-1.0-341.0-0.0","0","0","42798","","null","","","null","37","","","","","","","","","","","","","","","",""
"","ITI","","html-keyboard-response","257","334045","0.0-1.0-342.0","0","0","42798","","null","","","null","37","","","","","","","","","","","","","","","NaN",""
"","S1","","html-keyboard-response","258","334297","0.0-1.0-344.0","0","0","42798","","null","","","null","38","","","","","","","","","","","","","","","",""
"","ISI","","html-keyboard-response","259","335299","0.0-1.0-345.0","0","0","42798","","null","","","null","38","NaN","","","","","","","","","","","","","","",""
"","S2","","html-keyboard-response","260","335552","0.0-1.0-346.0","0","0","42798","","null","","","null","38","","NaN","","","","","","","","","","","","","",""
"","response","","html-keyboard-response","261","336532","0.0-1.0-347.0-0.0","0","0","42798","","978","","","75","38","","","1","38","training","adjacent","AB","1","2","M.jpg","L.jpg","0","1","0","",""
"","feedback","","html-keyboard-response","262","337533","0.0-1.0-348.0-0.0","0","0","42798","","null","","","null","38","","","","","","","","","","","","","","","",""
"","time_out","","html-keyboard-response","263","339535","0.0-1.0-350.0-0.0","0","0","42798","","null","","","null","38","","","","","","","","","","","","","","","",""
"","ITI","","html-keyboard-response","264","340537","0.0-1.0-351.0","0","0","42798","","null","","","null","38","","","","","","","","","","","","","","","NaN",""
"","S1","","html-keyboard-response","265","340791","0.0-1.0-353.0","0","0","42798","","null","","","null","39","","","","","","","","","","","","","","","",""
"","ISI","","html-keyboard-response","266","341794","0.0-1.0-354.0","0","0","42798","","null","","","null","39","NaN","","","","","","","","","","","","","","",""
"","S2","","html-keyboard-response","267","342047","0.0-1.0-355.0","0","0","42798","","null","","","null","39","","NaN","","","","","","","","","","","","","",""
"","response","","html-keyboard-response","268","343798","0.0-1.0-356.0-0.0","0","0","42798","","null","","","null","39","","","1","39","training","adjacent","EF","5","6","R.jpg","Q.jpg","NaN","1","0","",""
"","too_slow_prompt","","html-keyboard-response","269","344801","0.0-1.0-358.0-0.0","1","0","42798","","null","","","null","","","","","","","","","","","","","","","","",""
"","time_out","","html-keyboard-response","270","346803","0.0-1.0-359.0-0.0","0","0","42798","","null","","","null","39","","","","","","","","","","","","","","","",""
"","ITI","","html-keyboard-response","271","347805","0.0-1.0-360.0","0","0","42798","","null","","","null","39","","","","","","","","","","","","","","","NaN",""
"","S1","","html-keyboard-response","272","348057","0.0-1.0-362.0","0","0","42798","","null","","","null","40","","","","","","","","","","","","","","","",""
"","ISI","","html-keyboard-response","273","349059","0.0-1.0-363.0","0","0","42798","","null","","","null","40","NaN","","","","","","","","","","","","","","",""
"","S2","","html-keyboard-response","274","349312","0.0-1.0-364.0","0","0","42798","","null","","","null","40","","NaN","","","","","","","","","","","","","",""
"","response","","html-keyboard-response","275","350100","0.0-1.0-365.0-0.0","0","0","42798","","785","","","68","40","","","1","40","training","adjacent","GF","7","6","N.jpg","Q.jpg","1","0","0","",""
"","feedback","","html-keyboard-response","276","351102","0.0-1.0-366.0-0.0","0","0","42798","","null","","","null","40","","","","","","","","","","","","","","","",""
"","time_out","","html-keyboard-response","277","353104","0.0-1.0-368.0-0.0","0","0","42798","","null","","","null","40","","","","","","","","","","","","","","","",""
"","ITI","","html-keyboard-response","278","354107","0.0-1.0-369.0","0","0","42798","","null","","","null","40","","","","","","","","","","","","","","","NaN",""
"","S1","","html-keyboard-response","279","354359","0.0-1.0-371.0","0","0","42798","","null","","","null","41","","","","","","","","","","","","","","","",""
"","ISI","","html-keyboard-response","280","355361","0.0-1.0-372.0","0","0","42798","","null","","","null","41","NaN","","","","","","","","","","","","","","",""
"","S2","","html-keyboard-response","281","355614","0.0-1.0-373.0","0","0","42798","","null","","","null","41","","NaN","","","","","","","","","","","","","",""
"","response","","html-keyboard-response","282","357149","0.0-1.0-374.0-0.0","0","0","42798","","1534","","","75","41","","","1","41","training","adjacent","BA","2","1","L.jpg","M.jpg","0","0","1","",""
"","feedback","","html-keyboard-response","283","358152","0.0-1.0-375.0-0.0","0","0","42798","","null","","","null","41","","","","","","","","","","","","","","","",""
"","ITI","","html-keyboard-response","284","359154","0.0-1.0-378.0","0","0","42798","","null","","","null","41","","","","","","","","","","","","","","","NaN",""
"","S1","","html-keyboard-response","285","359407","0.0-1.0-380.0","0","0","42798","","null","","","null","42","","","","","","","","","","","","","","","",""
"","ISI","","html-keyboard-response","286","360409","0.0-1.0-381.0","0","0","42798","","null","","","null","42","NaN","","","","","","","","","","","","","","",""
"","S2","","html-keyboard-response","287","360662","0.0-1.0-382.0","0","0","42798","","null","","","null","42","","NaN","","","","","","","","","","","","","",""
"","response","","html-keyboard-response","288","361794","0.0-1.0-383.0-0.0","0","0","42798","","1131","","","75","42","","","1","42","training","adjacent","FE","6","5","Q.jpg","R.jpg","0","0","1","",""
"","feedback","","html-keyboard-response","289","362796","0.0-1.0-384.0-0.0","0","0","42798","","null","","","null","42","","","","","","","","","","","","","","","",""
"","ITI","","html-keyboard-response","290","363798","0.0-1.0-387.0","0","0","42798","","null","","","null","42","","","","","","","","","","","","","","","NaN",""
"","S1","","html-keyboard-response","291","364050","0.0-1.0-389.0","0","0","42798","","null","","","null","43","","","","","","","","","","","","","","","",""
"","ISI","","html-keyboard-response","292","365053","0.0-1.0-390.0","0","0","42798","","null","","","null","43","NaN","","","","","","","","","","","","","","",""
"","S2","","html-keyboard-response","293","365306","0.0-1.0-391.0","0","0","42798","","null","","","null","43","","NaN","","","","","","","","","","","","","",""
"","response","","html-keyboard-response","294","366404","0.0-1.0-392.0-0.0","0","0","42798","","1097","","","68","43","","","1","43","training","adjacent","FE","6","5","Q.jpg","R.jpg","1","0","0","",""
"","feedback","","html-keyboard-response","295","367407","0.0-1.0-393.0-0.0","0","0","42798","","null","","","null","43","","","","","","","","","","","","","","","",""
"","time_out","","html-keyboard-response","296","369409","0.0-1.0-395.0-0.0","0","0","42798","","null","","","null","43","","","","","","","","","","","","","","","",""
"","ITI","","html-keyboard-response","297","370412","0.0-1.0-396.0","0","0","42798","","null","","","null","43","","","","","","","","","","","","","","","NaN",""
"","S1","","html-keyboard-response","298","370664","0.0-1.0-398.0","0","0","42798","","null","","","null","44","","","","","","","","","","","","","","","",""
"","ISI","","html-keyboard-response","299","371666","0.0-1.0-399.0","0","0","42798","","null","","","null","44","NaN","","","","","","","","","","","","","","",""
"","S2","","html-keyboard-response","300","371919","0.0-1.0-400.0","0","0","42798","","null","","","null","44","","NaN","","","","","","","","","","","","","",""
"","response","","html-keyboard-response","301","373358","0.0-1.0-401.0-0.0","0","0","42798","","1439","","","75","44","","","1","44","training","adjacent","DC","4","3","P.jpg","O.jpg","0","0","1","",""
"","feedback","","html-keyboard-response","302","374361","0.0-1.0-402.0-0.0","0","0","42798","","null","","","null","44","","","","","","","","","","","","","","","",""
"","ITI","","html-keyboard-response","303","375365","0.0-1.0-405.0","0","0","42798","","null","","","null","44","","","","","","","","","","","","","","","NaN",""
"","S1","","html-keyboard-response","304","375619","0.0-1.0-407.0","0","0","42798","","null","","","null","45","","","","","","","","","","","","","","","",""
"","ISI","","html-keyboard-response","305","376624","0.0-1.0-408.0","0","0","42798","","null","","","null","45","NaN","","","","","","","","","","","","","","",""
"","S2","","html-keyboard-response","306","376877","0.0-1.0-409.0","0","0","42798","","null","","","null","45","","NaN","","","","","","","","","","","","","",""
"","response","","html-keyboard-response","307","377659","0.0-1.0-410.0-0.0","0","0","42798","","779","","","75","45","","","1","45","training","adjacent","BC","2","3","L.jpg","O.jpg","0","1","0","",""
"","feedback","","html-keyboard-response","308","378663","0.0-1.0-411.0-0.0","0","0","42798","","null","","","null","45","","","","","","","","","","","","","","","",""
"","time_out","","html-keyboard-response","309","380665","0.0-1.0-413.0-0.0","0","0","42798","","null","","","null","45","","","","","","","","","","","","","","","",""
"","ITI","","html-keyboard-response","310","381667","0.0-1.0-414.0","0","0","42798","","null","","","null","45","","","","","","","","","","","","","","","NaN",""
"","S1","","html-keyboard-response","311","381919","0.0-1.0-416.0","0","0","42798","","null","","","null","46","","","","","","","","","","","","","","","",""
"","ISI","","html-keyboard-response","312","382921","0.0-1.0-417.0","0","0","42798","","null","","","null","46","NaN","","","","","","","","","","","","","","",""
"","S2","","html-keyboard-response","313","383173","0.0-1.0-418.0","0","0","42798","","null","","","null","46","","NaN","","","","","","","","","","","","","",""
"","response","","html-keyboard-response","314","384137","0.0-1.0-419.0-0.0","0","0","42798","","963","","","68","46","","","1","46","training","adjacent","EF","5","6","R.jpg","Q.jpg","1","1","1","",""
"","feedback","","html-keyboard-response","315","385139","0.0-1.0-420.0-0.0","0","0","42798","","null","","","null","46","","","","","","","","","","","","","","","",""
"","ITI","","html-keyboard-response","316","386142","0.0-1.0-423.0","0","0","42798","","null","","","null","46","","","","","","","","","","","","","","","NaN",""
"","S1","","html-keyboard-response","317","386394","0.0-1.0-425.0","0","0","42798","","null","","","null","47","","","","","","","","","","","","","","","",""
"","ISI","","html-keyboard-response","318","387396","0.0-1.0-426.0","0","0","42798","","null","","","null","47","NaN","","","","","","","","","","","","","","",""
"","S2","","html-keyboard-response","319","387649","0.0-1.0-427.0","0","0","42798","","null","","","null","47","","NaN","","","","","","","","","","","","","",""
"","response","","html-keyboard-response","320","389402","0.0-1.0-428.0-0.0","0","0","42798","","null","","","null","47","","","1","47","training","adjacent","CB","3","2","O.jpg","L.jpg","NaN","0","0","",""
"","too_slow_prompt","","html-keyboard-response","321","390406","0.0-1.0-430.0-0.0","1","0","42798","","null","","","null","","","","","","","","","","","","","","","","",""
"","time_out","","html-keyboard-response","322","392408","0.0-1.0-431.0-0.0","0","0","42798","","null","","","null","47","","","","","","","","","","","","","","","",""
"","ITI","","html-keyboard-response","323","393411","0.0-1.0-432.0","0","0","42798","","null","","","null","47","","","","","","","","","","","","","","","NaN",""
"","block_over","","html-keyboard-response","324","398840","0.0-1.0-433.0-0.0","0","0","42798","","5426","","","32","47","","","","","","","","","","","","","","","",""
"","S1","","html-keyboard-response","325","399093","0.0-1.0-434.0","0","0","42798","","null","","","null","48","","","","","","","","","","","","","","","",""
"","ISI","","html-keyboard-response","326","400096","0.0-1.0-435.0","0","0","42798","","null","","","null","48","NaN","","","","","","","","","","","","","","",""
"","S2","","html-keyboard-response","327","400350","0.0-1.0-436.0","0","0","42798","","null","","","null","48","","NaN","","","","","","","","","","","","","",""
"","response","","html-keyboard-response","328","401299","0.0-1.0-437.0-0.0","0","0","42798","","947","","","68","48","","","2","48","training","adjacent","DC","4","3","P.jpg","O.jpg","1","0","0","",""
"","feedback","","html-keyboard-response","329","402302","0.0-1.0-438.0-0.0","0","0","42798","","null","","","null","48","","","","","","","","","","","","","","","",""
"","time_out","","html-keyboard-response","330","404306","0.0-1.0-440.0-0.0","0","0","42798","","null","","","null","48","","","","","","","","","","","","","","","",""
"","ITI","","html-keyboard-response","331","405310","0.0-1.0-441.0","0","0","42798","","null","","","null","48","","","","","","","","","","","","","","","NaN",""
"","S1","","html-keyboard-response","332","405563","0.0-1.0-443.0","0","0","42798","","null","","","null","49","","","","","","","","","","","","","","","",""
"","ISI","","html-keyboard-response","333","406565","0.0-1.0-444.0","0","0","42798","","null","","","null","49","NaN","","","","","","","","","","","","","","",""
"","S2","","html-keyboard-response","334","406818","0.0-1.0-445.0","0","0","42798","","null","","","null","49","","NaN","","","","","","","","","","","","","",""
"","response","","html-keyboard-response","335","407248","0.0-1.0-446.0-0.0","0","0","42798","","428","","","68","49","","","2","49","training","adjacent","FE","6","5","Q.jpg","R.jpg","1","0","0","",""
"","feedback","","html-keyboard-response","336","408251","0.0-1.0-447.0-0.0","0","0","42798","","null","","","null","49","","","","","","","","","","","","","","","",""
"","time_out","","html-keyboard-response","337","410255","0.0-1.0-449.0-0.0","0","0","42798","","null","","","null","49","","","","","","","","","","","","","","","",""
"","ITI","","html-keyboard-response","338","411257","0.0-1.0-450.0","0","0","42798","","null","","","null","49","","","","","","","","","","","","","","","NaN",""
"","S1","","html-keyboard-response","339","411510","0.0-1.0-452.0","0","0","42798","","null","","","null","50","","","","","","","","","","","","","","","",""
"","ISI","","html-keyboard-response","340","412512","0.0-1.0-453.0","0","0","42798","","null","","","null","50","NaN","","","","","","","","","","","","","","",""
"","S2","","html-keyboard-response","341","412764","0.0-1.0-454.0","0","0","42798","","null","","","null","50","","NaN","","","","","","","","","","","","","",""
"","response","","html-keyboard-response","342","413688","0.0-1.0-455.0-0.0","0","0","42798","","922","","","75","50","","","2","50","training","adjacent","BA","2","1","L.jpg","M.jpg","0","0","1","",""
"","feedback","","html-keyboard-response","343","414693","0.0-1.0-456.0-0.0","0","0","42798","","null","","","null","50","","","","","","","","","","","","","","","",""
"","ITI","","html-keyboard-response","344","415698","0.0-1.0-459.0","0","0","42798","","null","","","null","50","","","","","","","","","","","","","","","NaN",""
"","S1","","html-keyboard-response","345","415950","0.0-1.0-461.0","0","0","42798","","null","","","null","51","","","","","","","","","","","","","","","",""
"","ISI","","html-keyboard-response","346","416954","0.0-1.0-462.0","0","0","42798","","null","","","null","51","NaN","","","","","","","","","","","","","","",""
"","S2","","html-keyboard-response","347","417207","0.0-1.0-463.0","0","0","42798","","null","","","null","51","","NaN","","","","","","","","","","","","","",""
"","response","","html-keyboard-response","348","418609","0.0-1.0-464.0-0.0","0","0","42798","","1400","","","75","51","","","2","51","training","adjacent","FE","6","5","Q.jpg","R.jpg","0","0","1","",""
"","feedback","","html-keyboard-response","349","419611","0.0-1.0-465.0-0.0","0","0","42798","","null","","","null","51","","","","","","","","","","","","","","","",""
"","ITI","","html-keyboard-response","350","420614","0.0-1.0-468.0","0","0","42798","","null","","","null","51","","","","","","","","","","","","","","","NaN",""
"","S1","","html-keyboard-response","351","420867","0.0-1.0-470.0","0","0","42798","","null","","","null","52","","","","","","","","","","","","","","","",""
"","ISI","","html-keyboard-response","352","421869","0.0-1.0-471.0","0","0","42798","","null","","","null","52","NaN","","","","","","","","","","","","","","",""
"","S2","","html-keyboard-response","353","422122","0.0-1.0-472.0","0","0","42798","","null","","","null","52","","NaN","","","","","","","","","","","","","",""
"","response","","html-keyboard-response","354","422733","0.0-1.0-473.0-0.0","0","0","42798","","608","","","68","52","","","2","52","training","adjacent","GF","7","6","N.jpg","Q.jpg","1","0","0","",""
"","feedback","","html-keyboard-response","355","423736","0.0-1.0-474.0-0.0","0","0","42798","","null","","","null","52","","","","","","","","","","","","","","","",""
"","time_out","","html-keyboard-response","356","425740","0.0-1.0-476.0-0.0","0","0","42798","","null","","","null","52","","","","","","","","","","","","","","","",""
"","ITI","","html-keyboard-response","357","426742","0.0-1.0-477.0","0","0","42798","","null","","","null","52","","","","","","","","","","","","","","","NaN",""
"","S1","","html-keyboard-response","358","426995","0.0-1.0-479.0","0","0","42798","","null","","","null","53","","","","","","","","","","","","","","","",""
"","ISI","","html-keyboard-response","359","427998","0.0-1.0-480.0","0","0","42798","","null","","","null","53","NaN","","","","","","","","","","","","","","",""
"","S2","","html-keyboard-response","360","428251","0.0-1.0-481.0","0","0","42798","","null","","","null","53","","NaN","","","","","","","","","","","","","",""
"","response","","html-keyboard-response","361","428968","0.0-1.0-482.0-0.0","0","0","42798","","715","","","68","53","","","2","53","training","adjacent","CD","3","4","O.jpg","P.jpg","1","1","1","",""
"","feedback","","html-keyboard-response","362","429970","0.0-1.0-483.0-0.0","0","0","42798","","null","","","null","53","","","","","","","","","","","","","","","",""
"","ITI","","html-keyboard-response","363","430972","0.0-1.0-486.0","0","0","42798","","null","","","null","53","","","","","","","","","","","","","","","NaN",""
"","S1","","html-keyboard-response","364","431226","0.0-1.0-488.0","0","0","42798","","null","","","null","54","","","","","","","","","","","","","","","",""
"","ISI","","html-keyboard-response","365","432231","0.0-1.0-489.0","0","0","42798","","null","","","null","54","NaN","","","","","","","","","","","","","","",""
"","S2","","html-keyboard-response","366","432486","0.0-1.0-490.0","0","0","42798","","null","","","null","54","","NaN","","","","","","","","","","","","","",""
"","response","","html-keyboard-response","367","433594","0.0-1.0-491.0-0.0","0","0","42798","","1105","","","75","54","","","2","54","training","adjacent","CD","3","4","O.jpg","P.jpg","0","1","0","",""
"","feedback","","html-keyboard-response","368","434597","0.0-1.0-492.0-0.0","0","0","42798","","null","","","null","54","","","","","","","","","","","","","","","",""
"","time_out","","html-keyboard-response","369","436600","0.0-1.0-494.0-0.0","0","0","42798","","null","","","null","54","","","","","","","","","","","","","","","",""
"","ITI","","html-keyboard-response","370","437602","0.0-1.0-495.0","0","0","42798","","null","","","null","54","","","","","","","","","","","","","","","NaN",""
"","S1","","html-keyboard-response","371","437856","0.0-1.0-497.0","0","0","42798","","null","","","null","55","","","","","","","","","","","","","","","",""
"","ISI","","html-keyboard-response","372","438860","0.0-1.0-498.0","0","0","42798","","null","","","null","55","NaN","","","","","","","","","","","","","","",""
"","S2","","html-keyboard-response","373","439114","0.0-1.0-499.0","0","0","42798","","null","","","null","55","","NaN","","","","","","","","","","","","","",""
"","response","","html-keyboard-response","374","440126","0.0-1.0-500.0-0.0","0","0","42798","","1009","","","75","55","","","2","55","training","adjacent","BC","2","3","L.jpg","O.jpg","0","1","0","",""
"","feedback","","html-keyboard-response","375","441130","0.0-1.0-501.0-0.0","0","0","42798","","null","","","null","55","","","","","","","","","","","","","","","",""
"","time_out","","html-keyboard-response","376","443132","0.0-1.0-503.0-0.0","0","0","42798","","null","","","null","55","","","","","","","","","","","","","","","",""
"","ITI","","html-keyboard-response","377","444135","0.0-1.0-504.0","0","0","42798","","null","","","null","55","","","","","","","","","","","","","","","NaN",""
"","S1","","html-keyboard-response","378","444388","0.0-1.0-506.0","0","0","42798","","null","","","null","56","","","","","","","","","","","","","","","",""
"","ISI","","html-keyboard-response","379","445390","0.0-1.0-507.0","0","0","42798","","null","","","null","56","NaN","","","","","","","","","","","","","","",""
"","S2","","html-keyboard-response","380","445643","0.0-1.0-508.0","0","0","42798","","null","","","null","56","","NaN","","","","","","","","","","","","","",""
"","response","","html-keyboard-response","381","446377","0.0-1.0-509.0-0.0","0","0","42798","","732","","","68","56","","","2","56","training","adjacent","DC","4","3","P.jpg","O.jpg","1","0","0","",""
"","feedback","","html-keyboard-response","382","447380","0.0-1.0-510.0-0.0","0","0","42798","","null","","","null","56","","","","","","","","","","","","","","","",""
"","time_out","","html-keyboard-response","383","449383","0.0-1.0-512.0-0.0","0","0","42798","","null","","","null","56","","","","","","","","","","","","","","","",""
"","ITI","","html-keyboard-response","384","450385","0.0-1.0-513.0","0","0","42798","","null","","","null","56","","","","","","","","","","","","","","","NaN",""
"","S1","","html-keyboard-response","385","450638","0.0-1.0-515.0","0","0","42798","","null","","","null","57","","","","","","","","","","","","","","","",""
"","ISI","","html-keyboard-response","386","451642","0.0-1.0-516.0","0","0","42798","","null","","","null","57","NaN","","","","","","","","","","","","","","",""
"","S2","","html-keyboard-response","387","451895","0.0-1.0-517.0","0","0","42798","","null","","","null","57","","NaN","","","","","","","","","","","","","",""
"","response","","html-keyboard-response","388","452150","0.0-1.0-518.0-0.0","0","0","42798","","251","","","75","57","","","2","57","training","adjacent","EF","5","6","R.jpg","Q.jpg","0","1","0","",""
"","feedback","","html-keyboard-response","389","453153","0.0-1.0-519.0-0.0","0","0","42798","","null","","","null","57","","","","","","","","","","","","","","","",""
"","time_out","","html-keyboard-response","390","455157","0.0-1.0-521.0-0.0","0","0","42798","","null","","","null","57","","","","","","","","","","","","","","","",""
"","ITI","","html-keyboard-response","391","456159","0.0-1.0-522.0","0","0","42798","","null","","","null","57","","","","","","","","","","","","","","","NaN",""
"","S1","","html-keyboard-response","392","456413","0.0-1.0-524.0","0","0","42798","","null","","","null","58","","","","","","","","","","","","","","","",""
"","ISI","","html-keyboard-response","393","457416","0.0-1.0-525.0","0","0","42798","","null","","","null","58","NaN","","","","","","","","","","","","","","",""
"","S2","","html-keyboard-response","394","457664","0.0-1.0-526.0","0","0","42798","","246","","","68","58","","d","2","58","training","adjacent","CB","3","2","O.jpg","L.jpg","1","0","0","",""
"","feedback","","html-keyboard-response","395","458667","0.0-1.0-528.0-0.0","0","0","42798","","null","","","null","58","","","","","","","","","","","","","","","",""
"","time_out","","html-keyboard-response","396","460670","0.0-1.0-530.0-0.0","0","0","42798","","null","","","null","58","","","","","","","","","","","","","","","",""
"","ITI","","html-keyboard-response","397","461673","0.0-1.0-531.0","0","0","42798","","null","","","null","58","","","","","","","","","","","","","","","NaN",""
"","S1","","html-keyboard-response","398","461925","0.0-1.0-533.0","0","0","42798","","null","","","null","59","","","","","","","","","","","","","","","",""
"","ISI","","html-keyboard-response","399","462928","0.0-1.0-534.0","0","0","42798","","null","","","null","59","NaN","","","","","","","","","","","","","","",""
"","S2","","html-keyboard-response","400","463181","0.0-1.0-535.0","0","0","42798","","null","","","null","59","","NaN","","","","","","","","","","","","","",""
"","response","","html-keyboard-response","401","464129","0.0-1.0-536.0-0.0","0","0","42798","","947","","","68","59","","","2","59","training","adjacent","BA","2","1","L.jpg","M.jpg","1","0","0","",""
"","feedback","","html-keyboard-response","402","465132","0.0-1.0-537.0-0.0","0","0","42798","","null","","","null","59","","","","","","","","","","","","","","","",""
"","time_out","","html-keyboard-response","403","467135","0.0-1.0-539.0-0.0","0","0","42798","","null","","","null","59","","","","","","","","","","","","","","","",""
"","ITI","","html-keyboard-response","404","468138","0.0-1.0-540.0","0","0","42798","","null","","","null","59","","","","","","","","","","","","","","","NaN",""
"","S1","","html-keyboard-response","405","468390","0.0-1.0-542.0","0","0","42798","","null","","","null","60","","","","","","","","","","","","","","","",""
"","ISI","","html-keyboard-response","406","469394","0.0-1.0-543.0","0","0","42798","","null","","","null","60","NaN","","","","","","","","","","","","","","",""
"","S2","","html-keyboard-response","407","469646","0.0-1.0-544.0","0","0","42798","","null","","","null","60","","NaN","","","","","","","","","","","","","",""
"","response","","html-keyboard-response","408","469897","0.0-1.0-545.0-0.0","0","0","42798","","250","","","68","60","","","2","60","training","adjacent","ED","5","4","R.jpg","P.jpg","1","0","0","",""
"","feedback","","html-keyboard-response","409","470901","0.0-1.0-546.0-0.0","0","0","42798","","null","","","null","60","","","","","","","","","","","","","","","",""
"","time_out","","html-keyboard-response","410","472904","0.0-1.0-548.0-0.0","0","0","42798","","null","","","null","60","","","","","","","","","","","","","","","",""
"","ITI","","html-keyboard-response","411","473908","0.0-1.0-549.0","0","0","42798","","null","","","null","60","","","","","","","","","","","","","","","NaN",""
"","S1","","html-keyboard-response","412","474160","0.0-1.0-551.0","0","0","42798","","null","","","null","61","","","","","","","","","","","","","","","",""
"","ISI","","html-keyboard-response","413","475163","0.0-1.0-552.0","0","0","42798","","null","","","null","61","NaN","","","","","","","","","","","","","","",""
"","S2","","html-keyboard-response","414","475416","0.0-1.0-553.0","0","0","42798","","null","","","null","61","","NaN","","","","","","","","","","","","","",""
"","response","","html-keyboard-response","415","476288","0.0-1.0-554.0-0.0","0","0","42798","","869","","","75","61","","","2","61","training","adjacent","CB","3","2","O.jpg","L.jpg","0","0","1","",""
"","feedback","","html-keyboard-response","416","477300","0.0-1.0-555.0-0.0","0","0","42798","","null","","","null","61","","","","","","","","","","","","","","","",""
"","ITI","","html-keyboard-response","417","478305","0.0-1.0-558.0","0","0","42798","","null","","","null","61","","","","","","","","","","","","","","","NaN",""
"","S1","","html-keyboard-response","418","478558","0.0-1.0-560.0","0","0","42798","","null","","","null","62","","","","","","","","","","","","","","","",""
"","ISI","","html-keyboard-response","419","479560","0.0-1.0-561.0","0","0","42798","","null","","","null","62","NaN","","","","","","","","","","","","","","",""
"","S2","","html-keyboard-response","420","479816","0.0-1.0-562.0","0","0","42798","","null","","","null","62","","NaN","","","","","","","","","","","","","",""
"","response","","html-keyboard-response","421","480817","0.0-1.0-563.0-0.0","0","0","42798","","999","","","75","62","","","2","62","training","adjacent","DC","4","3","P.jpg","O.jpg","0","0","1","",""
"","feedback","","html-keyboard-response","422","481820","0.0-1.0-564.0-0.0","0","0","42798","","null","","","null","62","","","","","","","","","","","","","","","",""
"","ITI","","html-keyboard-response","423","482823","0.0-1.0-567.0","0","0","42798","","null","","","null","62","","","","","","","","","","","","","","","NaN",""
"","S1","","html-keyboard-response","424","483076","0.0-1.0-569.0","0","0","42798","","null","","","null","63","","","","","","","","","","","","","","","",""
"","ISI","","html-keyboard-response","425","484078","0.0-1.0-570.0","0","0","42798","","null","","","null","63","NaN","","","","","","","","","","","","","","",""
"","S2","","html-keyboard-response","426","484330","0.0-1.0-571.0","0","0","42798","","null","","","null","63","","NaN","","","","","","","","","","","","","",""
"","response","","html-keyboard-response","427","485034","0.0-1.0-572.0-0.0","0","0","42798","","702","","","75","63","","","2","63","training","adjacent","DE","4","5","P.jpg","R.jpg","0","1","0","",""
"","feedback","","html-keyboard-response","428","486037","0.0-1.0-573.0-0.0","0","0","42798","","null","","","null","63","","","","","","","","","","","","","","","",""
"","time_out","","html-keyboard-response","429","488040","0.0-1.0-575.0-0.0","0","0","42798","","null","","","null","63","","","","","","","","","","","","","","","",""
"","ITI","","html-keyboard-response","430","489042","0.0-1.0-576.0","0","0","42798","","null","","","null","63","","","","","","","","","","","","","","","NaN",""
"","S1","","html-keyboard-response","431","489296","0.0-1.0-578.0","0","0","42798","","null","","","null","64","","","","","","","","","","","","","","","",""
"","ISI","","html-keyboard-response","432","490299","0.0-1.0-579.0","0","0","42798","","null","","","null","64","NaN","","","","","","","","","","","","","","",""
"","S2","","html-keyboard-response","433","490556","0.0-1.0-580.0","0","0","42798","","null","","","null","64","","NaN","","","","","","","","","","","","","",""
"","response","","html-keyboard-response","434","491483","0.0-1.0-581.0-0.0","0","0","42798","","925","","","75","64","","","2","64","training","adjacent","BA","2","1","L.jpg","M.jpg","0","0","1","",""
"","feedback","","html-keyboard-response","435","492486","0.0-1.0-582.0-0.0","0","0","42798","","null","","","null","64","","","","","","","","","","","","","","","",""
"","ITI","","html-keyboard-response","436","493488","0.0-1.0-585.0","0","0","42798","","null","","","null","64","","","","","","","","","","","","","","","NaN",""
"","S1","","html-keyboard-response","437","493740","0.0-1.0-587.0","0","0","42798","","null","","","null","65","","","","","","","","","","","","","","","",""
"","ISI","","html-keyboard-response","438","494742","0.0-1.0-588.0","0","0","42798","","null","","","null","65","NaN","","","","","","","","","","","","","","",""
"","S2","","html-keyboard-response","439","494996","0.0-1.0-589.0","0","0","42798","","null","","","null","65","","NaN","","","","","","","","","","","","","",""
"","response","","html-keyboard-response","440","495508","0.0-1.0-590.0-0.0","0","0","42798","","510","","","75","65","","","2","65","training","adjacent","FE","6","5","Q.jpg","R.jpg","0","0","1","",""
"","feedback","","html-keyboard-response","441","496511","0.0-1.0-591.0-0.0","0","0","42798","","null","","","null","65","","","","","","","","","","","","","","","",""
"","ITI","","html-keyboard-response","442","497513","0.0-1.0-594.0","0","0","42798","","null","","","null","65","","","","","","","","","","","","","","","NaN",""
"","S1","","html-keyboard-response","443","497768","0.0-1.0-596.0","0","0","42798","","null","","","null","66","","","","","","","","","","","","","","","",""
"","ISI","","html-keyboard-response","444","498772","0.0-1.0-597.0","0","0","42798","","null","","","null","66","NaN","","","","","","","","","","","","","","",""
"","S2","","html-keyboard-response","445","499025","0.0-1.0-598.0","0","0","42798","","null","","","null","66","","NaN","","","","","","","","","","","","","",""
"","response","","html-keyboard-response","446","499325","0.0-1.0-599.0-0.0","0","0","42798","","299","","","68","66","","","2","66","training","adjacent","GF","7","6","N.jpg","Q.jpg","1","0","0","",""
"","feedback","","html-keyboard-response","447","500327","0.0-1.0-600.0-0.0","0","0","42798","","null","","","null","66","","","","","","","","","","","","","","","",""
"","time_out","","html-keyboard-response","448","502331","0.0-1.0-602.0-0.0","0","0","42798","","null","","","null","66","","","","","","","","","","","","","","","",""
"","ITI","","html-keyboard-response","449","503333","0.0-1.0-603.0","0","0","42798","","null","","","null","66","","","","","","","","","","","","","","","NaN",""
"","S1","","html-keyboard-response","450","503586","0.0-1.0-605.0","0","0","42798","","null","","","null","67","","","","","","","","","","","","","","","",""
"","ISI","","html-keyboard-response","451","504588","0.0-1.0-606.0","0","0","42798","","null","","","null","67","NaN","","","","","","","","","","","","","","",""
"","S2","","html-keyboard-response","452","504847","0.0-1.0-607.0","0","0","42798","","null","","","null","67","","NaN","","","","","","","","","","","","","",""
"","response","","html-keyboard-response","453","505118","0.0-1.0-608.0-0.0","0","0","42798","","269","","","75","67","","","2","67","training","adjacent","EF","5","6","R.jpg","Q.jpg","0","1","0","",""
"","feedback","","html-keyboard-response","454","506120","0.0-1.0-609.0-0.0","0","0","42798","","null","","","null","67","","","","","","","","","","","","","","","",""
"","time_out","","html-keyboard-response","455","508123","0.0-1.0-611.0-0.0","0","0","42798","","null","","","null","67","","","","","","","","","","","","","","","",""
"","ITI","","html-keyboard-response","456","509124","0.0-1.0-612.0","0","0","42798","","null","","","null","67","","","","","","","","","","","","","","","NaN",""
"","S1","","html-keyboard-response","457","509376","0.0-1.0-614.0","0","0","42798","","null","","","null","68","","","","","","","","","","","","","","","",""
"","ISI","","html-keyboard-response","458","510379","0.0-1.0-615.0","0","0","42798","","null","","","null","68","NaN","","","","","","","","","","","","","","",""
"","S2","","html-keyboard-response","459","510631","0.0-1.0-616.0","0","0","42798","","null","","","null","68","","NaN","","","","","","","","","","","","","",""
"","response","","html-keyboard-response","460","512102","0.0-1.0-617.0-0.0","0","0","42798","","1469","","","75","68","","","2","68","training","adjacent","FE","6","5","Q.jpg","R.jpg","0","0","1","",""
"","feedback","","html-keyboard-response","461","513104","0.0-1.0-618.0-0.0","0","0","42798","","null","","","null","68","","","","","","","","","","","","","","","",""
"","ITI","","html-keyboard-response","462","514108","0.0-1.0-621.0","0","0","42798","","null","","","null","68","","","","","","","","","","","","","","","NaN",""
"","S1","","html-keyboard-response","463","514360","0.0-1.0-623.0","0","0","42798","","null","","","null","69","","","","","","","","","","","","","","","",""
"","ISI","","html-keyboard-response","464","515363","0.0-1.0-624.0","0","0","42798","","null","","","null","69","NaN","","","","","","","","","","","","","","",""
"","S2","","html-keyboard-response","465","515615","0.0-1.0-625.0","0","0","42798","","null","","","null","69","","NaN","","","","","","","","","","","","","",""
"","response","","html-keyboard-response","466","517223","0.0-1.0-626.0-0.0","0","0","42798","","1606","","","68","69","","","2","69","training","adjacent","EF","5","6","R.jpg","Q.jpg","1","1","1","",""
"","feedback","","html-keyboard-response","467","518225","0.0-1.0-627.0-0.0","0","0","42798","","null","","","null","69","","","","","","","","","","","","","","","",""
"","ITI","","html-keyboard-response","468","519229","0.0-1.0-630.0","0","0","42798","","null","","","null","69","","","","","","","","","","","","","","","NaN",""
"","S1","","html-keyboard-response","469","519483","0.0-1.0-632.0","0","0","42798","","null","","","null","70","","","","","","","","","","","","","","","",""
"","ISI","","html-keyboard-response","470","520486","0.0-1.0-633.0","0","0","42798","","null","","","null","70","NaN","","","","","","","","","","","","","","",""
"","S2","","html-keyboard-response","471","520738","0.0-1.0-634.0","0","0","42798","","null","","","null","70","","NaN","","","","","","","","","","","","","",""
"","response","","html-keyboard-response","472","521620","0.0-1.0-635.0-0.0","0","0","42798","","880","","","68","70","","","2","70","training","adjacent","AB","1","2","M.jpg","L.jpg","1","1","1","",""
"","feedback","","html-keyboard-response","473","522623","0.0-1.0-636.0-0.0","0","0","42798","","null","","","null","70","","","","","","","","","","","","","","","",""
"","ITI","","html-keyboard-response","474","523625","0.0-1.0-639.0","0","0","42798","","null","","","null","70","","","","","","","","","","","","","","","NaN",""
"","S1","","html-keyboard-response","475","523879","0.0-1.0-641.0","0","0","42798","","null","","","null","71","","","","","","","","","","","","","","","",""
"","ISI","","html-keyboard-response","476","524880","0.0-1.0-642.0","0","0","42798","","null","","","null","71","NaN","","","","","","","","","","","","","","",""
"","S2","","html-keyboard-response","477","525132","0.0-1.0-643.0","0","0","42798","","null","","","null","71","","NaN","","","","","","","","","","","","","",""
"","response","","html-keyboard-response","478","525435","0.0-1.0-644.0-0.0","0","0","42798","","299","","","68","71","","","2","71","training","adjacent","GF","7","6","N.jpg","Q.jpg","1","0","0","",""
"","feedback","","html-keyboard-response","479","526439","0.0-1.0-645.0-0.0","0","0","42798","","null","","","null","71","","","","","","","","","","","","","","","",""
"","time_out","","html-keyboard-response","480","528441","0.0-1.0-647.0-0.0","0","0","42798","","null","","","null","71","","","","","","","","","","","","","","","",""
"","ITI","","html-keyboard-response","481","529444","0.0-1.0-648.0","0","0","42798","","null","","","null","71","","","","","","","","","","","","","","","NaN",""
"","S1","","html-keyboard-response","482","529697","0.0-1.0-650.0","0","0","42798","","null","","","null","72","","","","","","","","","","","","","","","",""
"","ISI","","html-keyboard-response","483","530700","0.0-1.0-651.0","0","0","42798","","null","","","null","72","NaN","","","","","","","","","","","","","","",""
"","S2","","html-keyboard-response","484","530955","0.0-1.0-652.0","0","0","42798","","null","","","null","72","","NaN","","","","","","","","","","","","","",""
"","response","","html-keyboard-response","485","531961","0.0-1.0-653.0-0.0","0","0","42798","","1003","","","68","72","","","2","72","training","adjacent","BA","2","1","L.jpg","M.jpg","1","0","0","",""
"","feedback","","html-keyboard-response","486","532985","0.0-1.0-654.0-0.0","0","0","42798","","null","","","null","72","","","","","","","","","","","","","","","",""
"","time_out","","html-keyboard-response","487","534987","0.0-1.0-656.0-0.0","0","0","42798","","null","","","null","72","","","","","","","","","","","","","","","",""
"","ITI","","html-keyboard-response","488","535989","0.0-1.0-657.0","0","0","42798","","null","","","null","72","","","","","","","","","","","","","","","NaN",""
"","S1","","html-keyboard-response","489","536253","0.0-1.0-659.0","0","0","42798","","null","","","null","73","","","","","","","","","","","","","","","",""
"","ISI","","html-keyboard-response","490","537255","0.0-1.0-660.0","0","0","42798","","null","","","null","73","NaN","","","","","","","","","","","","","","",""
"","S2","","html-keyboard-response","491","537508","0.0-1.0-661.0","0","0","42798","","null","","","null","73","","NaN","","","","","","","","","","","","","",""
"","response","","html-keyboard-response","492","537993","0.0-1.0-662.0-0.0","0","0","42798","","484","","","68","73","","","2","73","training","adjacent","FG","6","7","Q.jpg","N.jpg","1","1","1","",""
"","feedback","","html-keyboard-response","493","538997","0.0-1.0-663.0-0.0","0","0","42798","","null","","","null","73","","","","","","","","","","","","","","","",""
"","ITI","","html-keyboard-response","494","540001","0.0-1.0-666.0","0","0","42798","","null","","","null","73","","","","","","","","","","","","","","","NaN",""
"","S1","","html-keyboard-response","495","540252","0.0-1.0-668.0","0","0","42798","","null","","","null","74","","","","","","","","","","","","","","","",""
"","ISI","","html-keyboard-response","496","541256","0.0-1.0-669.0","0","0","42798","","null","","","null","74","NaN","","","","","","","","","","","","","","",""
"","S2","","html-keyboard-response","497","541512","0.0-1.0-670.0","0","0","42798","","null","","","null","74","","NaN","","","","","","","","","","","","","",""
"","response","","html-keyboard-response","498","542974","0.0-1.0-671.0-0.0","0","0","42798","","1460","","","75","74","","","2","74","training","adjacent","DC","4","3","P.jpg","O.jpg","0","0","1","",""
"","feedback","","html-keyboard-response","499","543978","0.0-1.0-672.0-0.0","0","0","42798","","null","","","null","74","","","","","","","","","","","","","","","",""
"","ITI","","html-keyboard-response","500","544980","0.0-1.0-675.0","0","0","42798","","null","","","null","74","","","","","","","","","","","","","","","NaN",""
"","S1","","html-keyboard-response","501","545233","0.0-1.0-677.0","0","0","42798","","null","","","null","75","","","","","","","","","","","","","","","",""
"","ISI","","html-keyboard-response","502","546236","0.0-1.0-678.0","0","0","42798","","null","","","null","75","NaN","","","","","","","","","","","","","","",""
"","S2","","html-keyboard-response","503","546489","0.0-1.0-679.0","0","0","42798","","null","","","null","75","","NaN","","","","","","","","","","","","","",""
"","response","","html-keyboard-response","504","547068","0.0-1.0-680.0-0.0","0","0","42798","","576","","","68","75","","","2","75","training","adjacent","GF","7","6","N.jpg","Q.jpg","1","0","0","",""
"","feedback","","html-keyboard-response","505","548071","0.0-1.0-681.0-0.0","0","0","42798","","null","","","null","75","","","","","","","","","","","","","","","",""
"","time_out","","html-keyboard-response","506","550074","0.0-1.0-683.0-0.0","0","0","42798","","null","","","null","75","","","","","","","","","","","","","","","",""
"","ITI","","html-keyboard-response","507","551077","0.0-1.0-684.0","0","0","42798","","null","","","null","75","","","","","","","","","","","","","","","NaN",""
"","S1","","html-keyboard-response","508","551331","0.0-1.0-686.0","0","0","42798","","null","","","null","76","","","","","","","","","","","","","","","",""
"","ISI","","html-keyboard-response","509","552332","0.0-1.0-687.0","0","0","42798","","null","","","null","76","NaN","","","","","","","","","","","","","","",""
"","S2","","html-keyboard-response","510","552531","0.0-1.0-688.0","0","0","42798","","197","","","75","76","","k","2","76","training","adjacent","DE","4","5","P.jpg","R.jpg","0","1","0","",""
"","feedback","","html-keyboard-response","511","553535","0.0-1.0-690.0-0.0","0","0","42798","","null","","","null","76","","","","","","","","","","","","","","","",""
"","time_out","","html-keyboard-response","512","555539","0.0-1.0-692.0-0.0","0","0","42798","","null","","","null","76","","","","","","","","","","","","","","","",""
"","ITI","","html-keyboard-response","513","556541","0.0-1.0-693.0","0","0","42798","","null","","","null","76","","","","","","","","","","","","","","","NaN",""
"","S1","","html-keyboard-response","514","556797","0.0-1.0-695.0","0","0","42798","","null","","","null","77","","","","","","","","","","","","","","","",""
"","ISI","","html-keyboard-response","515","557800","0.0-1.0-696.0","0","0","42798","","null","","","null","77","NaN","","","","","","","","","","","","","","",""
"","S2","","html-keyboard-response","516","557998","0.0-1.0-697.0","0","0","42798","","197","","","75","77","","k","2","77","training","adjacent","AB","1","2","M.jpg","L.jpg","0","1","0","",""
"","feedback","","html-keyboard-response","517","559000","0.0-1.0-699.0-0.0","0","0","42798","","null","","","null","77","","","","","","","","","","","","","","","",""
"","time_out","","html-keyboard-response","518","561003","0.0-1.0-701.0-0.0","0","0","42798","","null","","","null","77","","","","","","","","","","","","","","","",""
"","ITI","","html-keyboard-response","519","562005","0.0-1.0-702.0","0","0","42798","","null","","","null","77","","","","","","","","","","","","","","","NaN",""
"","S1","","html-keyboard-response","520","562258","0.0-1.0-704.0","0","0","42798","","null","","","null","78","","","","","","","","","","","","","","","",""
"","ISI","","html-keyboard-response","521","563259","0.0-1.0-705.0","0","0","42798","","null","","","null","78","NaN","","","","","","","","","","","","","","",""
"","S2","","html-keyboard-response","522","563522","0.0-1.0-706.0","0","0","42798","","null","","","null","78","","NaN","","","","","","","","","","","","","",""
"","response","","html-keyboard-response","523","564291","0.0-1.0-707.0-0.0","0","0","42798","","767","","","75","78","","","2","78","training","adjacent","ED","5","4","R.jpg","P.jpg","0","0","1","",""
"","feedback","","html-keyboard-response","524","565294","0.0-1.0-708.0-0.0","0","0","42798","","null","","","null","78","","","","","","","","","","","","","","","",""
"","ITI","","html-keyboard-response","525","566297","0.0-1.0-711.0","0","0","42798","","null","","","null","78","","","","","","","","","","","","","","","NaN",""
"","S1","","html-keyboard-response","526","566549","0.0-1.0-713.0","0","0","42798","","null","","","null","79","","","","","","","","","","","","","","","",""
"","ISI","","html-keyboard-response","527","567551","0.0-1.0-714.0","0","0","42798","","null","","","null","79","NaN","","","","","","","","","","","","","","",""
"","S2","","html-keyboard-response","528","567803","0.0-1.0-715.0","0","0","42798","","null","","","null","79","","NaN","","","","","","","","","","","","","",""
"","response","","html-keyboard-response","529","569556","0.0-1.0-716.0-0.0","0","0","42798","","null","","","null","79","","","2","79","training","adjacent","FG","6","7","Q.jpg","N.jpg","NaN","1","0","",""
"","too_slow_prompt","","html-keyboard-response","530","570559","0.0-1.0-718.0-0.0","1","0","42798","","null","","","null","","","","","","","","","","","","","","","","",""
"","time_out","","html-keyboard-response","531","572563","0.0-1.0-719.0-0.0","0","0","42798","","null","","","null","79","","","","","","","","","","","","","","","",""
"","ITI","","html-keyboard-response","532","573566","0.0-1.0-720.0","0","0","42798","","null","","","null","79","","","","","","","","","","","","","","","NaN",""
"","S1","","html-keyboard-response","533","573819","0.0-1.0-722.0","0","0","42798","","null","","","null","80","","","","","","","","","","","","","","","",""
"","ISI","","html-keyboard-response","534","574822","0.0-1.0-723.0","0","0","42798","","null","","","null","80","NaN","","","","","","","","","","","","","","",""
"","S2","","html-keyboard-response","535","575075","0.0-1.0-724.0","0","0","42798","","null","","","null","80","","NaN","","","","","","","","","","","","","",""
"","response","","html-keyboard-response","536","575090","0.0-1.0-725.0-0.0","0","0","42798","","15","","","75","80","","","2","80","training","adjacent","FG","6","7","Q.jpg","N.jpg","0","1","0","",""
"","feedback","","html-keyboard-response","537","576094","0.0-1.0-726.0-0.0","0","0","42798","","null","","","null","80","","","","","","","","","","","","","","","",""
"","time_out","","html-keyboard-response","538","578097","0.0-1.0-728.0-0.0","0","0","42798","","null","","","null","80","","","","","","","","","","","","","","","",""
"","ITI","","html-keyboard-response","539","579100","0.0-1.0-729.0","0","0","42798","","null","","","null","80","","","","","","","","","","","","","","","NaN",""
"","S1","","html-keyboard-response","540","579368","0.0-1.0-731.0","0","0","42798","","null","","","null","81","","","","","","","","","","","","","","","",""
"","ISI","","html-keyboard-response","541","580371","0.0-1.0-732.0","0","0","42798","","null","","","null","81","NaN","","","","","","","","","","","","","","",""
"","S2","","html-keyboard-response","542","580624","0.0-1.0-733.0","0","0","42798","","null","","","null","81","","NaN","","","","","","","","","","","","","",""
"","response","","html-keyboard-response","543","580847","0.0-1.0-734.0-0.0","0","0","42798","","222","","","68","81","","","2","81","training","adjacent","CB","3","2","O.jpg","L.jpg","1","0","0","",""
"","feedback","","html-keyboard-response","544","581850","0.0-1.0-735.0-0.0","0","0","42798","","null","","","null","81","","","","","","","","","","","","","","","",""
"","time_out","","html-keyboard-response","545","583852","0.0-1.0-737.0-0.0","0","0","42798","","null","","","null","81","","","","","","","","","","","","","","","",""
"","ITI","","html-keyboard-response","546","584854","0.0-1.0-738.0","0","0","42798","","null","","","null","81","","","","","","","","","","","","","","","NaN",""
"","S1","","html-keyboard-response","547","585107","0.0-1.0-740.0","0","0","42798","","null","","","null","82","","","","","","","","","","","","","","","",""
"","ISI","","html-keyboard-response","548","586109","0.0-1.0-741.0","0","0","42798","","null","","","null","82","NaN","","","","","","","","","","","","","","",""
"","S2","","html-keyboard-response","549","586176","0.0-1.0-742.0","0","0","42798","","65","","","75","82","","k","2","82","training","adjacent","AB","1","2","M.jpg","L.jpg","0","1","0","",""
"","feedback","","html-keyboard-response","550","587191","0.0-1.0-744.0-0.0","0","0","42798","","null","","","null","82","","","","","","","","","","","","","","","",""
"","time_out","","html-keyboard-response","551","589194","0.0-1.0-746.0-0.0","0","0","42798","","null","","","null","82","","","","","","","","","","","","","","","",""
"","ITI","","html-keyboard-response","552","590198","0.0-1.0-747.0","0","0","42798","","null","","","null","82","","","","","","","","","","","","","","","NaN",""
"","S1","","html-keyboard-response","553","590450","0.0-1.0-749.0","0","0","42798","","null","","","null","83","","","","","","","","","","","","","","","",""
"","ISI","","html-keyboard-response","554","591453","0.0-1.0-750.0","0","0","42798","","null","","","null","83","NaN","","","","","","","","","","","","","","",""
"","S2","","html-keyboard-response","555","591705","0.0-1.0-751.0","0","0","42798","","null","","","null","83","","NaN","","","","","","","","","","","","","",""
"","response","","html-keyboard-response","556","592582","0.0-1.0-752.0-0.0","0","0","42798","","875","","","68","83","","","2","83","training","adjacent","ED","5","4","R.jpg","P.jpg","1","0","0","",""
"","feedback","","html-keyboard-response","557","593585","0.0-1.0-753.0-0.0","0","0","42798","","null","","","null","83","","","","","","","","","","","","","","","",""
"","time_out","","html-keyboard-response","558","595588","0.0-1.0-755.0-0.0","0","0","42798","","null","","","null","83","","","","","","","","","","","","","","","",""
"","ITI","","html-keyboard-response","559","596590","0.0-1.0-756.0","0","0","42798","","null","","","null","83","","","","","","","","","","","","","","","NaN",""
"","S1","","html-keyboard-response","560","596843","0.0-1.0-758.0","0","0","42798","","null","","","null","84","","","","","","","","","","","","","","","",""
"","ISI","","html-keyboard-response","561","597845","0.0-1.0-759.0","0","0","42798","","null","","","null","84","NaN","","","","","","","","","","","","","","",""
"","S2","","html-keyboard-response","562","598098","0.0-1.0-760.0","0","0","42798","","null","","","null","84","","NaN","","","","","","","","","","","","","",""
"","response","","html-keyboard-response","563","599850","0.0-1.0-761.0-0.0","0","0","42798","","null","","","null","84","","","2","84","training","adjacent","CD","3","4","O.jpg","P.jpg","NaN","1","0","",""
"","too_slow_prompt","","html-keyboard-response","564","600854","0.0-1.0-763.0-0.0","1","0","42798","","null","","","null","","","","","","","","","","","","","","","","",""
"","time_out","","html-keyboard-response","565","602856","0.0-1.0-764.0-0.0","0","0","42798","","null","","","null","84","","","","","","","","","","","","","","","",""
"","ITI","","html-keyboard-response","566","603858","0.0-1.0-765.0","0","0","42798","","null","","","null","84","","","","","","","","","","","","","","","NaN",""
"","S1","","html-keyboard-response","567","604111","0.0-1.0-767.0","0","0","42798","","null","","","null","85","","","","","","","","","","","","","","","",""
"","ISI","","html-keyboard-response","568","605113","0.0-1.0-768.0","0","0","42798","","null","","","null","85","NaN","","","","","","","","","","","","","","",""
"","S2","","html-keyboard-response","569","605368","0.0-1.0-769.0","0","0","42798","","null","","","null","85","","NaN","","","","","","","","","","","","","",""
"","response","","html-keyboard-response","570","605555","0.0-1.0-770.0-0.0","0","0","42798","","184","","","75","85","","","2","85","training","adjacent","CD","3","4","O.jpg","P.jpg","0","1","0","",""
"","feedback","","html-keyboard-response","571","606559","0.0-1.0-771.0-0.0","0","0","42798","","null","","","null","85","","","","","","","","","","","","","","","",""
"","time_out","","html-keyboard-response","572","608561","0.0-1.0-773.0-0.0","0","0","42798","","null","","","null","85","","","","","","","","","","","","","","","",""
"","ITI","","html-keyboard-response","573","609563","0.0-1.0-774.0","0","0","42798","","null","","","null","85","","","","","","","","","","","","","","","NaN",""
"","S1","","html-keyboard-response","574","609816","0.0-1.0-776.0","0","0","42798","","null","","","null","86","","","","","","","","","","","","","","","",""
"","ISI","","html-keyboard-response","575","610818","0.0-1.0-777.0","0","0","42798","","null","","","null","86","NaN","","","","","","","","","","","","","","",""
"","S2","","html-keyboard-response","576","611071","0.0-1.0-778.0","0","0","42798","","null","","","null","86","","NaN","","","","","","","","","","","","","",""
"","response","","html-keyboard-response","577","611548","0.0-1.0-779.0-0.0","0","0","42798","","476","","","75","86","","","2","86","training","adjacent","DE","4","5","P.jpg","R.jpg","0","1","0","",""
"","feedback","","html-keyboard-response","578","612551","0.0-1.0-780.0-0.0","0","0","42798","","null","","","null","86","","","","","","","","","","","","","","","",""
"","time_out","","html-keyboard-response","579","614553","0.0-1.0-782.0-0.0","0","0","42798","","null","","","null","86","","","","","","","","","","","","","","","",""
"","ITI","","html-keyboard-response","580","615557","0.0-1.0-783.0","0","0","42798","","null","","","null","86","","","","","","","","","","","","","","","NaN",""
"","S1","","html-keyboard-response","581","615810","0.0-1.0-785.0","0","0","42798","","null","","","null","87","","","","","","","","","","","","","","","",""
"","ISI","","html-keyboard-response","582","616813","0.0-1.0-786.0","0","0","42798","","null","","","null","87","NaN","","","","","","","","","","","","","","",""
