"success","ttype","start_time","trial_type","trial_index","time_elapsed","internal_node_id","warning","missed_checkup","PID","view_history","rt","responses","repeat_instructions","key_press","index","keypress_isi","keypress_S2","block","trial_num","phase","group_type","pair_type","S1_stim","S2_stim","S1_img","S2_img","S1_chosen","S1_higher","accuracy","keypress_iti","total_bonus_tally"
"true","full_screen","d03072023hr1753","fullscreen","0","233731","0.0-0.0","0","0","93775","","","","","","","","","","","","","","","","","","","","","",""
"","instructions","","instructions","1","268089","0.0-1.0-0.0-0.0","0","0","93775","[{""page_index"":0,""viewing_time"":6034},{""page_index"":1,""viewing_time"":19086},{""page_index"":2,""viewing_time"":7944},{""page_index"":3,""viewing_time"":1288}]","34353","","","","","","","","","","","","","","","","","","","",""
"","comprehension_check","","survey-multi-choice","2","293769","0.0-1.0-0.0-1.0","0","0","93775","","25670","{""Q0"":""True"",""Q1"":""K"",""Q2"":""Only when the screen 'MAKE A CHOICE' is shown"",""Q3"":""Green mark"",""Q4"":""either D or K""}","1","","","","","","","","","","","","","","","","","",""
"","missed_instruction_checkup","","html-keyboard-response","3","295883","0.0-1.0-0.0-2.0-0.0","0","1","93775","","2106","","","32","","","","","","","","","","","","","","","","",""
"","instructions","","instructions","4","320583","0.0-1.0-0.1-0.1","0","0","93775","[{""page_index"":0,""viewing_time"":2513},{""page_index"":1,""viewing_time"":4351},{""page_index"":2,""viewing_time"":5993},{""page_index"":3,""viewing_time"":1617},{""page_index"":2,""viewing_time"":2654},{""page_index"":1,""viewing_time"":6062},{""page_index"":2,""viewing_time"":835},{""page_index"":3,""viewing_time"":669}]","24694","","","","","","","","","","","","","","","","","","","",""
"","comprehension_check","","survey-multi-choice","5","333918","0.0-1.0-0.1-1.1","0","0","93775","","13312","{""Q0"":""True"",""Q1"":""K"",""Q2"":""Once the second image appears and while the screen 'MAKE A CHOICE' is shown"",""Q3"":""Green mark"",""Q4"":""either D or K""}","0","","","","","","","","","","","","","","","","","",""
"","start_exp","","html-keyboard-response","6","412379","0.0-1.0-1.0","0","0","93775","","78456","","","32","","","","","","","","","","","","","","","","",""
"","S1","","html-keyboard-response","7","412637","0.0-1.0-2.0","0","0","93775","","null","","","null","0","","","","","","","","","","","","","","","",""
"","ISI","","html-keyboard-response","8","413646","0.0-1.0-3.0","0","0","93775","","null","","","null","0","NaN","","","","","","","","","","","","","","",""
"","S2","","html-keyboard-response","9","413901","0.0-1.0-4.0","0","0","93775","","null","","","null","0","","NaN","","","","","","","","","","","","","",""
"","response","","html-keyboard-response","10","414749","0.0-1.0-5.0-0.0","0","0","93775","","841","","","75","0","","","1","0","training","adjacent","FG","6","7","Q.jpg","P.jpg","1","1","1","",""
"","feedback","","html-keyboard-response","11","415759","0.0-1.0-6.0-0.0","0","0","93775","","null","","","null","0","","","","","","","","","","","","","","","",""
"","ITI","","html-keyboard-response","12","416767","0.0-1.0-9.0","0","0","93775","","null","","","null","0","","","","","","","","","","","","","","","NaN",""
"","S1","","html-keyboard-response","13","417030","0.0-1.0-11.0","0","0","93775","","null","","","null","1","","","","","","","","","","","","","","","",""
"","ISI","","html-keyboard-response","14","418044","0.0-1.0-12.0","0","0","93775","","null","","","null","1","NaN","","","","","","","","","","","","","","",""
"","S2","","html-keyboard-response","15","418303","0.0-1.0-13.0","0","0","93775","","null","","","null","1","","NaN","","","","","","","","","","","","","",""
"","response","","html-keyboard-response","16","418781","0.0-1.0-14.0-0.0","0","0","93775","","471","","","68","1","","","1","1","training","adjacent","DC","4","3","O.jpg","R.jpg","0","0","1","",""
"","feedback","","html-keyboard-response","17","419791","0.0-1.0-15.0-0.0","0","0","93775","","null","","","null","1","","","","","","","","","","","","","","","",""
"","ITI","","html-keyboard-response","18","420799","0.0-1.0-18.0","0","0","93775","","null","","","null","1","","","","","","","","","","","","","","","NaN",""
"","S1","","html-keyboard-response","19","421062","0.0-1.0-20.0","0","0","93775","","null","","","null","2","","","","","","","","","","","","","","","",""
"","ISI","","html-keyboard-response","20","422072","0.0-1.0-21.0","0","0","93775","","null","","","null","2","NaN","","","","","","","","","","","","","","",""
"","S2","","html-keyboard-response","21","422333","0.0-1.0-22.0","0","0","93775","","null","","","null","2","","NaN","","","","","","","","","","","","","",""
"","response","","html-keyboard-response","22","422694","0.0-1.0-23.0-0.0","0","0","93775","","355","","","75","2","","","1","2","training","adjacent","CD","3","4","R.jpg","O.jpg","1","1","1","",""
"","feedback","","html-keyboard-response","23","423701","0.0-1.0-24.0-0.0","0","0","93775","","null","","","null","2","","","","","","","","","","","","","","","",""
"","ITI","","html-keyboard-response","24","424709","0.0-1.0-27.0","0","0","93775","","null","","","null","2","","","","","","","","","","","","","","","NaN",""
"","S1","","html-keyboard-response","25","424967","0.0-1.0-29.0","0","0","93775","","null","","","null","3","","","","","","","","","","","","","","","",""
"","ISI","","html-keyboard-response","26","425974","0.0-1.0-30.0","0","0","93775","","null","","","null","3","NaN","","","","","","","","","","","","","","",""
"","S2","","html-keyboard-response","27","426230","0.0-1.0-31.0","0","0","93775","","null","","","null","3","","NaN","","","","","","","","","","","","","",""
"","response","","html-keyboard-response","28","426699","0.0-1.0-32.0-0.0","0","0","93775","","464","","","75","3","","","1","3","training","adjacent","FE","6","5","Q.jpg","L.jpg","1","0","0","",""
"","feedback","","html-keyboard-response","29","427710","0.0-1.0-33.0-0.0","0","0","93775","","null","","","null","3","","","","","","","","","","","","","","","",""
"","time_out","","html-keyboard-response","30","429720","0.0-1.0-35.0-0.0","0","0","93775","","null","","","null","3","","","","","","","","","","","","","","","",""
"","ITI","","html-keyboard-response","31","430727","0.0-1.0-36.0","0","0","93775","","null","","","null","3","","","","","","","","","","","","","","","NaN",""
"","S1","","html-keyboard-response","32","430991","0.0-1.0-38.0","0","0","93775","","null","","","null","4","","","","","","","","","","","","","","","",""
"","ISI","","html-keyboard-response","33","431999","0.0-1.0-39.0","0","0","93775","","null","","","null","4","NaN","","","","","","","","","","","","","","",""
"","S2","","html-keyboard-response","34","432262","0.0-1.0-40.0","0","0","93775","","null","","","null","4","","NaN","","","","","","","","","","","","","",""
"","response","","html-keyboard-response","35","432757","0.0-1.0-41.0-0.0","0","0","93775","","489","","","75","4","","","1","4","training","adjacent","DE","4","5","O.jpg","L.jpg","1","1","1","",""
"","feedback","","html-keyboard-response","36","433766","0.0-1.0-42.0-0.0","0","0","93775","","null","","","null","4","","","","","","","","","","","","","","","",""
"","ITI","","html-keyboard-response","37","434774","0.0-1.0-45.0","0","0","93775","","null","","","null","4","","","","","","","","","","","","","","","NaN",""
"","S1","","html-keyboard-response","38","435030","0.0-1.0-47.0","0","0","93775","","null","","","null","5","","","","","","","","","","","","","","","",""
"","ISI","","html-keyboard-response","39","436039","0.0-1.0-48.0","0","0","93775","","null","","","null","5","NaN","","","","","","","","","","","","","","",""
"","S2","","html-keyboard-response","40","436304","0.0-1.0-49.0","0","0","93775","","null","","","null","5","","NaN","","","","","","","","","","","","","",""
"","response","","html-keyboard-response","41","436653","0.0-1.0-50.0-0.0","0","0","93775","","344","","","68","5","","","1","5","training","adjacent","EF","5","6","L.jpg","Q.jpg","0","1","0","",""
"","feedback","","html-keyboard-response","42","437663","0.0-1.0-51.0-0.0","0","0","93775","","null","","","null","5","","","","","","","","","","","","","","","",""
"","time_out","","html-keyboard-response","43","439676","0.0-1.0-53.0-0.0","0","0","93775","","null","","","null","5","","","","","","","","","","","","","","","",""
"","ITI","","html-keyboard-response","44","440687","0.0-1.0-54.0","0","0","93775","","null","","","null","5","","","","","","","","","","","","","","","NaN",""
"","S1","","html-keyboard-response","45","440950","0.0-1.0-56.0","0","0","93775","","null","","","null","6","","","","","","","","","","","","","","","",""
"","ISI","","html-keyboard-response","46","441960","0.0-1.0-57.0","0","0","93775","","null","","","null","6","NaN","","","","","","","","","","","","","","",""
"","S2","","html-keyboard-response","47","442224","0.0-1.0-58.0","0","0","93775","","null","","","null","6","","NaN","","","","","","","","","","","","","",""
"","response","","html-keyboard-response","48","442588","0.0-1.0-59.0-0.0","0","0","93775","","358","","","75","6","","","1","6","training","adjacent","FE","6","5","Q.jpg","L.jpg","1","0","0","",""
"","feedback","","html-keyboard-response","49","443598","0.0-1.0-60.0-0.0","0","0","93775","","null","","","null","6","","","","","","","","","","","","","","","",""
"","time_out","","html-keyboard-response","50","445608","0.0-1.0-62.0-0.0","0","0","93775","","null","","","null","6","","","","","","","","","","","","","","","",""
"","ITI","","html-keyboard-response","51","446615","0.0-1.0-63.0","0","0","93775","","null","","","null","6","","","","","","","","","","","","","","","NaN",""
"","S1","","html-keyboard-response","52","446879","0.0-1.0-65.0","0","0","93775","","null","","","null","7","","","","","","","","","","","","","","","",""
"","ISI","","html-keyboard-response","53","447887","0.0-1.0-66.0","0","0","93775","","null","","","null","7","NaN","","","","","","","","","","","","","","",""
"","S2","","html-keyboard-response","54","448150","0.0-1.0-67.0","0","0","93775","","null","","","null","7","","NaN","","","","","","","","","","","","","",""
"","response","","html-keyboard-response","55","448445","0.0-1.0-68.0-0.0","0","0","93775","","288","","","75","7","","","1","7","training","adjacent","EF","5","6","L.jpg","Q.jpg","1","1","1","",""
"","feedback","","html-keyboard-response","56","449455","0.0-1.0-69.0-0.0","0","0","93775","","null","","","null","7","","","","","","","","","","","","","","","",""
"","ITI","","html-keyboard-response","57","450463","0.0-1.0-72.0","0","0","93775","","null","","","null","7","","","","","","","","","","","","","","","NaN",""
"","S1","","html-keyboard-response","58","450725","0.0-1.0-74.0","0","0","93775","","null","","","null","8","","","","","","","","","","","","","","","",""
"","ISI","","html-keyboard-response","59","451735","0.0-1.0-75.0","0","0","93775","","null","","","null","8","NaN","","","","","","","","","","","","","","",""
"","S2","","html-keyboard-response","60","451998","0.0-1.0-76.0","0","0","93775","","null","","","null","8","","NaN","","","","","","","","","","","","","",""
"","response","","html-keyboard-response","61","452471","0.0-1.0-77.0-0.0","0","0","93775","","468","","","68","8","","","1","8","training","adjacent","BC","2","3","M.jpg","R.jpg","0","1","0","",""
"","feedback","","html-keyboard-response","62","453478","0.0-1.0-78.0-0.0","0","0","93775","","null","","","null","8","","","","","","","","","","","","","","","",""
"","time_out","","html-keyboard-response","63","455485","0.0-1.0-80.0-0.0","0","0","93775","","null","","","null","8","","","","","","","","","","","","","","","",""
"","ITI","","html-keyboard-response","64","456495","0.0-1.0-81.0","0","0","93775","","null","","","null","8","","","","","","","","","","","","","","","NaN",""
"","S1","","html-keyboard-response","65","456764","0.0-1.0-83.0","0","0","93775","","null","","","null","9","","","","","","","","","","","","","","","",""
"","ISI","","html-keyboard-response","66","457773","0.0-1.0-84.0","0","0","93775","","null","","","null","9","NaN","","","","","","","","","","","","","","",""
"","S2","","html-keyboard-response","67","458031","0.0-1.0-85.0","0","0","93775","","null","","","null","9","","NaN","","","","","","","","","","","","","",""
"","response","","html-keyboard-response","68","458428","0.0-1.0-86.0-0.0","0","0","93775","","392","","","75","9","","","1","9","training","adjacent","FG","6","7","Q.jpg","P.jpg","1","1","1","",""
"","feedback","","html-keyboard-response","69","459437","0.0-1.0-87.0-0.0","0","0","93775","","null","","","null","9","","","","","","","","","","","","","","","",""
"","ITI","","html-keyboard-response","70","460447","0.0-1.0-90.0","0","0","93775","","null","","","null","9","","","","","","","","","","","","","","","NaN",""
"","S1","","html-keyboard-response","71","460709","0.0-1.0-92.0","0","0","93775","","null","","","null","10","","","","","","","","","","","","","","","",""
"","ISI","","html-keyboard-response","72","461718","0.0-1.0-93.0","0","0","93775","","null","","","null","10","NaN","","","","","","","","","","","","","","",""
"","S2","","html-keyboard-response","73","461982","0.0-1.0-94.0","0","0","93775","","null","","","null","10","","NaN","","","","","","","","","","","","","",""
"","response","","html-keyboard-response","74","462331","0.0-1.0-95.0-0.0","0","0","93775","","345","","","75","10","","","1","10","training","adjacent","FG","6","7","Q.jpg","P.jpg","1","1","1","",""
"","feedback","","html-keyboard-response","75","463341","0.0-1.0-96.0-0.0","0","0","93775","","null","","","null","10","","","","","","","","","","","","","","","",""
"","ITI","","html-keyboard-response","76","464349","0.0-1.0-99.0","0","0","93775","","null","","","null","10","","","","","","","","","","","","","","","NaN",""
"","S1","","html-keyboard-response","77","464605","0.0-1.0-101.0","0","0","93775","","null","","","null","11","","","","","","","","","","","","","","","",""
"","ISI","","html-keyboard-response","78","465613","0.0-1.0-102.0","0","0","93775","","null","","","null","11","NaN","","","","","","","","","","","","","","",""
"","S2","","html-keyboard-response","79","465871","0.0-1.0-103.0","0","0","93775","","null","","","null","11","","NaN","","","","","","","","","","","","","",""
"","response","","html-keyboard-response","80","466226","0.0-1.0-104.0-0.0","0","0","93775","","349","","","75","11","","","1","11","training","adjacent","FE","6","5","Q.jpg","L.jpg","1","0","0","",""
"","feedback","","html-keyboard-response","81","467241","0.0-1.0-105.0-0.0","0","0","93775","","null","","","null","11","","","","","","","","","","","","","","","",""
"","time_out","","html-keyboard-response","82","469246","0.0-1.0-107.0-0.0","0","0","93775","","null","","","null","11","","","","","","","","","","","","","","","",""
"","ITI","","html-keyboard-response","83","470255","0.0-1.0-108.0","0","0","93775","","null","","","null","11","","","","","","","","","","","","","","","NaN",""
"","S1","","html-keyboard-response","84","470518","0.0-1.0-110.0","0","0","93775","","null","","","null","12","","","","","","","","","","","","","","","",""
"","ISI","","html-keyboard-response","85","471527","0.0-1.0-111.0","0","0","93775","","null","","","null","12","NaN","","","","","","","","","","","","","","",""
"","S2","","html-keyboard-response","86","471790","0.0-1.0-112.0","0","0","93775","","null","","","null","12","","NaN","","","","","","","","","","","","","",""
"","response","","html-keyboard-response","87","472229","0.0-1.0-113.0-0.0","0","0","93775","","431","","","68","12","","","1","12","training","adjacent","AB","1","2","N.jpg","M.jpg","0","1","0","",""
"","feedback","","html-keyboard-response","88","473240","0.0-1.0-114.0-0.0","0","0","93775","","null","","","null","12","","","","","","","","","","","","","","","",""
"","time_out","","html-keyboard-response","89","475249","0.0-1.0-116.0-0.0","0","0","93775","","null","","","null","12","","","","","","","","","","","","","","","",""
"","ITI","","html-keyboard-response","90","476262","0.0-1.0-117.0","0","0","93775","","null","","","null","12","","","","","","","","","","","","","","","NaN",""
"","S1","","html-keyboard-response","91","476518","0.0-1.0-119.0","0","0","93775","","null","","","null","13","","","","","","","","","","","","","","","",""
"","ISI","","html-keyboard-response","92","477532","0.0-1.0-120.0","0","0","93775","","null","","","null","13","NaN","","","","","","","","","","","","","","",""
"","S2","","html-keyboard-response","93","477792","0.0-1.0-121.0","0","0","93775","","null","","","null","13","","NaN","","","","","","","","","","","","","",""
"","response","","html-keyboard-response","94","478245","0.0-1.0-122.0-0.0","0","0","93775","","446","","","68","13","","","1","13","training","adjacent","ED","5","4","L.jpg","O.jpg","0","0","1","",""
"","feedback","","html-keyboard-response","95","479255","0.0-1.0-123.0-0.0","0","0","93775","","null","","","null","13","","","","","","","","","","","","","","","",""
"","ITI","","html-keyboard-response","96","480262","0.0-1.0-126.0","0","0","93775","","null","","","null","13","","","","","","","","","","","","","","","NaN",""
"","S1","","html-keyboard-response","97","480518","0.0-1.0-128.0","0","0","93775","","null","","","null","14","","","","","","","","","","","","","","","",""
"","ISI","","html-keyboard-response","98","481526","0.0-1.0-129.0","0","0","93775","","null","","","null","14","NaN","","","","","","","","","","","","","","",""
"","S2","","html-keyboard-response","99","481782","0.0-1.0-130.0","0","0","93775","","null","","","null","14","","NaN","","","","","","","","","","","","","",""
"","response","","html-keyboard-response","100","482106","0.0-1.0-131.0-0.0","0","0","93775","","319","","","68","14","","","1","14","training","adjacent","ED","5","4","L.jpg","O.jpg","0","0","1","",""
"","feedback","","html-keyboard-response","101","483118","0.0-1.0-132.0-0.0","0","0","93775","","null","","","null","14","","","","","","","","","","","","","","","",""
"","ITI","","html-keyboard-response","102","484133","0.0-1.0-135.0","0","0","93775","","null","","","null","14","","","","","","","","","","","","","","","NaN",""
"","S1","","html-keyboard-response","103","484392","0.0-1.0-137.0","0","0","93775","","null","","","null","15","","","","","","","","","","","","","","","",""
"","ISI","","html-keyboard-response","104","485399","0.0-1.0-138.0","0","0","93775","","null","","","null","15","NaN","","","","","","","","","","","","","","",""
"","S2","","html-keyboard-response","105","485665","0.0-1.0-139.0","0","0","93775","","null","","","null","15","","NaN","","","","","","","","","","","","","",""
"","response","","html-keyboard-response","106","485955","0.0-1.0-140.0-0.0","0","0","93775","","285","","","75","15","","","1","15","training","adjacent","CB","3","2","R.jpg","M.jpg","1","0","0","",""
"","feedback","","html-keyboard-response","107","486968","0.0-1.0-141.0-0.0","0","0","93775","","null","","","null","15","","","","","","","","","","","","","","","",""
"","time_out","","html-keyboard-response","108","488978","0.0-1.0-143.0-0.0","0","0","93775","","null","","","null","15","","","","","","","","","","","","","","","",""
"","ITI","","html-keyboard-response","109","489992","0.0-1.0-144.0","0","0","93775","","null","","","null","15","","","","","","","","","","","","","","","NaN",""
"","S1","","html-keyboard-response","110","490257","0.0-1.0-146.0","0","0","93775","","null","","","null","16","","","","","","","","","","","","","","","",""
"","ISI","","html-keyboard-response","111","491272","0.0-1.0-147.0","0","0","93775","","null","","","null","16","NaN","","","","","","","","","","","","","","",""
"","S2","","html-keyboard-response","112","491537","0.0-1.0-148.0","0","0","93775","","null","","","null","16","","NaN","","","","","","","","","","","","","",""
"","response","","html-keyboard-response","113","491882","0.0-1.0-149.0-0.0","0","0","93775","","341","","","68","16","","","1","16","training","adjacent","GF","7","6","P.jpg","Q.jpg","0","0","1","",""
"","feedback","","html-keyboard-response","114","492895","0.0-1.0-150.0-0.0","0","0","93775","","null","","","null","16","","","","","","","","","","","","","","","",""
"","ITI","","html-keyboard-response","115","493902","0.0-1.0-153.0","0","0","93775","","null","","","null","16","","","","","","","","","","","","","","","NaN",""
"","S1","","html-keyboard-response","116","494158","0.0-1.0-155.0","0","0","93775","","null","","","null","17","","","","","","","","","","","","","","","",""
"","ISI","","html-keyboard-response","117","495169","0.0-1.0-156.0","0","0","93775","","null","","","null","17","NaN","","","","","","","","","","","","","","",""
"","S2","","html-keyboard-response","118","495430","0.0-1.0-157.0","0","0","93775","","null","","","null","17","","NaN","","","","","","","","","","","","","",""
"","response","","html-keyboard-response","119","495850","0.0-1.0-158.0-0.0","0","0","93775","","413","","","68","17","","","1","17","training","adjacent","AB","1","2","N.jpg","M.jpg","0","1","0","",""
"","feedback","","html-keyboard-response","120","496862","0.0-1.0-159.0-0.0","0","0","93775","","null","","","null","17","","","","","","","","","","","","","","","",""
"","time_out","","html-keyboard-response","121","498871","0.0-1.0-161.0-0.0","0","0","93775","","null","","","null","17","","","","","","","","","","","","","","","",""
"","ITI","","html-keyboard-response","122","499880","0.0-1.0-162.0","0","0","93775","","null","","","null","17","","","","","","","","","","","","","","","NaN",""
"","S1","","html-keyboard-response","123","500142","0.0-1.0-164.0","0","0","93775","","null","","","null","18","","","","","","","","","","","","","","","",""
"","ISI","","html-keyboard-response","124","501150","0.0-1.0-165.0","0","0","93775","","null","","","null","18","NaN","","","","","","","","","","","","","","",""
"","S2","","html-keyboard-response","125","501406","0.0-1.0-166.0","0","0","93775","","null","","","null","18","","NaN","","","","","","","","","","","","","",""
"","response","","html-keyboard-response","126","501554","0.0-1.0-167.0-0.0","0","0","93775","","143","","","68","18","","","1","18","training","adjacent","ED","5","4","L.jpg","O.jpg","0","0","1","",""
"","feedback","","html-keyboard-response","127","502568","0.0-1.0-168.0-0.0","0","0","93775","","null","","","null","18","","","","","","","","","","","","","","","",""
"","ITI","","html-keyboard-response","128","503574","0.0-1.0-171.0","0","0","93775","","null","","","null","18","","","","","","","","","","","","","","","NaN",""
"","S1","","html-keyboard-response","129","503842","0.0-1.0-173.0","0","0","93775","","null","","","null","19","","","","","","","","","","","","","","","",""
"","ISI","","html-keyboard-response","130","504854","0.0-1.0-174.0","0","0","93775","","null","","","null","19","NaN","","","","","","","","","","","","","","",""
"","S2","","html-keyboard-response","131","505109","0.0-1.0-175.0","0","0","93775","","null","","","null","19","","NaN","","","","","","","","","","","","","",""
"","response","","html-keyboard-response","132","505730","0.0-1.0-176.0-0.0","0","0","93775","","616","","","68","19","","","1","19","training","adjacent","BA","2","1","M.jpg","N.jpg","0","0","1","",""
"","feedback","","html-keyboard-response","133","506743","0.0-1.0-177.0-0.0","0","0","93775","","null","","","null","19","","","","","","","","","","","","","","","",""
"","ITI","","html-keyboard-response","134","507751","0.0-1.0-180.0","0","0","93775","","null","","","null","19","","","","","","","","","","","","","","","NaN",""
"","S1","","html-keyboard-response","135","508007","0.0-1.0-182.0","0","0","93775","","null","","","null","20","","","","","","","","","","","","","","","",""
"","ISI","","html-keyboard-response","136","509014","0.0-1.0-183.0","0","0","93775","","null","","","null","20","NaN","","","","","","","","","","","","","","",""
"","S2","","html-keyboard-response","137","509271","0.0-1.0-184.0","0","0","93775","","null","","","null","20","","NaN","","","","","","","","","","","","","",""
"","response","","html-keyboard-response","138","509882","0.0-1.0-185.0-0.0","0","0","93775","","607","","","68","20","","","1","20","training","adjacent","DC","4","3","O.jpg","R.jpg","0","0","1","",""
"","feedback","","html-keyboard-response","139","510894","0.0-1.0-186.0-0.0","0","0","93775","","null","","","null","20","","","","","","","","","","","","","","","",""
"","ITI","","html-keyboard-response","140","511903","0.0-1.0-189.0","0","0","93775","","null","","","null","20","","","","","","","","","","","","","","","NaN",""
"","S1","","html-keyboard-response","141","512167","0.0-1.0-191.0","0","0","93775","","null","","","null","21","","","","","","","","","","","","","","","",""
"","ISI","","html-keyboard-response","142","513176","0.0-1.0-192.0","0","0","93775","","null","","","null","21","NaN","","","","","","","","","","","","","","",""
"","S2","","html-keyboard-response","143","513438","0.0-1.0-193.0","0","0","93775","","null","","","null","21","","NaN","","","","","","","","","","","","","",""
"","response","","html-keyboard-response","144","513827","0.0-1.0-194.0-0.0","0","0","93775","","383","","","68","21","","","1","21","training","adjacent","BA","2","1","M.jpg","N.jpg","0","0","1","",""
"","feedback","","html-keyboard-response","145","514838","0.0-1.0-195.0-0.0","0","0","93775","","null","","","null","21","","","","","","","","","","","","","","","",""
"","ITI","","html-keyboard-response","146","515847","0.0-1.0-198.0","0","0","93775","","null","","","null","21","","","","","","","","","","","","","","","NaN",""
"","S1","","html-keyboard-response","147","516105","0.0-1.0-200.0","0","0","93775","","null","","","null","22","","","","","","","","","","","","","","","",""
"","ISI","","html-keyboard-response","148","517110","0.0-1.0-201.0","0","0","93775","","null","","","null","22","NaN","","","","","","","","","","","","","","",""
"","S2","","html-keyboard-response","149","517366","0.0-1.0-202.0","0","0","93775","","null","","","null","22","","NaN","","","","","","","","","","","","","",""
"","response","","html-keyboard-response","150","517818","0.0-1.0-203.0-0.0","0","0","93775","","447","","","68","22","","","1","22","training","adjacent","GF","7","6","P.jpg","Q.jpg","0","0","1","",""
"","feedback","","html-keyboard-response","151","518838","0.0-1.0-204.0-0.0","0","0","93775","","null","","","null","22","","","","","","","","","","","","","","","",""
"","ITI","","html-keyboard-response","152","519852","0.0-1.0-207.0","0","0","93775","","null","","","null","22","","","","","","","","","","","","","","","NaN",""
"","S1","","html-keyboard-response","153","520112","0.0-1.0-209.0","0","0","93775","","null","","","null","23","","","","","","","","","","","","","","","",""
"","ISI","","html-keyboard-response","154","521120","0.0-1.0-210.0","0","0","93775","","null","","","null","23","NaN","","","","","","","","","","","","","","",""
"","S2","","html-keyboard-response","155","521384","0.0-1.0-211.0","0","0","93775","","null","","","null","23","","NaN","","","","","","","","","","","","","",""
"","response","","html-keyboard-response","156","521974","0.0-1.0-212.0-0.0","0","0","93775","","583","","","68","23","","","1","23","training","adjacent","GF","7","6","P.jpg","Q.jpg","0","0","1","",""
"","feedback","","html-keyboard-response","157","522982","0.0-1.0-213.0-0.0","0","0","93775","","null","","","null","23","","","","","","","","","","","","","","","",""
"","ITI","","html-keyboard-response","158","523990","0.0-1.0-216.0","0","0","93775","","null","","","null","23","","","","","","","","","","","","","","","NaN",""
"","S1","","html-keyboard-response","159","524247","0.0-1.0-218.0","0","0","93775","","null","","","null","24","","","","","","","","","","","","","","","",""
"","ISI","","html-keyboard-response","160","525253","0.0-1.0-219.0","0","0","93775","","null","","","null","24","NaN","","","","","","","","","","","","","","",""
"","S2","","html-keyboard-response","161","525510","0.0-1.0-220.0","0","0","93775","","null","","","null","24","","NaN","","","","","","","","","","","","","",""
"","response","","html-keyboard-response","162","526032","0.0-1.0-221.0-0.0","0","0","93775","","517","","","68","24","","","1","24","training","adjacent","EF","5","6","L.jpg","Q.jpg","0","1","0","",""
"","feedback","","html-keyboard-response","163","527039","0.0-1.0-222.0-0.0","0","0","93775","","null","","","null","24","","","","","","","","","","","","","","","",""
"","time_out","","html-keyboard-response","164","529048","0.0-1.0-224.0-0.0","0","0","93775","","null","","","null","24","","","","","","","","","","","","","","","",""
"","ITI","","html-keyboard-response","165","530055","0.0-1.0-225.0","0","0","93775","","null","","","null","24","","","","","","","","","","","","","","","NaN",""
"","S1","","html-keyboard-response","166","530319","0.0-1.0-227.0","0","0","93775","","null","","","null","25","","","","","","","","","","","","","","","",""
"","ISI","","html-keyboard-response","167","531328","0.0-1.0-228.0","0","0","93775","","null","","","null","25","NaN","","","","","","","","","","","","","","",""
"","S2","","html-keyboard-response","168","531590","0.0-1.0-229.0","0","0","93775","","null","","","null","25","","NaN","","","","","","","","","","","","","",""
"","response","","html-keyboard-response","169","532212","0.0-1.0-230.0-0.0","0","0","93775","","616","","","75","25","","","1","25","training","adjacent","FG","6","7","Q.jpg","P.jpg","1","1","1","",""
"","feedback","","html-keyboard-response","170","533224","0.0-1.0-231.0-0.0","0","0","93775","","null","","","null","25","","","","","","","","","","","","","","","",""
"","ITI","","html-keyboard-response","171","534231","0.0-1.0-234.0","0","0","93775","","null","","","null","25","","","","","","","","","","","","","","","NaN",""
"","S1","","html-keyboard-response","172","534495","0.0-1.0-236.0","0","0","93775","","null","","","null","26","","","","","","","","","","","","","","","",""
"","ISI","","html-keyboard-response","173","535505","0.0-1.0-237.0","0","0","93775","","null","","","null","26","NaN","","","","","","","","","","","","","","",""
"","S2","","html-keyboard-response","174","535768","0.0-1.0-238.0","0","0","93775","","null","","","null","26","","NaN","","","","","","","","","","","","","",""
"","response","","html-keyboard-response","175","536514","0.0-1.0-239.0-0.0","0","0","93775","","742","","","68","26","","","1","26","training","adjacent","CB","3","2","R.jpg","M.jpg","0","0","1","",""
"","feedback","","html-keyboard-response","176","537529","0.0-1.0-240.0-0.0","0","0","93775","","null","","","null","26","","","","","","","","","","","","","","","",""
"","ITI","","html-keyboard-response","177","538537","0.0-1.0-243.0","0","0","93775","","null","","","null","26","","","","","","","","","","","","","","","NaN",""
"","S1","","html-keyboard-response","178","538801","0.0-1.0-245.0","0","0","93775","","null","","","null","27","","","","","","","","","","","","","","","",""
"","ISI","","html-keyboard-response","179","539809","0.0-1.0-246.0","0","0","93775","","null","","","null","27","NaN","","","","","","","","","","","","","","",""
"","S2","","html-keyboard-response","180","540071","0.0-1.0-247.0","0","0","93775","","null","","","null","27","","NaN","","","","","","","","","","","","","",""
"","response","","html-keyboard-response","181","540851","0.0-1.0-248.0-0.0","0","0","93775","","776","","","68","27","","","1","27","training","adjacent","CD","3","4","R.jpg","O.jpg","0","1","0","",""
"","feedback","","html-keyboard-response","182","541866","0.0-1.0-249.0-0.0","0","0","93775","","null","","","null","27","","","","","","","","","","","","","","","",""
"","time_out","","html-keyboard-response","183","543871","0.0-1.0-251.0-0.0","0","0","93775","","null","","","null","27","","","","","","","","","","","","","","","",""
"","ITI","","html-keyboard-response","184","544879","0.0-1.0-252.0","0","0","93775","","null","","","null","27","","","","","","","","","","","","","","","NaN",""
"","S1","","html-keyboard-response","185","545140","0.0-1.0-254.0","0","0","93775","","null","","","null","28","","","","","","","","","","","","","","","",""
"","ISI","","html-keyboard-response","186","546153","0.0-1.0-255.0","0","0","93775","","null","","","null","28","NaN","","","","","","","","","","","","","","",""
"","S2","","html-keyboard-response","187","546416","0.0-1.0-256.0","0","0","93775","","null","","","null","28","","NaN","","","","","","","","","","","","","",""
"","response","","html-keyboard-response","188","547235","0.0-1.0-257.0-0.0","0","0","93775","","813","","","68","28","","","1","28","training","adjacent","DC","4","3","O.jpg","R.jpg","0","0","1","",""
"","feedback","","html-keyboard-response","189","548247","0.0-1.0-258.0-0.0","0","0","93775","","null","","","null","28","","","","","","","","","","","","","","","",""
"","ITI","","html-keyboard-response","190","549255","0.0-1.0-261.0","0","0","93775","","null","","","null","28","","","","","","","","","","","","","","","NaN",""
"","S1","","html-keyboard-response","191","549511","0.0-1.0-263.0","0","0","93775","","null","","","null","29","","","","","","","","","","","","","","","",""
"","ISI","","html-keyboard-response","192","550520","0.0-1.0-264.0","0","0","93775","","null","","","null","29","NaN","","","","","","","","","","","","","","",""
"","S2","","html-keyboard-response","193","550796","0.0-1.0-265.0","0","0","93775","","null","","","null","29","","NaN","","","","","","","","","","","","","",""
"","response","","html-keyboard-response","194","551275","0.0-1.0-266.0-0.0","0","0","93775","","475","","","75","29","","","1","29","training","adjacent","CD","3","4","R.jpg","O.jpg","1","1","1","",""
"","feedback","","html-keyboard-response","195","552297","0.0-1.0-267.0-0.0","0","0","93775","","null","","","null","29","","","","","","","","","","","","","","","",""
"","ITI","","html-keyboard-response","196","553303","0.0-1.0-270.0","0","0","93775","","null","","","null","29","","","","","","","","","","","","","","","NaN",""
"","S1","","html-keyboard-response","197","553559","0.0-1.0-272.0","0","0","93775","","null","","","null","30","","","","","","","","","","","","","","","",""
"","ISI","","html-keyboard-response","198","554573","0.0-1.0-273.0","0","0","93775","","null","","","null","30","NaN","","","","","","","","","","","","","","",""
"","S2","","html-keyboard-response","199","554831","0.0-1.0-274.0","0","0","93775","","null","","","null","30","","NaN","","","","","","","","","","","","","",""
"","response","","html-keyboard-response","200","555258","0.0-1.0-275.0-0.0","0","0","93775","","422","","","75","30","","","1","30","training","adjacent","AB","1","2","N.jpg","M.jpg","1","1","1","",""
"","feedback","","html-keyboard-response","201","556271","0.0-1.0-276.0-0.0","0","0","93775","","null","","","null","30","","","","","","","","","","","","","","","",""
"","ITI","","html-keyboard-response","202","557281","0.0-1.0-279.0","0","0","93775","","null","","","null","30","","","","","","","","","","","","","","","NaN",""
"","S1","","html-keyboard-response","203","557537","0.0-1.0-281.0","0","0","93775","","null","","","null","31","","","","","","","","","","","","","","","",""
"","ISI","","html-keyboard-response","204","558543","0.0-1.0-282.0","0","0","93775","","null","","","null","31","NaN","","","","","","","","","","","","","","",""
"","S2","","html-keyboard-response","205","558800","0.0-1.0-283.0","0","0","93775","","null","","","null","31","","NaN","","","","","","","","","","","","","",""
"","response","","html-keyboard-response","206","559542","0.0-1.0-284.0-0.0","0","0","93775","","734","","","68","31","","","1","31","training","adjacent","BC","2","3","M.jpg","R.jpg","0","1","0","",""
"","feedback","","html-keyboard-response","207","560553","0.0-1.0-285.0-0.0","0","0","93775","","null","","","null","31","","","","","","","","","","","","","","","",""
"","time_out","","html-keyboard-response","208","562559","0.0-1.0-287.0-0.0","0","0","93775","","null","","","null","31","","","","","","","","","","","","","","","",""
"","ITI","","html-keyboard-response","209","563567","0.0-1.0-288.0","0","0","93775","","null","","","null","31","","","","","","","","","","","","","","","NaN",""
"","S1","","html-keyboard-response","210","563826","0.0-1.0-290.0","0","0","93775","","null","","","null","32","","","","","","","","","","","","","","","",""
"","ISI","","html-keyboard-response","211","564835","0.0-1.0-291.0","0","0","93775","","null","","","null","32","NaN","","","","","","","","","","","","","","",""
"","S2","","html-keyboard-response","212","565095","0.0-1.0-292.0","0","0","93775","","null","","","null","32","","NaN","","","","","","","","","","","","","",""
"","response","","html-keyboard-response","213","565650","0.0-1.0-293.0-0.0","0","0","93775","","550","","","68","32","","","1","32","training","adjacent","BC","2","3","M.jpg","R.jpg","0","1","0","",""
"","feedback","","html-keyboard-response","214","566656","0.0-1.0-294.0-0.0","0","0","93775","","null","","","null","32","","","","","","","","","","","","","","","",""
"","time_out","","html-keyboard-response","215","568665","0.0-1.0-296.0-0.0","0","0","93775","","null","","","null","32","","","","","","","","","","","","","","","",""
"","ITI","","html-keyboard-response","216","569671","0.0-1.0-297.0","0","0","93775","","null","","","null","32","","","","","","","","","","","","","","","NaN",""
"","S1","","html-keyboard-response","217","569936","0.0-1.0-299.0","0","0","93775","","null","","","null","33","","","","","","","","","","","","","","","",""
"","ISI","","html-keyboard-response","218","570945","0.0-1.0-300.0","0","0","93775","","null","","","null","33","NaN","","","","","","","","","","","","","","",""
"","S2","","html-keyboard-response","219","571213","0.0-1.0-301.0","0","0","93775","","null","","","null","33","","NaN","","","","","","","","","","","","","",""
"","response","","html-keyboard-response","220","572028","0.0-1.0-302.0-0.0","0","0","93775","","809","","","68","33","","","1","33","training","adjacent","DE","4","5","O.jpg","L.jpg","0","1","0","",""
"","feedback","","html-keyboard-response","221","573039","0.0-1.0-303.0-0.0","0","0","93775","","null","","","null","33","","","","","","","","","","","","","","","",""
"","time_out","","html-keyboard-response","222","575048","0.0-1.0-305.0-0.0","0","0","93775","","null","","","null","33","","","","","","","","","","","","","","","",""
"","ITI","","html-keyboard-response","223","576056","0.0-1.0-306.0","0","0","93775","","null","","","null","33","","","","","","","","","","","","","","","NaN",""
"","S1","","html-keyboard-response","224","576312","0.0-1.0-308.0","0","0","93775","","null","","","null","34","","","","","","","","","","","","","","","",""
"","ISI","","html-keyboard-response","225","577319","0.0-1.0-309.0","0","0","93775","","null","","","null","34","NaN","","","","","","","","","","","","","","",""
"","S2","","html-keyboard-response","226","577579","0.0-1.0-310.0","0","0","93775","","null","","","null","34","","NaN","","","","","","","","","","","","","",""
"","response","","html-keyboard-response","227","578001","0.0-1.0-311.0-0.0","0","0","93775","","418","","","75","34","","","1","34","training","adjacent","FE","6","5","Q.jpg","L.jpg","1","0","0","",""
"","feedback","","html-keyboard-response","228","579009","0.0-1.0-312.0-0.0","0","0","93775","","null","","","null","34","","","","","","","","","","","","","","","",""
"","time_out","","html-keyboard-response","229","581017","0.0-1.0-314.0-0.0","0","0","93775","","null","","","null","34","","","","","","","","","","","","","","","",""
"","ITI","","html-keyboard-response","230","582025","0.0-1.0-315.0","0","0","93775","","null","","","null","34","","","","","","","","","","","","","","","NaN",""
"","S1","","html-keyboard-response","231","582288","0.0-1.0-317.0","0","0","93775","","null","","","null","35","","","","","","","","","","","","","","","",""
"","ISI","","html-keyboard-response","232","583296","0.0-1.0-318.0","0","0","93775","","null","","","null","35","NaN","","","","","","","","","","","","","","",""
"","S2","","html-keyboard-response","233","583560","0.0-1.0-319.0","0","0","93775","","null","","","null","35","","NaN","","","","","","","","","","","","","",""
"","response","","html-keyboard-response","234","584396","0.0-1.0-320.0-0.0","0","0","93775","","829","","","75","35","","","1","35","training","adjacent","ED","5","4","L.jpg","O.jpg","1","0","0","",""
"","feedback","","html-keyboard-response","235","585408","0.0-1.0-321.0-0.0","0","0","93775","","null","","","null","35","","","","","","","","","","","","","","","",""
"","time_out","","html-keyboard-response","236","587416","0.0-1.0-323.0-0.0","0","0","93775","","null","","","null","35","","","","","","","","","","","","","","","",""
"","ITI","","html-keyboard-response","237","588424","0.0-1.0-324.0","0","0","93775","","null","","","null","35","","","","","","","","","","","","","","","NaN",""
"","S1","","html-keyboard-response","238","588688","0.0-1.0-326.0","0","0","93775","","null","","","null","36","","","","","","","","","","","","","","","",""
"","ISI","","html-keyboard-response","239","589695","0.0-1.0-327.0","0","0","93775","","null","","","null","36","NaN","","","","","","","","","","","","","","",""
"","S2","","html-keyboard-response","240","589952","0.0-1.0-328.0","0","0","93775","","null","","","null","36","","NaN","","","","","","","","","","","","","",""
"","response","","html-keyboard-response","241","590891","0.0-1.0-329.0-0.0","0","0","93775","","932","","","75","36","","","1","36","training","adjacent","AB","1","2","N.jpg","M.jpg","1","1","1","",""
"","feedback","","html-keyboard-response","242","591905","0.0-1.0-330.0-0.0","0","0","93775","","null","","","null","36","","","","","","","","","","","","","","","",""
"","ITI","","html-keyboard-response","243","592912","0.0-1.0-333.0","0","0","93775","","null","","","null","36","","","","","","","","","","","","","","","NaN",""
"","S1","","html-keyboard-response","244","593176","0.0-1.0-335.0","0","0","93775","","null","","","null","37","","","","","","","","","","","","","","","",""
"","ISI","","html-keyboard-response","245","594185","0.0-1.0-336.0","0","0","93775","","null","","","null","37","NaN","","","","","","","","","","","","","","",""
"","S2","","html-keyboard-response","246","594449","0.0-1.0-337.0","0","0","93775","","null","","","null","37","","NaN","","","","","","","","","","","","","",""
"","response","","html-keyboard-response","247","595525","0.0-1.0-338.0-0.0","0","0","93775","","1069","","","75","37","","","1","37","training","adjacent","DE","4","5","O.jpg","L.jpg","1","1","1","",""
"","feedback","","html-keyboard-response","248","596538","0.0-1.0-339.0-0.0","0","0","93775","","null","","","null","37","","","","","","","","","","","","","","","",""
"","ITI","","html-keyboard-response","249","597546","0.0-1.0-342.0","0","0","93775","","null","","","null","37","","","","","","","","","","","","","","","NaN",""
"","S1","","html-keyboard-response","250","597810","0.0-1.0-344.0","0","0","93775","","null","","","null","38","","","","","","","","","","","","","","","",""
"","ISI","","html-keyboard-response","251","598818","0.0-1.0-345.0","0","0","93775","","null","","","null","38","NaN","","","","","","","","","","","","","","",""
"","S2","","html-keyboard-response","252","599082","0.0-1.0-346.0","0","0","93775","","null","","","null","38","","NaN","","","","","","","","","","","","","",""
"","response","","html-keyboard-response","253","599972","0.0-1.0-347.0-0.0","0","0","93775","","884","","","68","38","","","1","38","training","adjacent","DC","4","3","O.jpg","R.jpg","0","0","1","",""
"","feedback","","html-keyboard-response","254","600986","0.0-1.0-348.0-0.0","0","0","93775","","null","","","null","38","","","","","","","","","","","","","","","",""
"","ITI","","html-keyboard-response","255","601994","0.0-1.0-351.0","0","0","93775","","null","","","null","38","","","","","","","","","","","","","","","NaN",""
"","S1","","html-keyboard-response","256","602258","0.0-1.0-353.0","0","0","93775","","null","","","null","39","","","","","","","","","","","","","","","",""
"","ISI","","html-keyboard-response","257","603266","0.0-1.0-354.0","0","0","93775","","null","","","null","39","NaN","","","","","","","","","","","","","","",""
"","S2","","html-keyboard-response","258","603532","0.0-1.0-355.0","0","0","93775","","null","","","null","39","","NaN","","","","","","","","","","","","","",""
"","response","","html-keyboard-response","259","605012","0.0-1.0-356.0-0.0","0","0","93775","","1474","","","75","39","","","1","39","training","adjacent","CB","3","2","R.jpg","M.jpg","1","0","0","",""
"","feedback","","html-keyboard-response","260","606026","0.0-1.0-357.0-0.0","0","0","93775","","null","","","null","39","","","","","","","","","","","","","","","",""
"","time_out","","html-keyboard-response","261","608033","0.0-1.0-359.0-0.0","0","0","93775","","null","","","null","39","","","","","","","","","","","","","","","",""
"","ITI","","html-keyboard-response","262","609040","0.0-1.0-360.0","0","0","93775","","null","","","null","39","","","","","","","","","","","","","","","NaN",""
"","S1","","html-keyboard-response","263","609297","0.0-1.0-362.0","0","0","93775","","null","","","null","40","","","","","","","","","","","","","","","",""
"","ISI","","html-keyboard-response","264","610306","0.0-1.0-363.0","0","0","93775","","null","","","null","40","NaN","","","","","","","","","","","","","","",""
"","S2","","html-keyboard-response","265","610569","0.0-1.0-364.0","0","0","93775","","null","","","null","40","","NaN","","","","","","","","","","","","","",""
"","response","","html-keyboard-response","266","611082","0.0-1.0-365.0-0.0","0","0","93775","","508","","","68","40","","","1","40","training","adjacent","CB","3","2","R.jpg","M.jpg","0","0","1","",""
"","feedback","","html-keyboard-response","267","612089","0.0-1.0-366.0-0.0","0","0","93775","","null","","","null","40","","","","","","","","","","","","","","","",""
"","ITI","","html-keyboard-response","268","613097","0.0-1.0-369.0","0","0","93775","","null","","","null","40","","","","","","","","","","","","","","","NaN",""
"","S1","","html-keyboard-response","269","613361","0.0-1.0-371.0","0","0","93775","","null","","","null","41","","","","","","","","","","","","","","","",""
"","ISI","","html-keyboard-response","270","614369","0.0-1.0-372.0","0","0","93775","","null","","","null","41","NaN","","","","","","","","","","","","","","",""
"","S2","","html-keyboard-response","271","614635","0.0-1.0-373.0","0","0","93775","","null","","","null","41","","NaN","","","","","","","","","","","","","",""
"","response","","html-keyboard-response","272","615732","0.0-1.0-374.0-0.0","0","0","93775","","1090","","","68","41","","","1","41","training","adjacent","BA","2","1","M.jpg","N.jpg","0","0","1","",""
"","feedback","","html-keyboard-response","273","616746","0.0-1.0-375.0-0.0","0","0","93775","","null","","","null","41","","","","","","","","","","","","","","","",""
"","ITI","","html-keyboard-response","274","617753","0.0-1.0-378.0","0","0","93775","","null","","","null","41","","","","","","","","","","","","","","","NaN",""
"","S1","","html-keyboard-response","275","618018","0.0-1.0-380.0","0","0","93775","","null","","","null","42","","","","","","","","","","","","","","","",""
"","ISI","","html-keyboard-response","276","619025","0.0-1.0-381.0","0","0","93775","","null","","","null","42","NaN","","","","","","","","","","","","","","",""
"","S2","","html-keyboard-response","277","619289","0.0-1.0-382.0","0","0","93775","","null","","","null","42","","NaN","","","","","","","","","","","","","",""
"","response","","html-keyboard-response","278","620509","0.0-1.0-383.0-0.0","0","0","93775","","1213","","","75","42","","","1","42","training","adjacent","BC","2","3","M.jpg","R.jpg","1","1","1","",""
"","feedback","","html-keyboard-response","279","621522","0.0-1.0-384.0-0.0","0","0","93775","","null","","","null","42","","","","","","","","","","","","","","","",""
"","ITI","","html-keyboard-response","280","622530","0.0-1.0-387.0","0","0","93775","","null","","","null","42","","","","","","","","","","","","","","","NaN",""
"","S1","","html-keyboard-response","281","622794","0.0-1.0-389.0","0","0","93775","","null","","","null","43","","","","","","","","","","","","","","","",""
"","ISI","","html-keyboard-response","282","623802","0.0-1.0-390.0","0","0","93775","","null","","","null","43","NaN","","","","","","","","","","","","","","",""
"","S2","","html-keyboard-response","283","624067","0.0-1.0-391.0","0","0","93775","","null","","","null","43","","NaN","","","","","","","","","","","","","",""
"","response","","html-keyboard-response","284","625252","0.0-1.0-392.0-0.0","0","0","93775","","1178","","","75","43","","","1","43","training","adjacent","CD","3","4","R.jpg","O.jpg","1","1","1","",""
"","feedback","","html-keyboard-response","285","626266","0.0-1.0-393.0-0.0","0","0","93775","","null","","","null","43","","","","","","","","","","","","","","","",""
"","ITI","","html-keyboard-response","286","627274","0.0-1.0-396.0","0","0","93775","","null","","","null","43","","","","","","","","","","","","","","","NaN",""
"","S1","","html-keyboard-response","287","627538","0.0-1.0-398.0","0","0","93775","","null","","","null","44","","","","","","","","","","","","","","","",""
"","ISI","","html-keyboard-response","288","628546","0.0-1.0-399.0","0","0","93775","","null","","","null","44","NaN","","","","","","","","","","","","","","",""
"","S2","","html-keyboard-response","289","628810","0.0-1.0-400.0","0","0","93775","","null","","","null","44","","NaN","","","","","","","","","","","","","",""
"","response","","html-keyboard-response","290","629747","0.0-1.0-401.0-0.0","0","0","93775","","931","","","68","44","","","1","44","training","adjacent","BA","2","1","M.jpg","N.jpg","0","0","1","",""
"","feedback","","html-keyboard-response","291","630762","0.0-1.0-402.0-0.0","0","0","93775","","null","","","null","44","","","","","","","","","","","","","","","",""
"","ITI","","html-keyboard-response","292","631770","0.0-1.0-405.0","0","0","93775","","null","","","null","44","","","","","","","","","","","","","","","NaN",""
"","S1","","html-keyboard-response","293","632034","0.0-1.0-407.0","0","0","93775","","null","","","null","45","","","","","","","","","","","","","","","",""
"","ISI","","html-keyboard-response","294","633042","0.0-1.0-408.0","0","0","93775","","null","","","null","45","NaN","","","","","","","","","","","","","","",""
"","S2","","html-keyboard-response","295","633306","0.0-1.0-409.0","0","0","93775","","null","","","null","45","","NaN","","","","","","","","","","","","","",""
"","response","","html-keyboard-response","296","634348","0.0-1.0-410.0-0.0","0","0","93775","","1035","","","75","45","","","1","45","training","adjacent","EF","5","6","L.jpg","Q.jpg","1","1","1","",""
"","feedback","","html-keyboard-response","297","635361","0.0-1.0-411.0-0.0","0","0","93775","","null","","","null","45","","","","","","","","","","","","","","","",""
"","ITI","","html-keyboard-response","298","636369","0.0-1.0-414.0","0","0","93775","","null","","","null","45","","","","","","","","","","","","","","","NaN",""
"","S1","","html-keyboard-response","299","636635","0.0-1.0-416.0","0","0","93775","","null","","","null","46","","","","","","","","","","","","","","","",""
"","ISI","","html-keyboard-response","300","637641","0.0-1.0-417.0","0","0","93775","","null","","","null","46","NaN","","","","","","","","","","","","","","",""
"","S2","","html-keyboard-response","301","637905","0.0-1.0-418.0","0","0","93775","","null","","","null","46","","NaN","","","","","","","","","","","","","",""
"","response","","html-keyboard-response","302","638444","0.0-1.0-419.0-0.0","0","0","93775","","532","","","68","46","","","1","46","training","adjacent","GF","7","6","P.jpg","Q.jpg","0","0","1","",""
"","feedback","","html-keyboard-response","303","639457","0.0-1.0-420.0-0.0","0","0","93775","","null","","","null","46","","","","","","","","","","","","","","","",""
"","ITI","","html-keyboard-response","304","640465","0.0-1.0-423.0","0","0","93775","","null","","","null","46","","","","","","","","","","","","","","","NaN",""
"","S1","","html-keyboard-response","305","640729","0.0-1.0-425.0","0","0","93775","","null","","","null","47","","","","","","","","","","","","","","","",""
"","ISI","","html-keyboard-response","306","641736","0.0-1.0-426.0","0","0","93775","","null","","","null","47","NaN","","","","","","","","","","","","","","",""
"","S2","","html-keyboard-response","307","641994","0.0-1.0-427.0","0","0","93775","","null","","","null","47","","NaN","","","","","","","","","","","","","",""
"","response","","html-keyboard-response","308","643753","0.0-1.0-428.0-0.0","0","0","93775","","null","","","null","47","","","1","47","training","adjacent","DE","4","5","O.jpg","L.jpg","NaN","1","0","",""
"","too_slow_prompt","","html-keyboard-response","309","644760","0.0-1.0-430.0-0.0","1","0","93775","","null","","","null","","","","","","","","","","","","","","","","",""
"","time_out","","html-keyboard-response","310","646769","0.0-1.0-431.0-0.0","0","0","93775","","null","","","null","47","","","","","","","","","","","","","","","",""
"","ITI","","html-keyboard-response","311","647776","0.0-1.0-432.0","0","0","93775","","null","","","null","47","","","","","","","","","","","","","","","NaN",""
"","block_over","","html-keyboard-response","312","682573","0.0-1.0-433.0-0.0","0","0","93775","","34790","","","32","47","","","","","","","","","","","","","","","",""
"","S1","","html-keyboard-response","313","682835","0.0-1.0-434.0","0","0","93775","","null","","","null","48","","","","","","","","","","","","","","","",""
"","ISI","","html-keyboard-response","314","683844","0.0-1.0-435.0","0","0","93775","","null","","","null","48","NaN","","","","","","","","","","","","","","",""
"","S2","","html-keyboard-response","315","684107","0.0-1.0-436.0","0","0","93775","","null","","","null","48","","NaN","","","","","","","","","","","","","",""
"","response","","html-keyboard-response","316","684589","0.0-1.0-437.0-0.0","0","0","93775","","475","","","75","48","","","2","48","training","adjacent","BA","2","1","M.jpg","N.jpg","1","0","0","",""
"","feedback","","html-keyboard-response","317","685604","0.0-1.0-438.0-0.0","0","0","93775","","null","","","null","48","","","","","","","","","","","","","","","",""
"","time_out","","html-keyboard-response","318","687611","0.0-1.0-440.0-0.0","0","0","93775","","null","","","null","48","","","","","","","","","","","","","","","",""
"","ITI","","html-keyboard-response","319","688619","0.0-1.0-441.0","0","0","93775","","null","","","null","48","","","","","","","","","","","","","","","NaN",""
"","S1","","html-keyboard-response","320","688883","0.0-1.0-443.0","0","0","93775","","null","","","null","49","","","","","","","","","","","","","","","",""
"","ISI","","html-keyboard-response","321","689891","0.0-1.0-444.0","0","0","93775","","null","","","null","49","NaN","","","","","","","","","","","","","","",""
"","S2","","html-keyboard-response","322","690156","0.0-1.0-445.0","0","0","93775","","null","","","null","49","","NaN","","","","","","","","","","","","","",""
"","response","","html-keyboard-response","323","691117","0.0-1.0-446.0-0.0","0","0","93775","","955","","","75","49","","","2","49","training","adjacent","DE","4","5","O.jpg","L.jpg","1","1","1","",""
"","feedback","","html-keyboard-response","324","692132","0.0-1.0-447.0-0.0","0","0","93775","","null","","","null","49","","","","","","","","","","","","","","","",""
"","ITI","","html-keyboard-response","325","693140","0.0-1.0-450.0","0","0","93775","","null","","","null","49","","","","","","","","","","","","","","","NaN",""
"","S1","","html-keyboard-response","326","693404","0.0-1.0-452.0","0","0","93775","","null","","","null","50","","","","","","","","","","","","","","","",""
"","ISI","","html-keyboard-response","327","694412","0.0-1.0-453.0","0","0","93775","","null","","","null","50","NaN","","","","","","","","","","","","","","",""
"","S2","","html-keyboard-response","328","694676","0.0-1.0-454.0","0","0","93775","","null","","","null","50","","NaN","","","","","","","","","","","","","",""
"","response","","html-keyboard-response","329","695373","0.0-1.0-455.0-0.0","0","0","93775","","690","","","75","50","","","2","50","training","adjacent","EF","5","6","L.jpg","Q.jpg","1","1","1","",""
"","feedback","","html-keyboard-response","330","696388","0.0-1.0-456.0-0.0","0","0","93775","","null","","","null","50","","","","","","","","","","","","","","","",""
"","ITI","","html-keyboard-response","331","697396","0.0-1.0-459.0","0","0","93775","","null","","","null","50","","","","","","","","","","","","","","","NaN",""
"","S1","","html-keyboard-response","332","697660","0.0-1.0-461.0","0","0","93775","","null","","","null","51","","","","","","","","","","","","","","","",""
"","ISI","","html-keyboard-response","333","698676","0.0-1.0-462.0","0","0","93775","","null","","","null","51","NaN","","","","","","","","","","","","","","",""
"","S2","","html-keyboard-response","334","698940","0.0-1.0-463.0","0","0","93775","","null","","","null","51","","NaN","","","","","","","","","","","","","",""
"","response","","html-keyboard-response","335","699500","0.0-1.0-464.0-0.0","0","0","93775","","553","","","68","51","","","2","51","training","adjacent","FE","6","5","Q.jpg","L.jpg","0","0","1","",""
"","feedback","","html-keyboard-response","336","700516","0.0-1.0-465.0-0.0","0","0","93775","","null","","","null","51","","","","","","","","","","","","","","","",""
"","ITI","","html-keyboard-response","337","701524","0.0-1.0-468.0","0","0","93775","","null","","","null","51","","","","","","","","","","","","","","","NaN",""
"","S1","","html-keyboard-response","338","701788","0.0-1.0-470.0","0","0","93775","","null","","","null","52","","","","","","","","","","","","","","","",""
"","ISI","","html-keyboard-response","339","702796","0.0-1.0-471.0","0","0","93775","","null","","","null","52","NaN","","","","","","","","","","","","","","",""
"","S2","","html-keyboard-response","340","703060","0.0-1.0-472.0","0","0","93775","","null","","","null","52","","NaN","","","","","","","","","","","","","",""
"","response","","html-keyboard-response","341","703492","0.0-1.0-473.0-0.0","0","0","93775","","425","","","75","52","","","2","52","training","adjacent","ED","5","4","L.jpg","O.jpg","1","0","0","",""
"","feedback","","html-keyboard-response","342","704508","0.0-1.0-474.0-0.0","0","0","93775","","null","","","null","52","","","","","","","","","","","","","","","",""
"","time_out","","html-keyboard-response","343","706516","0.0-1.0-476.0-0.0","0","0","93775","","null","","","null","52","","","","","","","","","","","","","","","",""
"","ITI","","html-keyboard-response","344","707524","0.0-1.0-477.0","0","0","93775","","null","","","null","52","","","","","","","","","","","","","","","NaN",""
"","S1","","html-keyboard-response","345","707788","0.0-1.0-479.0","0","0","93775","","null","","","null","53","","","","","","","","","","","","","","","",""
"","ISI","","html-keyboard-response","346","708796","0.0-1.0-480.0","0","0","93775","","null","","","null","53","NaN","","","","","","","","","","","","","","",""
"","S2","","html-keyboard-response","347","709060","0.0-1.0-481.0","0","0","93775","","null","","","null","53","","NaN","","","","","","","","","","","","","",""
"","response","","html-keyboard-response","348","709699","0.0-1.0-482.0-0.0","0","0","93775","","634","","","68","53","","","2","53","training","adjacent","CB","3","2","R.jpg","M.jpg","0","0","1","",""
"","feedback","","html-keyboard-response","349","710708","0.0-1.0-483.0-0.0","0","0","93775","","null","","","null","53","","","","","","","","","","","","","","","",""
"","ITI","","html-keyboard-response","350","711715","0.0-1.0-486.0","0","0","93775","","null","","","null","53","","","","","","","","","","","","","","","NaN",""
"","S1","","html-keyboard-response","351","711980","0.0-1.0-488.0","0","0","93775","","null","","","null","54","","","","","","","","","","","","","","","",""
"","ISI","","html-keyboard-response","352","712988","0.0-1.0-489.0","0","0","93775","","null","","","null","54","NaN","","","","","","","","","","","","","","",""
"","S2","","html-keyboard-response","353","713252","0.0-1.0-490.0","0","0","93775","","null","","","null","54","","NaN","","","","","","","","","","","","","",""
"","response","","html-keyboard-response","354","713772","0.0-1.0-491.0-0.0","0","0","93775","","514","","","75","54","","","2","54","training","adjacent","CD","3","4","R.jpg","O.jpg","1","1","1","",""
"","feedback","","html-keyboard-response","355","714788","0.0-1.0-492.0-0.0","0","0","93775","","null","","","null","54","","","","","","","","","","","","","","","",""
"","ITI","","html-keyboard-response","356","715796","0.0-1.0-495.0","0","0","93775","","null","","","null","54","","","","","","","","","","","","","","","NaN",""
"","S1","","html-keyboard-response","357","716060","0.0-1.0-497.0","0","0","93775","","null","","","null","55","","","","","","","","","","","","","","","",""
"","ISI","","html-keyboard-response","358","717068","0.0-1.0-498.0","0","0","93775","","null","","","null","55","NaN","","","","","","","","","","","","","","",""
"","S2","","html-keyboard-response","359","717332","0.0-1.0-499.0","0","0","93775","","null","","","null","55","","NaN","","","","","","","","","","","","","",""
"","response","","html-keyboard-response","360","717812","0.0-1.0-500.0-0.0","0","0","93775","","474","","","68","55","","","2","55","training","adjacent","GF","7","6","P.jpg","Q.jpg","0","0","1","",""
"","feedback","","html-keyboard-response","361","718828","0.0-1.0-501.0-0.0","0","0","93775","","null","","","null","55","","","","","","","","","","","","","","","",""
"","ITI","","html-keyboard-response","362","719835","0.0-1.0-504.0","0","0","93775","","null","","","null","55","","","","","","","","","","","","","","","NaN",""
"","S1","","html-keyboard-response","363","720100","0.0-1.0-506.0","0","0","93775","","null","","","null","56","","","","","","","","","","","","","","","",""
"","ISI","","html-keyboard-response","364","721109","0.0-1.0-507.0","0","0","93775","","null","","","null","56","NaN","","","","","","","","","","","","","","",""
"","S2","","html-keyboard-response","365","721372","0.0-1.0-508.0","0","0","93775","","null","","","null","56","","NaN","","","","","","","","","","","","","",""
"","response","","html-keyboard-response","366","721981","0.0-1.0-509.0-0.0","0","0","93775","","603","","","75","56","","","2","56","training","adjacent","AB","1","2","N.jpg","M.jpg","1","1","1","",""
"","feedback","","html-keyboard-response","367","722996","0.0-1.0-510.0-0.0","0","0","93775","","null","","","null","56","","","","","","","","","","","","","","","",""
"","ITI","","html-keyboard-response","368","724004","0.0-1.0-513.0","0","0","93775","","null","","","null","56","","","","","","","","","","","","","","","NaN",""
"","S1","","html-keyboard-response","369","724268","0.0-1.0-515.0","0","0","93775","","null","","","null","57","","","","","","","","","","","","","","","",""
"","ISI","","html-keyboard-response","370","725276","0.0-1.0-516.0","0","0","93775","","null","","","null","57","NaN","","","","","","","","","","","","","","",""
"","S2","","html-keyboard-response","371","725540","0.0-1.0-517.0","0","0","93775","","null","","","null","57","","NaN","","","","","","","","","","","","","",""
"","response","","html-keyboard-response","372","725992","0.0-1.0-518.0-0.0","0","0","93775","","443","","","75","57","","","2","57","training","adjacent","EF","5","6","L.jpg","Q.jpg","1","1","1","",""
"","feedback","","html-keyboard-response","373","727006","0.0-1.0-519.0-0.0","0","0","93775","","null","","","null","57","","","","","","","","","","","","","","","",""
"","ITI","","html-keyboard-response","374","728020","0.0-1.0-522.0","0","0","93775","","null","","","null","57","","","","","","","","","","","","","","","NaN",""
"","S1","","html-keyboard-response","375","728284","0.0-1.0-524.0","0","0","93775","","null","","","null","58","","","","","","","","","","","","","","","",""
"","ISI","","html-keyboard-response","376","729292","0.0-1.0-525.0","0","0","93775","","null","","","null","58","NaN","","","","","","","","","","","","","","",""
"","S2","","html-keyboard-response","377","729556","0.0-1.0-526.0","0","0","93775","","null","","","null","58","","NaN","","","","","","","","","","","","","",""
"","response","","html-keyboard-response","378","730244","0.0-1.0-527.0-0.0","0","0","93775","","681","","","68","58","","","2","58","training","adjacent","DE","4","5","O.jpg","L.jpg","0","1","0","",""
"","feedback","","html-keyboard-response","379","731260","0.0-1.0-528.0-0.0","0","0","93775","","null","","","null","58","","","","","","","","","","","","","","","",""
"","time_out","","html-keyboard-response","380","733268","0.0-1.0-530.0-0.0","0","0","93775","","null","","","null","58","","","","","","","","","","","","","","","",""
"","ITI","","html-keyboard-response","381","734276","0.0-1.0-531.0","0","0","93775","","null","","","null","58","","","","","","","","","","","","","","","NaN",""
"","S1","","html-keyboard-response","382","734540","0.0-1.0-533.0","0","0","93775","","null","","","null","59","","","","","","","","","","","","","","","",""
"","ISI","","html-keyboard-response","383","735547","0.0-1.0-534.0","0","0","93775","","null","","","null","59","NaN","","","","","","","","","","","","","","",""
"","S2","","html-keyboard-response","384","735805","0.0-1.0-535.0","0","0","93775","","null","","","null","59","","NaN","","","","","","","","","","","","","",""
"","response","","html-keyboard-response","385","736748","0.0-1.0-536.0-0.0","0","0","93775","","937","","","75","59","","","2","59","training","adjacent","ED","5","4","L.jpg","O.jpg","1","0","0","",""
"","feedback","","html-keyboard-response","386","737763","0.0-1.0-537.0-0.0","0","0","93775","","null","","","null","59","","","","","","","","","","","","","","","",""
"","time_out","","html-keyboard-response","387","739771","0.0-1.0-539.0-0.0","0","0","93775","","null","","","null","59","","","","","","","","","","","","","","","",""
"","ITI","","html-keyboard-response","388","740779","0.0-1.0-540.0","0","0","93775","","null","","","null","59","","","","","","","","","","","","","","","NaN",""
"","S1","","html-keyboard-response","389","741044","0.0-1.0-542.0","0","0","93775","","null","","","null","60","","","","","","","","","","","","","","","",""
"","ISI","","html-keyboard-response","390","742052","0.0-1.0-543.0","0","0","93775","","null","","","null","60","NaN","","","","","","","","","","","","","","",""
"","S2","","html-keyboard-response","391","742316","0.0-1.0-544.0","0","0","93775","","null","","","null","60","","NaN","","","","","","","","","","","","","",""
"","response","","html-keyboard-response","392","742797","0.0-1.0-545.0-0.0","0","0","93775","","475","","","68","60","","","2","60","training","adjacent","CD","3","4","R.jpg","O.jpg","0","1","0","",""
"","feedback","","html-keyboard-response","393","743813","0.0-1.0-546.0-0.0","0","0","93775","","null","","","null","60","","","","","","","","","","","","","","","",""
"","time_out","","html-keyboard-response","394","745821","0.0-1.0-548.0-0.0","0","0","93775","","null","","","null","60","","","","","","","","","","","","","","","",""
"","ITI","","html-keyboard-response","395","746836","0.0-1.0-549.0","0","0","93775","","null","","","null","60","","","","","","","","","","","","","","","NaN",""
"","S1","","html-keyboard-response","396","747101","0.0-1.0-551.0","0","0","93775","","null","","","null","61","","","","","","","","","","","","","","","",""
"","ISI","","html-keyboard-response","397","748109","0.0-1.0-552.0","0","0","93775","","null","","","null","61","NaN","","","","","","","","","","","","","","",""
"","S2","","html-keyboard-response","398","748373","0.0-1.0-553.0","0","0","93775","","null","","","null","61","","NaN","","","","","","","","","","","","","",""
"","response","","html-keyboard-response","399","749078","0.0-1.0-554.0-0.0","0","0","93775","","699","","","75","61","","","2","61","training","adjacent","DC","4","3","O.jpg","R.jpg","1","0","0","",""
"","feedback","","html-keyboard-response","400","750093","0.0-1.0-555.0-0.0","0","0","93775","","null","","","null","61","","","","","","","","","","","","","","","",""
"","time_out","","html-keyboard-response","401","752101","0.0-1.0-557.0-0.0","0","0","93775","","null","","","null","61","","","","","","","","","","","","","","","",""
"","ITI","","html-keyboard-response","402","753109","0.0-1.0-558.0","0","0","93775","","null","","","null","61","","","","","","","","","","","","","","","NaN",""
"","S1","","html-keyboard-response","403","753373","0.0-1.0-560.0","0","0","93775","","null","","","null","62","","","","","","","","","","","","","","","",""
"","ISI","","html-keyboard-response","404","754381","0.0-1.0-561.0","0","0","93775","","null","","","null","62","NaN","","","","","","","","","","","","","","",""
"","S2","","html-keyboard-response","405","754647","0.0-1.0-562.0","0","0","93775","","null","","","null","62","","NaN","","","","","","","","","","","","","",""
"","response","","html-keyboard-response","406","755093","0.0-1.0-563.0-0.0","0","0","93775","","439","","","68","62","","","2","62","training","adjacent","BC","2","3","M.jpg","R.jpg","0","1","0","",""
"","feedback","","html-keyboard-response","407","756109","0.0-1.0-564.0-0.0","0","0","93775","","null","","","null","62","","","","","","","","","","","","","","","",""
"","time_out","","html-keyboard-response","408","758117","0.0-1.0-566.0-0.0","0","0","93775","","null","","","null","62","","","","","","","","","","","","","","","",""
"","ITI","","html-keyboard-response","409","759125","0.0-1.0-567.0","0","0","93775","","null","","","null","62","","","","","","","","","","","","","","","NaN",""
"","S1","","html-keyboard-response","410","759389","0.0-1.0-569.0","0","0","93775","","null","","","null","63","","","","","","","","","","","","","","","",""
"","ISI","","html-keyboard-response","411","760397","0.0-1.0-570.0","0","0","93775","","null","","","null","63","NaN","","","","","","","","","","","","","","",""
"","S2","","html-keyboard-response","412","760661","0.0-1.0-571.0","0","0","93775","","null","","","null","63","","NaN","","","","","","","","","","","","","",""
"","response","","html-keyboard-response","413","761662","0.0-1.0-572.0-0.0","0","0","93775","","994","","","75","63","","","2","63","training","adjacent","EF","5","6","L.jpg","Q.jpg","1","1","1","",""
"","feedback","","html-keyboard-response","414","762676","0.0-1.0-573.0-0.0","0","0","93775","","null","","","null","63","","","","","","","","","","","","","","","",""
"","ITI","","html-keyboard-response","415","763684","0.0-1.0-576.0","0","0","93775","","null","","","null","63","","","","","","","","","","","","","","","NaN",""
"","S1","","html-keyboard-response","416","763949","0.0-1.0-578.0","0","0","93775","","null","","","null","64","","","","","","","","","","","","","","","",""
"","ISI","","html-keyboard-response","417","764956","0.0-1.0-579.0","0","0","93775","","null","","","null","64","NaN","","","","","","","","","","","","","","",""
"","S2","","html-keyboard-response","418","765220","0.0-1.0-580.0","0","0","93775","","null","","","null","64","","NaN","","","","","","","","","","","","","",""
"","response","","html-keyboard-response","419","766252","0.0-1.0-581.0-0.0","0","0","93775","","1025","","","68","64","","","2","64","training","adjacent","DE","4","5","O.jpg","L.jpg","0","1","0","",""
"","feedback","","html-keyboard-response","420","767260","0.0-1.0-582.0-0.0","0","0","93775","","null","","","null","64","","","","","","","","","","","","","","","",""
"","time_out","","html-keyboard-response","421","769268","0.0-1.0-584.0-0.0","0","0","93775","","null","","","null","64","","","","","","","","","","","","","","","",""
"","ITI","","html-keyboard-response","422","770276","0.0-1.0-585.0","0","0","93775","","null","","","null","64","","","","","","","","","","","","","","","NaN",""
"","S1","","html-keyboard-response","423","770541","0.0-1.0-587.0","0","0","93775","","null","","","null","65","","","","","","","","","","","","","","","",""
"","ISI","","html-keyboard-response","424","771549","0.0-1.0-588.0","0","0","93775","","null","","","null","65","NaN","","","","","","","","","","","","","","",""
"","S2","","html-keyboard-response","425","771812","0.0-1.0-589.0","0","0","93775","","null","","","null","65","","NaN","","","","","","","","","","","","","",""
"","response","","html-keyboard-response","426","772373","0.0-1.0-590.0-0.0","0","0","93775","","553","","","68","65","","","2","65","training","adjacent","BA","2","1","M.jpg","N.jpg","0","0","1","",""
"","feedback","","html-keyboard-response","427","773390","0.0-1.0-591.0-0.0","0","0","93775","","null","","","null","65","","","","","","","","","","","","","","","",""
"","ITI","","html-keyboard-response","428","774405","0.0-1.0-594.0","0","0","93775","","null","","","null","65","","","","","","","","","","","","","","","NaN",""
"","S1","","html-keyboard-response","429","774669","0.0-1.0-596.0","0","0","93775","","null","","","null","66","","","","","","","","","","","","","","","",""
"","ISI","","html-keyboard-response","430","775677","0.0-1.0-597.0","0","0","93775","","null","","","null","66","NaN","","","","","","","","","","","","","","",""
"","S2","","html-keyboard-response","431","775941","0.0-1.0-598.0","0","0","93775","","null","","","null","66","","NaN","","","","","","","","","","","","","",""
"","response","","html-keyboard-response","432","776788","0.0-1.0-599.0-0.0","0","0","93775","","841","","","75","66","","","2","66","training","adjacent","AB","1","2","N.jpg","M.jpg","1","1","1","",""
"","feedback","","html-keyboard-response","433","777797","0.0-1.0-600.0-0.0","0","0","93775","","null","","","null","66","","","","","","","","","","","","","","","",""
"","ITI","","html-keyboard-response","434","778805","0.0-1.0-603.0","0","0","93775","","null","","","null","66","","","","","","","","","","","","","","","NaN",""
"","S1","","html-keyboard-response","435","779069","0.0-1.0-605.0","0","0","93775","","null","","","null","67","","","","","","","","","","","","","","","",""
"","ISI","","html-keyboard-response","436","780077","0.0-1.0-606.0","0","0","93775","","null","","","null","67","NaN","","","","","","","","","","","","","","",""
"","S2","","html-keyboard-response","437","780341","0.0-1.0-607.0","0","0","93775","","null","","","null","67","","NaN","","","","","","","","","","","","","",""
"","response","","html-keyboard-response","438","781420","0.0-1.0-608.0-0.0","0","0","93775","","1072","","","75","67","","","2","67","training","adjacent","CB","3","2","R.jpg","M.jpg","1","0","0","",""
"","feedback","","html-keyboard-response","439","782429","0.0-1.0-609.0-0.0","0","0","93775","","null","","","null","67","","","","","","","","","","","","","","","",""
"","time_out","","html-keyboard-response","440","784437","0.0-1.0-611.0-0.0","0","0","93775","","null","","","null","67","","","","","","","","","","","","","","","",""
"","ITI","","html-keyboard-response","441","785445","0.0-1.0-612.0","0","0","93775","","null","","","null","67","","","","","","","","","","","","","","","NaN",""
"","S1","","html-keyboard-response","442","785708","0.0-1.0-614.0","0","0","93775","","null","","","null","68","","","","","","","","","","","","","","","",""
"","ISI","","html-keyboard-response","443","786715","0.0-1.0-615.0","0","0","93775","","null","","","null","68","NaN","","","","","","","","","","","","","","",""
"","S2","","html-keyboard-response","444","786972","0.0-1.0-616.0","0","0","93775","","null","","","null","68","","NaN","","","","","","","","","","","","","",""
"","response","","html-keyboard-response","445","787638","0.0-1.0-617.0-0.0","0","0","93775","","657","","","75","68","","","2","68","training","adjacent","DC","4","3","O.jpg","R.jpg","1","0","0","",""
"","feedback","","html-keyboard-response","446","788653","0.0-1.0-618.0-0.0","0","0","93775","","null","","","null","68","","","","","","","","","","","","","","","",""
"","time_out","","html-keyboard-response","447","790660","0.0-1.0-620.0-0.0","0","0","93775","","null","","","null","68","","","","","","","","","","","","","","","",""
"","ITI","","html-keyboard-response","448","791668","0.0-1.0-621.0","0","0","93775","","null","","","null","68","","","","","","","","","","","","","","","NaN",""
"","S1","","html-keyboard-response","449","791932","0.0-1.0-623.0","0","0","93775","","null","","","null","69","","","","","","","","","","","","","","","",""
"","ISI","","html-keyboard-response","450","792940","0.0-1.0-624.0","0","0","93775","","null","","","null","69","NaN","","","","","","","","","","","","","","",""
"","S2","","html-keyboard-response","451","793204","0.0-1.0-625.0","0","0","93775","","null","","","null","69","","NaN","","","","","","","","","","","","","",""
"","response","","html-keyboard-response","452","793679","0.0-1.0-626.0-0.0","0","0","93775","","467","","","68","69","","","2","69","training","adjacent","BA","2","1","M.jpg","N.jpg","0","0","1","",""
"","feedback","","html-keyboard-response","453","794691","0.0-1.0-627.0-0.0","0","0","93775","","null","","","null","69","","","","","","","","","","","","","","","",""
"","ITI","","html-keyboard-response","454","795699","0.0-1.0-630.0","0","0","93775","","null","","","null","69","","","","","","","","","","","","","","","NaN",""
"","S1","","html-keyboard-response","455","795956","0.0-1.0-632.0","0","0","93775","","null","","","null","70","","","","","","","","","","","","","","","",""
"","ISI","","html-keyboard-response","456","796965","0.0-1.0-633.0","0","0","93775","","null","","","null","70","NaN","","","","","","","","","","","","","","",""
"","S2","","html-keyboard-response","457","797229","0.0-1.0-634.0","0","0","93775","","null","","","null","70","","NaN","","","","","","","","","","","","","",""
"","response","","html-keyboard-response","458","798388","0.0-1.0-635.0-0.0","0","0","93775","","1152","","","68","70","","","2","70","training","adjacent","FG","6","7","Q.jpg","P.jpg","0","1","0","",""
"","feedback","","html-keyboard-response","459","799405","0.0-1.0-636.0-0.0","0","0","93775","","null","","","null","70","","","","","","","","","","","","","","","",""
"","time_out","","html-keyboard-response","460","801421","0.0-1.0-638.0-0.0","0","0","93775","","null","","","null","70","","","","","","","","","","","","","","","",""
"","ITI","","html-keyboard-response","461","802429","0.0-1.0-639.0","0","0","93775","","null","","","null","70","","","","","","","","","","","","","","","NaN",""
"","S1","","html-keyboard-response","462","802691","0.0-1.0-641.0","0","0","93775","","null","","","null","71","","","","","","","","","","","","","","","",""
"","ISI","","html-keyboard-response","463","803702","0.0-1.0-642.0","0","0","93775","","null","","","null","71","NaN","","","","","","","","","","","","","","",""
"","S2","","html-keyboard-response","464","803966","0.0-1.0-643.0","0","0","93775","","null","","","null","71","","NaN","","","","","","","","","","","","","",""
"","response","","html-keyboard-response","465","804749","0.0-1.0-644.0-0.0","0","0","93775","","776","","","75","71","","","2","71","training","adjacent","CD","3","4","R.jpg","O.jpg","1","1","1","",""
"","feedback","","html-keyboard-response","466","805758","0.0-1.0-645.0-0.0","0","0","93775","","null","","","null","71","","","","","","","","","","","","","","","",""
"","ITI","","html-keyboard-response","467","806774","0.0-1.0-648.0","0","0","93775","","null","","","null","71","","","","","","","","","","","","","","","NaN",""
"","S1","","html-keyboard-response","468","807038","0.0-1.0-650.0","0","0","93775","","null","","","null","72","","","","","","","","","","","","","","","",""
"","ISI","","html-keyboard-response","469","808046","0.0-1.0-651.0","0","0","93775","","null","","","null","72","NaN","","","","","","","","","","","","","","",""
"","S2","","html-keyboard-response","470","808310","0.0-1.0-652.0","0","0","93775","","null","","","null","72","","NaN","","","","","","","","","","","","","",""
"","response","","html-keyboard-response","471","809045","0.0-1.0-653.0-0.0","0","0","93775","","728","","","75","72","","","2","72","training","adjacent","DC","4","3","O.jpg","R.jpg","1","0","0","",""
"","feedback","","html-keyboard-response","472","810055","0.0-1.0-654.0-0.0","0","0","93775","","null","","","null","72","","","","","","","","","","","","","","","",""
"","time_out","","html-keyboard-response","473","812070","0.0-1.0-656.0-0.0","0","0","93775","","null","","","null","72","","","","","","","","","","","","","","","",""
"","ITI","","html-keyboard-response","474","813078","0.0-1.0-657.0","0","0","93775","","null","","","null","72","","","","","","","","","","","","","","","NaN",""
"","S1","","html-keyboard-response","475","813341","0.0-1.0-659.0","0","0","93775","","null","","","null","73","","","","","","","","","","","","","","","",""
"","ISI","","html-keyboard-response","476","814350","0.0-1.0-660.0","0","0","93775","","null","","","null","73","NaN","","","","","","","","","","","","","","",""
"","S2","","html-keyboard-response","477","814614","0.0-1.0-661.0","0","0","93775","","null","","","null","73","","NaN","","","","","","","","","","","","","",""
"","response","","html-keyboard-response","478","815932","0.0-1.0-662.0-0.0","0","0","93775","","1312","","","68","73","","","2","73","training","adjacent","BC","2","3","M.jpg","R.jpg","0","1","0","",""
"","feedback","","html-keyboard-response","479","816942","0.0-1.0-663.0-0.0","0","0","93775","","null","","","null","73","","","","","","","","","","","","","","","",""
"","time_out","","html-keyboard-response","480","818950","0.0-1.0-665.0-0.0","0","0","93775","","null","","","null","73","","","","","","","","","","","","","","","",""
"","ITI","","html-keyboard-response","481","819958","0.0-1.0-666.0","0","0","93775","","null","","","null","73","","","","","","","","","","","","","","","NaN",""
"","S1","","html-keyboard-response","482","820222","0.0-1.0-668.0","0","0","93775","","null","","","null","74","","","","","","","","","","","","","","","",""
"","ISI","","html-keyboard-response","483","821230","0.0-1.0-669.0","0","0","93775","","null","","","null","74","NaN","","","","","","","","","","","","","","",""
"","S2","","html-keyboard-response","484","821494","0.0-1.0-670.0","0","0","93775","","null","","","null","74","","NaN","","","","","","","","","","","","","",""
"","response","","html-keyboard-response","485","821917","0.0-1.0-671.0-0.0","0","0","93775","","416","","","75","74","","","2","74","training","adjacent","CB","3","2","R.jpg","M.jpg","1","0","0","",""
"","feedback","","html-keyboard-response","486","822926","0.0-1.0-672.0-0.0","0","0","93775","","null","","","null","74","","","","","","","","","","","","","","","",""
"","time_out","","html-keyboard-response","487","824942","0.0-1.0-674.0-0.0","0","0","93775","","null","","","null","74","","","","","","","","","","","","","","","",""
"","ITI","","html-keyboard-response","488","825950","0.0-1.0-675.0","0","0","93775","","null","","","null","74","","","","","","","","","","","","","","","NaN",""
"","S1","","html-keyboard-response","489","826214","0.0-1.0-677.0","0","0","93775","","null","","","null","75","","","","","","","","","","","","","","","",""
"","ISI","","html-keyboard-response","490","827222","0.0-1.0-678.0","0","0","93775","","null","","","null","75","NaN","","","","","","","","","","","","","","",""
"","S2","","html-keyboard-response","491","827486","0.0-1.0-679.0","0","0","93775","","null","","","null","75","","NaN","","","","","","","","","","","","","",""
"","response","","html-keyboard-response","492","828668","0.0-1.0-680.0-0.0","0","0","93775","","1175","","","75","75","","","2","75","training","adjacent","FE","6","5","Q.jpg","L.jpg","1","0","0","",""
"","feedback","","html-keyboard-response","493","829678","0.0-1.0-681.0-0.0","0","0","93775","","null","","","null","75","","","","","","","","","","","","","","","",""
"","time_out","","html-keyboard-response","494","831686","0.0-1.0-683.0-0.0","0","0","93775","","null","","","null","75","","","","","","","","","","","","","","","",""
"","ITI","","html-keyboard-response","495","832694","0.0-1.0-684.0","0","0","93775","","null","","","null","75","","","","","","","","","","","","","","","NaN",""
"","S1","","html-keyboard-response","496","832958","0.0-1.0-686.0","0","0","93775","","null","","","null","76","","","","","","","","","","","","","","","",""
"","ISI","","html-keyboard-response","497","833968","0.0-1.0-687.0","0","0","93775","","null","","","null","76","NaN","","","","","","","","","","","","","","",""
"","S2","","html-keyboard-response","498","834231","0.0-1.0-688.0","0","0","93775","","null","","","null","76","","NaN","","","","","","","","","","","","","",""
"","response","","html-keyboard-response","499","834716","0.0-1.0-689.0-0.0","0","0","93775","","479","","","68","76","","","2","76","training","adjacent","AB","1","2","N.jpg","M.jpg","0","1","0","",""
"","feedback","","html-keyboard-response","500","835726","0.0-1.0-690.0-0.0","0","0","93775","","null","","","null","76","","","","","","","","","","","","","","","",""
"","time_out","","html-keyboard-response","501","837742","0.0-1.0-692.0-0.0","0","0","93775","","null","","","null","76","","","","","","","","","","","","","","","",""
"","ITI","","html-keyboard-response","502","838749","0.0-1.0-693.0","0","0","93775","","null","","","null","76","","","","","","","","","","","","","","","NaN",""
"","S1","","html-keyboard-response","503","839013","0.0-1.0-695.0","0","0","93775","","null","","","null","77","","","","","","","","","","","","","","","",""
"","ISI","","html-keyboard-response","504","840022","0.0-1.0-696.0","0","0","93775","","null","","","null","77","NaN","","","","","","","","","","","","","","",""
"","S2","","html-keyboard-response","505","840285","0.0-1.0-697.0","0","0","93775","","null","","","null","77","","NaN","","","","","","","","","","","","","",""
"","response","","html-keyboard-response","506","840752","0.0-1.0-698.0-0.0","0","0","93775","","460","","","68","77","","","2","77","training","adjacent","CD","3","4","R.jpg","O.jpg","0","1","0","",""
"","feedback","","html-keyboard-response","507","841764","0.0-1.0-699.0-0.0","0","0","93775","","null","","","null","77","","","","","","","","","","","","","","","",""
"","time_out","","html-keyboard-response","508","843774","0.0-1.0-701.0-0.0","0","0","93775","","null","","","null","77","","","","","","","","","","","","","","","",""
"","ITI","","html-keyboard-response","509","844782","0.0-1.0-702.0","0","0","93775","","null","","","null","77","","","","","","","","","","","","","","","NaN",""
"","S1","","html-keyboard-response","510","845046","0.0-1.0-704.0","0","0","93775","","null","","","null","78","","","","","","","","","","","","","","","",""
"","ISI","","html-keyboard-response","511","846054","0.0-1.0-705.0","0","0","93775","","null","","","null","78","NaN","","","","","","","","","","","","","","",""
"","S2","","html-keyboard-response","512","846319","0.0-1.0-706.0","0","0","93775","","null","","","null","78","","NaN","","","","","","","","","","","","","",""
"","response","","html-keyboard-response","513","846861","0.0-1.0-707.0-0.0","0","0","93775","","535","","","68","78","","","2","78","training","adjacent","FG","6","7","Q.jpg","P.jpg","0","1","0","",""
"","feedback","","html-keyboard-response","514","847870","0.0-1.0-708.0-0.0","0","0","93775","","null","","","null","78","","","","","","","","","","","","","","","",""
"","time_out","","html-keyboard-response","515","849886","0.0-1.0-710.0-0.0","0","0","93775","","null","","","null","78","","","","","","","","","","","","","","","",""
"","ITI","","html-keyboard-response","516","850894","0.0-1.0-711.0","0","0","93775","","null","","","null","78","","","","","","","","","","","","","","","NaN",""
"","S1","","html-keyboard-response","517","851158","0.0-1.0-713.0","0","0","93775","","null","","","null","79","","","","","","","","","","","","","","","",""
"","ISI","","html-keyboard-response","518","852166","0.0-1.0-714.0","0","0","93775","","null","","","null","79","NaN","","","","","","","","","","","","","","",""
"","S2","","html-keyboard-response","519","852430","0.0-1.0-715.0","0","0","93775","","null","","","null","79","","NaN","","","","","","","","","","","","","",""
"","response","","html-keyboard-response","520","853396","0.0-1.0-716.0-0.0","0","0","93775","","959","","","75","79","","","2","79","training","adjacent","BC","2","3","M.jpg","R.jpg","1","1","1","",""
"","feedback","","html-keyboard-response","521","854406","0.0-1.0-717.0-0.0","0","0","93775","","null","","","null","79","","","","","","","","","","","","","","","",""
"","ITI","","html-keyboard-response","522","855422","0.0-1.0-720.0","0","0","93775","","null","","","null","79","","","","","","","","","","","","","","","NaN",""
"","S1","","html-keyboard-response","523","855694","0.0-1.0-722.0","0","0","93775","","null","","","null","80","","","","","","","","","","","","","","","",""
"","ISI","","html-keyboard-response","524","856704","0.0-1.0-723.0","0","0","93775","","null","","","null","80","NaN","","","","","","","","","","","","","","",""
"","S2","","html-keyboard-response","525","856966","0.0-1.0-724.0","0","0","93775","","null","","","null","80","","NaN","","","","","","","","","","","","","",""
"","response","","html-keyboard-response","526","857573","0.0-1.0-725.0-0.0","0","0","93775","","600","","","75","80","","","2","80","training","adjacent","ED","5","4","L.jpg","O.jpg","1","0","0","",""
"","feedback","","html-keyboard-response","527","858582","0.0-1.0-726.0-0.0","0","0","93775","","null","","","null","80","","","","","","","","","","","","","","","",""
"","time_out","","html-keyboard-response","528","860598","0.0-1.0-728.0-0.0","0","0","93775","","null","","","null","80","","","","","","","","","","","","","","","",""
"","ITI","","html-keyboard-response","529","861606","0.0-1.0-729.0","0","0","93775","","null","","","null","80","","","","","","","","","","","","","","","NaN",""
"","S1","","html-keyboard-response","530","861869","0.0-1.0-731.0","0","0","93775","","null","","","null","81","","","","","","","","","","","","","","","",""
"","ISI","","html-keyboard-response","531","862877","0.0-1.0-732.0","0","0","93775","","null","","","null","81","NaN","","","","","","","","","","","","","","",""
"","S2","","html-keyboard-response","532","863142","0.0-1.0-733.0","0","0","93775","","null","","","null","81","","NaN","","","","","","","","","","","","","",""
"","response","","html-keyboard-response","533","863332","0.0-1.0-734.0-0.0","0","0","93775","","184","","","68","81","","","2","81","training","adjacent","GF","7","6","P.jpg","Q.jpg","0","0","1","",""
"","feedback","","html-keyboard-response","534","864343","0.0-1.0-735.0-0.0","0","0","93775","","null","","","null","81","","","","","","","","","","","","","","","",""
"","ITI","","html-keyboard-response","535","865351","0.0-1.0-738.0","0","0","93775","","null","","","null","81","","","","","","","","","","","","","","","NaN",""
"","S1","","html-keyboard-response","536","865615","0.0-1.0-740.0","0","0","93775","","null","","","null","82","","","","","","","","","","","","","","","",""
"","ISI","","html-keyboard-response","537","866623","0.0-1.0-741.0","0","0","93775","","null","","","null","82","NaN","","","","","","","","","","","","","","",""
"","S2","","html-keyboard-response","538","866887","0.0-1.0-742.0","0","0","93775","","null","","","null","82","","NaN","","","","","","","","","","","","","",""
"","response","","html-keyboard-response","539","867982","0.0-1.0-743.0-0.0","0","0","93775","","1088","","","68","82","","","2","82","training","adjacent","EF","5","6","L.jpg","Q.jpg","0","1","0","",""
"","feedback","","html-keyboard-response","540","868991","0.0-1.0-744.0-0.0","0","0","93775","","null","","","null","82","","","","","","","","","","","","","","","",""
"","time_out","","html-keyboard-response","541","870999","0.0-1.0-746.0-0.0","0","0","93775","","null","","","null","82","","","","","","","","","","","","","","","",""
"","ITI","","html-keyboard-response","542","872009","0.0-1.0-747.0","0","0","93775","","null","","","null","82","","","","","","","","","","","","","","","NaN",""
"","S1","","html-keyboard-response","543","872271","0.0-1.0-749.0","0","0","93775","","null","","","null","83","","","","","","","","","","","","","","","",""
"","ISI","","html-keyboard-response","544","873279","0.0-1.0-750.0","0","0","93775","","null","","","null","83","NaN","","","","","","","","","","","","","","",""
"","S2","","html-keyboard-response","545","873543","0.0-1.0-751.0","0","0","93775","","null","","","null","83","","NaN","","","","","","","","","","","","","",""
"","response","","html-keyboard-response","546","874541","0.0-1.0-752.0-0.0","0","0","93775","","990","","","75","83","","","2","83","training","adjacent","BA","2","1","M.jpg","N.jpg","1","0","0","",""
"","feedback","","html-keyboard-response","547","875551","0.0-1.0-753.0-0.0","0","0","93775","","null","","","null","83","","","","","","","","","","","","","","","",""
"","time_out","","html-keyboard-response","548","877559","0.0-1.0-755.0-0.0","0","0","93775","","null","","","null","83","","","","","","","","","","","","","","","",""
"","ITI","","html-keyboard-response","549","878567","0.0-1.0-756.0","0","0","93775","","null","","","null","83","","","","","","","","","","","","","","","NaN",""
"","S1","","html-keyboard-response","550","878831","0.0-1.0-758.0","0","0","93775","","null","","","null","84","","","","","","","","","","","","","","","",""
"","ISI","","html-keyboard-response","551","879839","0.0-1.0-759.0","0","0","93775","","null","","","null","84","NaN","","","","","","","","","","","","","","",""
"","S2","","html-keyboard-response","552","880103","0.0-1.0-760.0","0","0","93775","","null","","","null","84","","NaN","","","","","","","","","","","","","",""
"","response","","html-keyboard-response","553","880588","0.0-1.0-761.0-0.0","0","0","93775","","479","","","68","84","","","2","84","training","adjacent","BC","2","3","M.jpg","R.jpg","0","1","0","",""
"","feedback","","html-keyboard-response","554","881599","0.0-1.0-762.0-0.0","0","0","93775","","null","","","null","84","","","","","","","","","","","","","","","",""
"","time_out","","html-keyboard-response","555","883615","0.0-1.0-764.0-0.0","0","0","93775","","null","","","null","84","","","","","","","","","","","","","","","",""
"","ITI","","html-keyboard-response","556","884623","0.0-1.0-765.0","0","0","93775","","null","","","null","84","","","","","","","","","","","","","","","NaN",""
"","S1","","html-keyboard-response","557","884887","0.0-1.0-767.0","0","0","93775","","null","","","null","85","","","","","","","","","","","","","","","",""
"","ISI","","html-keyboard-response","558","885896","0.0-1.0-768.0","0","0","93775","","null","","","null","85","NaN","","","","","","","","","","","","","","",""
"","S2","","html-keyboard-response","559","886159","0.0-1.0-769.0","0","0","93775","","null","","","null","85","","NaN","","","","","","","","","","","","","",""
"","response","","html-keyboard-response","560","886573","0.0-1.0-770.0-0.0","0","0","93775","","407","","","75","85","","","2","85","training","adjacent","DC","4","3","O.jpg","R.jpg","1","0","0","",""
"","feedback","","html-keyboard-response","561","887583","0.0-1.0-771.0-0.0","0","0","93775","","null","","","null","85","","","","","","","","","","","","","","","",""
"","time_out","","html-keyboard-response","562","889598","0.0-1.0-773.0-0.0","0","0","93775","","null","","","null","85","","","","","","","","","","","","","","","",""
"","ITI","","html-keyboard-response","563","890607","0.0-1.0-774.0","0","0","93775","","null","","","null","85","","","","","","","","","","","","","","","NaN",""
"","S1","","html-keyboard-response","564","890870","0.0-1.0-776.0","0","0","93775","","null","","","null","86","","","","","","","","","","","","","","","",""
"","ISI","","html-keyboard-response","565","891879","0.0-1.0-777.0","0","0","93775","","null","","","null","86","NaN","","","","","","","","","","","","","","",""
"","S2","","html-keyboard-response","566","892143","0.0-1.0-778.0","0","0","93775","","null","","","null","86","","NaN","","","","","","","","","","","","","",""
"","response","","html-keyboard-response","567","892901","0.0-1.0-779.0-0.0","0","0","93775","","751","","","68","86","","","2","86","training","adjacent","GF","7","6","P.jpg","Q.jpg","0","0","1","",""
"","feedback","","html-keyboard-response","568","893911","0.0-1.0-780.0-0.0","0","0","93775","","null","","","null","86","","","","","","","","","","","","","","","",""
"","ITI","","html-keyboard-response","569","894927","0.0-1.0-783.0","0","0","93775","","null","","","null","86","","","","","","","","","","","","","","","NaN",""
"","S1","","html-keyboard-response","570","895191","0.0-1.0-785.0","0","0","93775","","null","","","null","87","","","","","","","","","","","","","","","",""
"","ISI","","html-keyboard-response","571","896199","0.0-1.0-786.0","0","0","93775","","null","","","null","87","NaN","","","","","","","","","","","","","","",""
"","S2","","html-keyboard-response","572","896463","0.0-1.0-787.0","0","0","93775","","null","","","null","87","","NaN","","","","","","","","","","","","","",""
"","response","","html-keyboard-response","573","897508","0.0-1.0-788.0-0.0","0","0","93775","","1038","","","75","87","","","2","87","training","adjacent","CB","3","2","R.jpg","M.jpg","1","0","0","",""
"","feedback","","html-keyboard-response","574","898519","0.0-1.0-789.0-0.0","0","0","93775","","null","","","null","87","","","","","","","","","","","","","","","",""
"","time_out","","html-keyboard-response","575","900535","0.0-1.0-791.0-0.0","0","0","93775","","null","","","null","87","","","","","","","","","","","","","","","",""
"","ITI","","html-keyboard-response","576","901543","0.0-1.0-792.0","0","0","93775","","null","","","null","87","","","","","","","","","","","","","","","NaN",""
"","S1","","html-keyboard-response","577","901807","0.0-1.0-794.0","0","0","93775","","null","","","null","88","","","","","","","","","","","","","","","",""
"","ISI","","html-keyboard-response","578","902815","0.0-1.0-795.0","0","0","93775","","null","","","null","88","NaN","","","","","","","","","","","","","","",""
"","S2","","html-keyboard-response","579","903079","0.0-1.0-796.0","0","0","93775","","null","","","null","88","","NaN","","","","","","","","","","","","","",""
