"success","ttype","start_time","trial_type","trial_index","time_elapsed","internal_node_id","warning","missed_checkup","PID","view_history","rt","responses","repeat_instructions","key_press","index","keypress_isi","keypress_S2","block","trial_num","phase","group_type","pair_type","S1_stim","S2_stim","S1_img","S2_img","S1_chosen","S1_higher","accuracy","keypress_iti","total_bonus_tally"
"true","full_screen","d04132023hr1604","fullscreen","0","27941","0.0-0.0","0","0","38371","","","","","","","","","","","","","","","","","","","","","",""
"","instructions","","instructions","1","166156","0.0-1.0-0.0-0.0","0","0","38371","[{""page_index"":0,""viewing_time"":23051},{""page_index"":1,""viewing_time"":99401},{""page_index"":2,""viewing_time"":11708},{""page_index"":3,""viewing_time"":4051}]","138212","","","","","","","","","","","","","","","","","","","",""
"","comprehension_check","","survey-multi-choice","2","193068","0.0-1.0-0.0-1.0","0","0","38371","","26907","{""Q0"":""True"",""Q1"":""K"",""Q2"":""Only when the screen 'MAKE A CHOICE' is shown"",""Q3"":""Green mark"",""Q4"":""either D or K""}","1","","","","","","","","","","","","","","","","","",""
"","missed_instruction_checkup","","html-keyboard-response","3","195393","0.0-1.0-0.0-2.0-0.0","0","1","38371","","2323","","","32","","","","","","","","","","","","","","","","",""
"","instructions","","instructions","4","228790","0.0-1.0-0.1-0.1","0","0","38371","[{""page_index"":0,""viewing_time"":4280},{""page_index"":1,""viewing_time"":21359},{""page_index"":2,""viewing_time"":5789},{""page_index"":3,""viewing_time"":1967}]","33396","","","","","","","","","","","","","","","","","","","",""
"","comprehension_check","","survey-multi-choice","5","271550","0.0-1.0-0.1-1.1","0","0","38371","","42756","{""Q0"":""True"",""Q1"":""K"",""Q2"":""Once the second image appears and while the screen 'MAKE A CHOICE' is shown"",""Q3"":""Green mark"",""Q4"":""either D or K""}","0","","","","","","","","","","","","","","","","","",""
"","start_exp","","html-keyboard-response","6","274403","0.0-1.0-1.0","0","0","38371","","2851","","","32","","","","","","","","","","","","","","","","",""
"","S1","","html-keyboard-response","7","274655","0.0-1.0-2.0","0","0","38371","","null","","","null","0","","","","","","","","","","","","","","","",""
"","ISI","","html-keyboard-response","8","275658","0.0-1.0-3.0","0","0","38371","","null","","","null","0","NaN","","","","","","","","","","","","","","",""
"","S2","","html-keyboard-response","9","275910","0.0-1.0-4.0","0","0","38371","","null","","","null","0","","NaN","","","","","","","","","","","","","",""
"","response","","html-keyboard-response","10","277662","0.0-1.0-5.0-0.0","0","0","38371","","null","","","null","0","","","1","0","training","adjacent","CD","3","4","N.jpg","O.jpg","NaN","1","0","",""
"","too_slow_prompt","","html-keyboard-response","11","278664","0.0-1.0-7.0-0.0","1","0","38371","","null","","","null","","","","","","","","","","","","","","","","",""
"","time_out","","html-keyboard-response","12","280667","0.0-1.0-8.0-0.0","0","0","38371","","null","","","null","0","","","","","","","","","","","","","","","",""
"","ITI","","html-keyboard-response","13","281669","0.0-1.0-9.0","0","0","38371","","null","","","null","0","","","","","","","","","","","","","","","NaN",""
"","S1","","html-keyboard-response","14","281922","0.0-1.0-11.0","0","0","38371","","null","","","null","1","","","","","","","","","","","","","","","",""
"","ISI","","html-keyboard-response","15","282925","0.0-1.0-12.0","0","0","38371","","null","","","null","1","NaN","","","","","","","","","","","","","","",""
"","S2","","html-keyboard-response","16","283179","0.0-1.0-13.0","0","0","38371","","null","","","null","1","","NaN","","","","","","","","","","","","","",""
"","response","","html-keyboard-response","17","283686","0.0-1.0-14.0-0.0","0","0","38371","","506","","","68","1","","","1","1","training","adjacent","BA","2","1","M.jpg","L.jpg","0","0","1","",""
"","feedback","","html-keyboard-response","18","284688","0.0-1.0-15.0-0.0","0","0","38371","","null","","","null","1","","","","","","","","","","","","","","","",""
"","ITI","","html-keyboard-response","19","285690","0.0-1.0-18.0","0","0","38371","","null","","","null","1","","","","","","","","","","","","","","","NaN",""
"","S1","","html-keyboard-response","20","285942","0.0-1.0-20.0","0","0","38371","","null","","","null","2","","","","","","","","","","","","","","","",""
"","ISI","","html-keyboard-response","21","286944","0.0-1.0-21.0","0","0","38371","","null","","","null","2","NaN","","","","","","","","","","","","","","",""
"","S2","","html-keyboard-response","22","287196","0.0-1.0-22.0","0","0","38371","","null","","","null","2","","NaN","","","","","","","","","","","","","",""
"","response","","html-keyboard-response","23","287668","0.0-1.0-23.0-0.0","0","0","38371","","470","","","68","2","","","1","2","training","adjacent","GF","7","6","P.jpg","R.jpg","0","0","1","",""
"","feedback","","html-keyboard-response","24","288670","0.0-1.0-24.0-0.0","0","0","38371","","null","","","null","2","","","","","","","","","","","","","","","",""
"","ITI","","html-keyboard-response","25","289672","0.0-1.0-27.0","0","0","38371","","387","","","32","2","","","","","","","","","","","","","","","space",""
"","S1","","html-keyboard-response","26","289925","0.0-1.0-29.0","0","0","38371","","null","","","null","3","","","","","","","","","","","","","","","",""
"","ISI","","html-keyboard-response","27","290928","0.0-1.0-30.0","0","0","38371","","null","","","null","3","NaN","","","","","","","","","","","","","","",""
"","S2","","html-keyboard-response","28","291180","0.0-1.0-31.0","0","0","38371","","null","","","null","3","","NaN","","","","","","","","","","","","","",""
"","response","","html-keyboard-response","29","291574","0.0-1.0-32.0-0.0","0","0","38371","","393","","","75","3","","","1","3","training","adjacent","CB","3","2","N.jpg","M.jpg","1","0","0","",""
"","feedback","","html-keyboard-response","30","292577","0.0-1.0-33.0-0.0","0","0","38371","","null","","","null","3","","","","","","","","","","","","","","","",""
"","time_out","","html-keyboard-response","31","294579","0.0-1.0-35.0-0.0","0","0","38371","","null","","","null","3","","","","","","","","","","","","","","","",""
"","ITI","","html-keyboard-response","32","295581","0.0-1.0-36.0","0","0","38371","","null","","","null","3","","","","","","","","","","","","","","","NaN",""
"","S1","","html-keyboard-response","33","295833","0.0-1.0-38.0","0","0","38371","","null","","","null","4","","","","","","","","","","","","","","","",""
"","ISI","","html-keyboard-response","34","296836","0.0-1.0-39.0","0","0","38371","","null","","","null","4","NaN","","","","","","","","","","","","","","",""
"","S2","","html-keyboard-response","35","297089","0.0-1.0-40.0","0","0","38371","","null","","","null","4","","NaN","","","","","","","","","","","","","",""
"","response","","html-keyboard-response","36","297413","0.0-1.0-41.0-0.0","0","0","38371","","322","","","68","4","","","1","4","training","adjacent","DC","4","3","O.jpg","N.jpg","0","0","1","",""
"","feedback","","html-keyboard-response","37","298415","0.0-1.0-42.0-0.0","0","0","38371","","null","","","null","4","","","","","","","","","","","","","","","",""
"","ITI","","html-keyboard-response","38","299417","0.0-1.0-45.0","0","0","38371","","null","","","null","4","","","","","","","","","","","","","","","NaN",""
"","S1","","html-keyboard-response","39","299669","0.0-1.0-47.0","0","0","38371","","null","","","null","5","","","","","","","","","","","","","","","",""
"","ISI","","html-keyboard-response","40","300671","0.0-1.0-48.0","0","0","38371","","null","","","null","5","NaN","","","","","","","","","","","","","","",""
"","S2","","html-keyboard-response","41","300795","0.0-1.0-49.0","0","0","38371","","122","","","68","5","","d","1","5","training","adjacent","FG","6","7","R.jpg","P.jpg","0","1","0","",""
"","feedback","","html-keyboard-response","42","301798","0.0-1.0-51.0-0.0","0","0","38371","","null","","","null","5","","","","","","","","","","","","","","","",""
"","time_out","","html-keyboard-response","43","303800","0.0-1.0-53.0-0.0","0","0","38371","","null","","","null","5","","","","","","","","","","","","","","","",""
"","ITI","","html-keyboard-response","44","304802","0.0-1.0-54.0","0","0","38371","","null","","","null","5","","","","","","","","","","","","","","","NaN",""
"","S1","","html-keyboard-response","45","305055","0.0-1.0-56.0","0","0","38371","","null","","","null","6","","","","","","","","","","","","","","","",""
"","ISI","","html-keyboard-response","46","306058","0.0-1.0-57.0","0","0","38371","","492","","","68","6","d","","","","","","","","","","","","","","",""
"","S2","","html-keyboard-response","47","306311","0.0-1.0-58.0","0","0","38371","","null","","","null","6","","NaN","","","","","","","","","","","","","",""
"","response","","html-keyboard-response","48","306375","0.0-1.0-59.0-0.0","0","0","38371","","63","","","68","6","","","1","6","training","adjacent","AB","1","2","L.jpg","M.jpg","0","1","0","",""
"","feedback","","html-keyboard-response","49","307378","0.0-1.0-60.0-0.0","0","0","38371","","null","","","null","6","","","","","","","","","","","","","","","",""
"","time_out","","html-keyboard-response","50","309381","0.0-1.0-62.0-0.0","0","0","38371","","null","","","null","6","","","","","","","","","","","","","","","",""
"","ITI","","html-keyboard-response","51","310383","0.0-1.0-63.0","0","0","38371","","null","","","null","6","","","","","","","","","","","","","","","NaN",""
"","S1","","html-keyboard-response","52","310635","0.0-1.0-65.0","0","0","38371","","null","","","null","7","","","","","","","","","","","","","","","",""
"","ISI","","html-keyboard-response","53","311638","0.0-1.0-66.0","0","0","38371","","null","","","null","7","NaN","","","","","","","","","","","","","","",""
"","S2","","html-keyboard-response","54","311891","0.0-1.0-67.0","0","0","38371","","null","","","null","7","","NaN","","","","","","","","","","","","","",""
"","response","","html-keyboard-response","55","312164","0.0-1.0-68.0-0.0","0","0","38371","","273","","","68","7","","","1","7","training","adjacent","DE","4","5","O.jpg","Q.jpg","0","1","0","",""
"","feedback","","html-keyboard-response","56","313167","0.0-1.0-69.0-0.0","0","0","38371","","null","","","null","7","","","","","","","","","","","","","","","",""
"","time_out","","html-keyboard-response","57","315169","0.0-1.0-71.0-0.0","0","0","38371","","null","","","null","7","","","","","","","","","","","","","","","",""
"","ITI","","html-keyboard-response","58","316171","0.0-1.0-72.0","0","0","38371","","null","","","null","7","","","","","","","","","","","","","","","NaN",""
"","S1","","html-keyboard-response","59","316424","0.0-1.0-74.0","0","0","38371","","null","","","null","8","","","","","","","","","","","","","","","",""
"","ISI","","html-keyboard-response","60","317426","0.0-1.0-75.0","0","0","38371","","null","","","null","8","NaN","","","","","","","","","","","","","","",""
"","S2","","html-keyboard-response","61","317678","0.0-1.0-76.0","0","0","38371","","null","","","null","8","","NaN","","","","","","","","","","","","","",""
"","response","","html-keyboard-response","62","317822","0.0-1.0-77.0-0.0","0","0","38371","","143","","","75","8","","","1","8","training","adjacent","FG","6","7","R.jpg","P.jpg","1","1","1","",""
"","feedback","","html-keyboard-response","63","318824","0.0-1.0-78.0-0.0","0","0","38371","","null","","","null","8","","","","","","","","","","","","","","","",""
"","ITI","","html-keyboard-response","64","319826","0.0-1.0-81.0","0","0","38371","","null","","","null","8","","","","","","","","","","","","","","","NaN",""
"","S1","","html-keyboard-response","65","320079","0.0-1.0-83.0","0","0","38371","","null","","","null","9","","","","","","","","","","","","","","","",""
"","ISI","","html-keyboard-response","66","321081","0.0-1.0-84.0","0","0","38371","","null","","","null","9","NaN","","","","","","","","","","","","","","",""
"","S2","","html-keyboard-response","67","321298","0.0-1.0-85.0","0","0","38371","","216","","","75","9","","k","1","9","training","adjacent","EF","5","6","Q.jpg","R.jpg","1","1","1","",""
"","feedback","","html-keyboard-response","68","322301","0.0-1.0-87.0-0.0","0","0","38371","","null","","","null","9","","","","","","","","","","","","","","","",""
"","ITI","","html-keyboard-response","69","323304","0.0-1.0-90.0","0","0","38371","","null","","","null","9","","","","","","","","","","","","","","","NaN",""
"","S1","","html-keyboard-response","70","323555","0.0-1.0-92.0","0","0","38371","","null","","","null","10","","","","","","","","","","","","","","","",""
"","ISI","","html-keyboard-response","71","324557","0.0-1.0-93.0","0","0","38371","","null","","","null","10","NaN","","","","","","","","","","","","","","",""
"","S2","","html-keyboard-response","72","324810","0.0-1.0-94.0","0","0","38371","","null","","","null","10","","NaN","","","","","","","","","","","","","",""
"","response","","html-keyboard-response","73","324851","0.0-1.0-95.0-0.0","0","0","38371","","39","","","75","10","","","1","10","training","adjacent","DC","4","3","O.jpg","N.jpg","1","0","0","",""
"","feedback","","html-keyboard-response","74","325854","0.0-1.0-96.0-0.0","0","0","38371","","null","","","null","10","","","","","","","","","","","","","","","",""
"","time_out","","html-keyboard-response","75","327856","0.0-1.0-98.0-0.0","0","0","38371","","null","","","null","10","","","","","","","","","","","","","","","",""
"","ITI","","html-keyboard-response","76","328858","0.0-1.0-99.0","0","0","38371","","null","","","null","10","","","","","","","","","","","","","","","NaN",""
"","S1","","html-keyboard-response","77","329110","0.0-1.0-101.0","0","0","38371","","null","","","null","11","","","","","","","","","","","","","","","",""
"","ISI","","html-keyboard-response","78","330112","0.0-1.0-102.0","0","0","38371","","null","","","null","11","NaN","","","","","","","","","","","","","","",""
"","S2","","html-keyboard-response","79","330363","0.0-1.0-103.0","0","0","38371","","null","","","null","11","","NaN","","","","","","","","","","","","","",""
"","response","","html-keyboard-response","80","330419","0.0-1.0-104.0-0.0","0","0","38371","","55","","","75","11","","","1","11","training","adjacent","EF","5","6","Q.jpg","R.jpg","1","1","1","",""
"","feedback","","html-keyboard-response","81","331421","0.0-1.0-105.0-0.0","0","0","38371","","null","","","null","11","","","","","","","","","","","","","","","",""
"","ITI","","html-keyboard-response","82","332424","0.0-1.0-108.0","0","0","38371","","null","","","null","11","","","","","","","","","","","","","","","NaN",""
"","S1","","html-keyboard-response","83","332676","0.0-1.0-110.0","0","0","38371","","null","","","null","12","","","","","","","","","","","","","","","",""
"","ISI","","html-keyboard-response","84","333678","0.0-1.0-111.0","0","0","38371","","null","","","null","12","NaN","","","","","","","","","","","","","","",""
"","S2","","html-keyboard-response","85","333931","0.0-1.0-112.0","0","0","38371","","null","","","null","12","","NaN","","","","","","","","","","","","","",""
"","response","","html-keyboard-response","86","334013","0.0-1.0-113.0-0.0","0","0","38371","","80","","","75","12","","","1","12","training","adjacent","BC","2","3","M.jpg","N.jpg","1","1","1","",""
"","feedback","","html-keyboard-response","87","335016","0.0-1.0-114.0-0.0","0","0","38371","","null","","","null","12","","","","","","","","","","","","","","","",""
"","ITI","","html-keyboard-response","88","336018","0.0-1.0-117.0","0","0","38371","","null","","","null","12","","","","","","","","","","","","","","","NaN",""
"","S1","","html-keyboard-response","89","336270","0.0-1.0-119.0","0","0","38371","","null","","","null","13","","","","","","","","","","","","","","","",""
"","ISI","","html-keyboard-response","90","337272","0.0-1.0-120.0","0","0","38371","","null","","","null","13","NaN","","","","","","","","","","","","","","",""
"","S2","","html-keyboard-response","91","337524","0.0-1.0-121.0","0","0","38371","","null","","","null","13","","NaN","","","","","","","","","","","","","",""
"","response","","html-keyboard-response","92","337735","0.0-1.0-122.0-0.0","0","0","38371","","210","","","75","13","","","1","13","training","adjacent","ED","5","4","Q.jpg","O.jpg","1","0","0","",""
"","feedback","","html-keyboard-response","93","338738","0.0-1.0-123.0-0.0","0","0","38371","","null","","","null","13","","","","","","","","","","","","","","","",""
"","time_out","","html-keyboard-response","94","340746","0.0-1.0-125.0-0.0","0","0","38371","","null","","","null","13","","","","","","","","","","","","","","","",""
"","ITI","","html-keyboard-response","95","341749","0.0-1.0-126.0","0","0","38371","","null","","","null","13","","","","","","","","","","","","","","","NaN",""
"","S1","","html-keyboard-response","96","342001","0.0-1.0-128.0","0","0","38371","","null","","","null","14","","","","","","","","","","","","","","","",""
"","ISI","","html-keyboard-response","97","343004","0.0-1.0-129.0","0","0","38371","","null","","","null","14","NaN","","","","","","","","","","","","","","",""
"","S2","","html-keyboard-response","98","343239","0.0-1.0-130.0","0","0","38371","","234","","","68","14","","d","1","14","training","adjacent","CB","3","2","N.jpg","M.jpg","0","0","1","",""
"","feedback","","html-keyboard-response","99","344241","0.0-1.0-132.0-0.0","0","0","38371","","null","","","null","14","","","","","","","","","","","","","","","",""
"","ITI","","html-keyboard-response","100","345244","0.0-1.0-135.0","0","0","38371","","null","","","null","14","","","","","","","","","","","","","","","NaN",""
"","S1","","html-keyboard-response","101","345496","0.0-1.0-137.0","0","0","38371","","null","","","null","15","","","","","","","","","","","","","","","",""
"","ISI","","html-keyboard-response","102","346498","0.0-1.0-138.0","0","0","38371","","null","","","null","15","NaN","","","","","","","","","","","","","","",""
"","S2","","html-keyboard-response","103","346503","0.0-1.0-139.0","0","0","38371","","4","","","75","15","","k","1","15","training","adjacent","BA","2","1","M.jpg","L.jpg","1","0","0","",""
"","feedback","","html-keyboard-response","104","347505","0.0-1.0-141.0-0.0","0","0","38371","","null","","","null","15","","","","","","","","","","","","","","","",""
"","time_out","","html-keyboard-response","105","349508","0.0-1.0-143.0-0.0","0","0","38371","","null","","","null","15","","","","","","","","","","","","","","","",""
"","ITI","","html-keyboard-response","106","350509","0.0-1.0-144.0","0","0","38371","","null","","","null","15","","","","","","","","","","","","","","","NaN",""
"","S1","","html-keyboard-response","107","350762","0.0-1.0-146.0","0","0","38371","","null","","","null","16","","","","","","","","","","","","","","","",""
"","ISI","","html-keyboard-response","108","351764","0.0-1.0-147.0","0","0","38371","","null","","","null","16","NaN","","","","","","","","","","","","","","",""
"","S2","","html-keyboard-response","109","352016","0.0-1.0-148.0","0","0","38371","","null","","","null","16","","NaN","","","","","","","","","","","","","",""
"","response","","html-keyboard-response","110","352051","0.0-1.0-149.0-0.0","0","0","38371","","33","","","75","16","","","1","16","training","adjacent","BA","2","1","M.jpg","L.jpg","1","0","0","",""
"","feedback","","html-keyboard-response","111","353053","0.0-1.0-150.0-0.0","0","0","38371","","null","","","null","16","","","","","","","","","","","","","","","",""
"","time_out","","html-keyboard-response","112","355055","0.0-1.0-152.0-0.0","0","0","38371","","null","","","null","16","","","","","","","","","","","","","","","",""
"","ITI","","html-keyboard-response","113","356057","0.0-1.0-153.0","0","0","38371","","null","","","null","16","","","","","","","","","","","","","","","NaN",""
"","S1","","html-keyboard-response","114","356309","0.0-1.0-155.0","0","0","38371","","null","","","null","17","","","","","","","","","","","","","","","",""
"","ISI","","html-keyboard-response","115","357311","0.0-1.0-156.0","0","0","38371","","null","","","null","17","NaN","","","","","","","","","","","","","","",""
"","S2","","html-keyboard-response","116","357517","0.0-1.0-157.0","0","0","38371","","205","","","68","17","","d","1","17","training","adjacent","CD","3","4","N.jpg","O.jpg","0","1","0","",""
"","feedback","","html-keyboard-response","117","358519","0.0-1.0-159.0-0.0","0","0","38371","","null","","","null","17","","","","","","","","","","","","","","","",""
"","time_out","","html-keyboard-response","118","360522","0.0-1.0-161.0-0.0","0","0","38371","","null","","","null","17","","","","","","","","","","","","","","","",""
"","ITI","","html-keyboard-response","119","361524","0.0-1.0-162.0","0","0","38371","","null","","","null","17","","","","","","","","","","","","","","","NaN",""
"","S1","","html-keyboard-response","120","361776","0.0-1.0-164.0","0","0","38371","","null","","","null","18","","","","","","","","","","","","","","","",""
"","ISI","","html-keyboard-response","121","362778","0.0-1.0-165.0","0","0","38371","","null","","","null","18","NaN","","","","","","","","","","","","","","",""
"","S2","","html-keyboard-response","122","363032","0.0-1.0-166.0","0","0","38371","","null","","","null","18","","NaN","","","","","","","","","","","","","",""
"","response","","html-keyboard-response","123","363042","0.0-1.0-167.0-0.0","0","0","38371","","9","","","68","18","","","1","18","training","adjacent","BC","2","3","M.jpg","N.jpg","0","1","0","",""
"","feedback","","html-keyboard-response","124","364045","0.0-1.0-168.0-0.0","0","0","38371","","null","","","null","18","","","","","","","","","","","","","","","",""
"","time_out","","html-keyboard-response","125","366048","0.0-1.0-170.0-0.0","0","0","38371","","null","","","null","18","","","","","","","","","","","","","","","",""
"","ITI","","html-keyboard-response","126","367050","0.0-1.0-171.0","0","0","38371","","null","","","null","18","","","","","","","","","","","","","","","NaN",""
"","S1","","html-keyboard-response","127","367302","0.0-1.0-173.0","0","0","38371","","null","","","null","19","","","","","","","","","","","","","","","",""
"","ISI","","html-keyboard-response","128","368308","0.0-1.0-174.0","0","0","38371","","null","","","null","19","NaN","","","","","","","","","","","","","","",""
"","S2","","html-keyboard-response","129","368560","0.0-1.0-175.0","0","0","38371","","null","","","null","19","","NaN","","","","","","","","","","","","","",""
"","response","","html-keyboard-response","130","368606","0.0-1.0-176.0-0.0","0","0","38371","","44","","","75","19","","","1","19","training","adjacent","GF","7","6","P.jpg","R.jpg","1","0","0","",""
"","feedback","","html-keyboard-response","131","369608","0.0-1.0-177.0-0.0","0","0","38371","","null","","","null","19","","","","","","","","","","","","","","","",""
"","time_out","","html-keyboard-response","132","371610","0.0-1.0-179.0-0.0","0","0","38371","","null","","","null","19","","","","","","","","","","","","","","","",""
"","ITI","","html-keyboard-response","133","372611","0.0-1.0-180.0","0","0","38371","","null","","","null","19","","","","","","","","","","","","","","","NaN",""
"","S1","","html-keyboard-response","134","372864","0.0-1.0-182.0","0","0","38371","","null","","","null","20","","","","","","","","","","","","","","","",""
"","ISI","","html-keyboard-response","135","373867","0.0-1.0-183.0","0","0","38371","","82","","","68","20","d","","","","","","","","","","","","","","",""
"","S2","","html-keyboard-response","136","374119","0.0-1.0-184.0","0","0","38371","","null","","","null","20","","NaN","","","","","","","","","","","","","",""
"","response","","html-keyboard-response","137","374126","0.0-1.0-185.0-0.0","0","0","38371","","5","","","68","20","","","1","20","training","adjacent","ED","5","4","Q.jpg","O.jpg","0","0","1","",""
"","feedback","","html-keyboard-response","138","375129","0.0-1.0-186.0-0.0","0","0","38371","","null","","","null","20","","","","","","","","","","","","","","","",""
"","ITI","","html-keyboard-response","139","376131","0.0-1.0-189.0","0","0","38371","","null","","","null","20","","","","","","","","","","","","","","","NaN",""
"","S1","","html-keyboard-response","140","376383","0.0-1.0-191.0","0","0","38371","","null","","","null","21","","","","","","","","","","","","","","","",""
"","ISI","","html-keyboard-response","141","377385","0.0-1.0-192.0","0","0","38371","","null","","","null","21","NaN","","","","","","","","","","","","","","",""
"","S2","","html-keyboard-response","142","377637","0.0-1.0-193.0","0","0","38371","","null","","","null","21","","NaN","","","","","","","","","","","","","",""
"","response","","html-keyboard-response","143","377734","0.0-1.0-194.0-0.0","0","0","38371","","96","","","68","21","","","1","21","training","adjacent","FG","6","7","R.jpg","P.jpg","0","1","0","",""
"","feedback","","html-keyboard-response","144","378736","0.0-1.0-195.0-0.0","0","0","38371","","null","","","null","21","","","","","","","","","","","","","","","",""
"","time_out","","html-keyboard-response","145","380738","0.0-1.0-197.0-0.0","0","0","38371","","null","","","null","21","","","","","","","","","","","","","","","",""
"","ITI","","html-keyboard-response","146","381741","0.0-1.0-198.0","0","0","38371","","null","","","null","21","","","","","","","","","","","","","","","NaN",""
"","S1","","html-keyboard-response","147","381993","0.0-1.0-200.0","0","0","38371","","null","","","null","22","","","","","","","","","","","","","","","",""
"","ISI","","html-keyboard-response","148","382996","0.0-1.0-201.0","0","0","38371","","null","","","null","22","NaN","","","","","","","","","","","","","","",""
"","S2","","html-keyboard-response","149","383248","0.0-1.0-202.0","0","0","38371","","null","","","null","22","","NaN","","","","","","","","","","","","","",""
"","response","","html-keyboard-response","150","383335","0.0-1.0-203.0-0.0","0","0","38371","","85","","","75","22","","","1","22","training","adjacent","GF","7","6","P.jpg","R.jpg","1","0","0","",""
"","feedback","","html-keyboard-response","151","384338","0.0-1.0-204.0-0.0","0","0","38371","","null","","","null","22","","","","","","","","","","","","","","","",""
"","time_out","","html-keyboard-response","152","386340","0.0-1.0-206.0-0.0","0","0","38371","","null","","","null","22","","","","","","","","","","","","","","","",""
"","ITI","","html-keyboard-response","153","387342","0.0-1.0-207.0","0","0","38371","","null","","","null","22","","","","","","","","","","","","","","","NaN",""
"","S1","","html-keyboard-response","154","387595","0.0-1.0-209.0","0","0","38371","","null","","","null","23","","","","","","","","","","","","","","","",""
"","ISI","","html-keyboard-response","155","388597","0.0-1.0-210.0","0","0","38371","","null","","","null","23","NaN","","","","","","","","","","","","","","",""
"","S2","","html-keyboard-response","156","388850","0.0-1.0-211.0","0","0","38371","","null","","","null","23","","NaN","","","","","","","","","","","","","",""
"","response","","html-keyboard-response","157","388927","0.0-1.0-212.0-0.0","0","0","38371","","75","","","68","23","","","1","23","training","adjacent","FE","6","5","R.jpg","Q.jpg","0","0","1","",""
"","feedback","","html-keyboard-response","158","389930","0.0-1.0-213.0-0.0","0","0","38371","","null","","","null","23","","","","","","","","","","","","","","","",""
"","ITI","","html-keyboard-response","159","390932","0.0-1.0-216.0","0","0","38371","","null","","","null","23","","","","","","","","","","","","","","","NaN",""
"","S1","","html-keyboard-response","160","391184","0.0-1.0-218.0","0","0","38371","","null","","","null","24","","","","","","","","","","","","","","","",""
"","ISI","","html-keyboard-response","161","392186","0.0-1.0-219.0","0","0","38371","","null","","","null","24","NaN","","","","","","","","","","","","","","",""
"","S2","","html-keyboard-response","162","392437","0.0-1.0-220.0","0","0","38371","","null","","","null","24","","NaN","","","","","","","","","","","","","",""
"","response","","html-keyboard-response","163","392573","0.0-1.0-221.0-0.0","0","0","38371","","134","","","75","24","","","1","24","training","adjacent","ED","5","4","Q.jpg","O.jpg","1","0","0","",""
"","feedback","","html-keyboard-response","164","393575","0.0-1.0-222.0-0.0","0","0","38371","","null","","","null","24","","","","","","","","","","","","","","","",""
"","time_out","","html-keyboard-response","165","395577","0.0-1.0-224.0-0.0","0","0","38371","","null","","","null","24","","","","","","","","","","","","","","","",""
"","ITI","","html-keyboard-response","166","396580","0.0-1.0-225.0","0","0","38371","","null","","","null","24","","","","","","","","","","","","","","","NaN",""
"","S1","","html-keyboard-response","167","396833","0.0-1.0-227.0","0","0","38371","","null","","","null","25","","","","","","","","","","","","","","","",""
"","ISI","","html-keyboard-response","168","397841","0.0-1.0-228.0","0","0","38371","","489","","","68","25","d","","","","","","","","","","","","","","",""
"","S2","","html-keyboard-response","169","398062","0.0-1.0-229.0","0","0","38371","","218","","","68","25","","d","1","25","training","adjacent","FE","6","5","R.jpg","Q.jpg","0","0","1","",""
"","feedback","","html-keyboard-response","170","399065","0.0-1.0-231.0-0.0","0","0","38371","","null","","","null","25","","","","","","","","","","","","","","","",""
"","ITI","","html-keyboard-response","171","400068","0.0-1.0-234.0","0","0","38371","","null","","","null","25","","","","","","","","","","","","","","","NaN",""
"","S1","","html-keyboard-response","172","400320","0.0-1.0-236.0","0","0","38371","","null","","","null","26","","","","","","","","","","","","","","","",""
"","ISI","","html-keyboard-response","173","401321","0.0-1.0-237.0","0","0","38371","","null","","","null","26","NaN","","","","","","","","","","","","","","",""
"","S2","","html-keyboard-response","174","401574","0.0-1.0-238.0","0","0","38371","","null","","","null","26","","NaN","","","","","","","","","","","","","",""
"","response","","html-keyboard-response","175","401727","0.0-1.0-239.0-0.0","0","0","38371","","152","","","75","26","","","1","26","training","adjacent","BC","2","3","M.jpg","N.jpg","1","1","1","",""
"","feedback","","html-keyboard-response","176","402731","0.0-1.0-240.0-0.0","0","0","38371","","null","","","null","26","","","","","","","","","","","","","","","",""
"","ITI","","html-keyboard-response","177","403733","0.0-1.0-243.0","0","0","38371","","null","","","null","26","","","","","","","","","","","","","","","NaN",""
"","S1","","html-keyboard-response","178","403985","0.0-1.0-245.0","0","0","38371","","null","","","null","27","","","","","","","","","","","","","","","",""
"","ISI","","html-keyboard-response","179","404987","0.0-1.0-246.0","0","0","38371","","null","","","null","27","NaN","","","","","","","","","","","","","","",""
"","S2","","html-keyboard-response","180","405239","0.0-1.0-247.0","0","0","38371","","null","","","null","27","","NaN","","","","","","","","","","","","","",""
"","response","","html-keyboard-response","181","405403","0.0-1.0-248.0-0.0","0","0","38371","","163","","","75","27","","","1","27","training","adjacent","DE","4","5","O.jpg","Q.jpg","1","1","1","",""
"","feedback","","html-keyboard-response","182","406405","0.0-1.0-249.0-0.0","0","0","38371","","null","","","null","27","","","","","","","","","","","","","","","",""
"","ITI","","html-keyboard-response","183","407408","0.0-1.0-252.0","0","0","38371","","null","","","null","27","","","","","","","","","","","","","","","NaN",""
"","S1","","html-keyboard-response","184","407660","0.0-1.0-254.0","0","0","38371","","null","","","null","28","","","","","","","","","","","","","","","",""
"","ISI","","html-keyboard-response","185","408661","0.0-1.0-255.0","0","0","38371","","null","","","null","28","NaN","","","","","","","","","","","","","","",""
"","S2","","html-keyboard-response","186","408913","0.0-1.0-256.0","0","0","38371","","null","","","null","28","","NaN","","","","","","","","","","","","","",""
"","response","","html-keyboard-response","187","409076","0.0-1.0-257.0-0.0","0","0","38371","","161","","","75","28","","","1","28","training","adjacent","FG","6","7","R.jpg","P.jpg","1","1","1","",""
"","feedback","","html-keyboard-response","188","410078","0.0-1.0-258.0-0.0","0","0","38371","","null","","","null","28","","","","","","","","","","","","","","","",""
"","ITI","","html-keyboard-response","189","411080","0.0-1.0-261.0","0","0","38371","","null","","","null","28","","","","","","","","","","","","","","","NaN",""
"","S1","","html-keyboard-response","190","411333","0.0-1.0-263.0","0","0","38371","","null","","","null","29","","","","","","","","","","","","","","","",""
"","ISI","","html-keyboard-response","191","412335","0.0-1.0-264.0","0","0","38371","","null","","","null","29","NaN","","","","","","","","","","","","","","",""
"","S2","","html-keyboard-response","192","412587","0.0-1.0-265.0","0","0","38371","","null","","","null","29","","NaN","","","","","","","","","","","","","",""
"","response","","html-keyboard-response","193","412756","0.0-1.0-266.0-0.0","0","0","38371","","167","","","75","29","","","1","29","training","adjacent","AB","1","2","L.jpg","M.jpg","1","1","1","",""
"","feedback","","html-keyboard-response","194","413759","0.0-1.0-267.0-0.0","0","0","38371","","null","","","null","29","","","","","","","","","","","","","","","",""
"","ITI","","html-keyboard-response","195","414761","0.0-1.0-270.0","0","0","38371","","null","","","null","29","","","","","","","","","","","","","","","NaN",""
"","S1","","html-keyboard-response","196","415016","0.0-1.0-272.0","0","0","38371","","null","","","null","30","","","","","","","","","","","","","","","",""
"","ISI","","html-keyboard-response","197","416018","0.0-1.0-273.0","0","0","38371","","null","","","null","30","NaN","","","","","","","","","","","","","","",""
"","S2","","html-keyboard-response","198","416271","0.0-1.0-274.0","0","0","38371","","null","","","null","30","","NaN","","","","","","","","","","","","","",""
"","response","","html-keyboard-response","199","416498","0.0-1.0-275.0-0.0","0","0","38371","","224","","","75","30","","","1","30","training","adjacent","FE","6","5","R.jpg","Q.jpg","1","0","0","",""
"","feedback","","html-keyboard-response","200","417501","0.0-1.0-276.0-0.0","0","0","38371","","null","","","null","30","","","","","","","","","","","","","","","",""
"","time_out","","html-keyboard-response","201","419503","0.0-1.0-278.0-0.0","0","0","38371","","null","","","null","30","","","","","","","","","","","","","","","",""
"","ITI","","html-keyboard-response","202","420506","0.0-1.0-279.0","0","0","38371","","null","","","null","30","","","","","","","","","","","","","","","NaN",""
"","S1","","html-keyboard-response","203","420759","0.0-1.0-281.0","0","0","38371","","null","","","null","31","","","","","","","","","","","","","","","",""
"","ISI","","html-keyboard-response","204","421761","0.0-1.0-282.0","0","0","38371","","null","","","null","31","NaN","","","","","","","","","","","","","","",""
"","S2","","html-keyboard-response","205","422014","0.0-1.0-283.0","0","0","38371","","null","","","null","31","","NaN","","","","","","","","","","","","","",""
"","response","","html-keyboard-response","206","422262","0.0-1.0-284.0-0.0","0","0","38371","","246","","","68","31","","","1","31","training","adjacent","ED","5","4","Q.jpg","O.jpg","0","0","1","",""
"","feedback","","html-keyboard-response","207","423265","0.0-1.0-285.0-0.0","0","0","38371","","null","","","null","31","","","","","","","","","","","","","","","",""
"","ITI","","html-keyboard-response","208","424268","0.0-1.0-288.0","0","0","38371","","null","","","null","31","","","","","","","","","","","","","","","NaN",""
"","S1","","html-keyboard-response","209","424520","0.0-1.0-290.0","0","0","38371","","null","","","null","32","","","","","","","","","","","","","","","",""
"","ISI","","html-keyboard-response","210","425523","0.0-1.0-291.0","0","0","38371","","null","","","null","32","NaN","","","","","","","","","","","","","","",""
"","S2","","html-keyboard-response","211","425776","0.0-1.0-292.0","0","0","38371","","null","","","null","32","","NaN","","","","","","","","","","","","","",""
"","response","","html-keyboard-response","212","426286","0.0-1.0-293.0-0.0","0","0","38371","","507","","","68","32","","","1","32","training","adjacent","CB","3","2","N.jpg","M.jpg","0","0","1","",""
"","feedback","","html-keyboard-response","213","427289","0.0-1.0-294.0-0.0","0","0","38371","","null","","","null","32","","","","","","","","","","","","","","","",""
"","ITI","","html-keyboard-response","214","428291","0.0-1.0-297.0","0","0","38371","","null","","","null","32","","","","","","","","","","","","","","","NaN",""
"","S1","","html-keyboard-response","215","428545","0.0-1.0-299.0","0","0","38371","","null","","","null","33","","","","","","","","","","","","","","","",""
"","ISI","","html-keyboard-response","216","429547","0.0-1.0-300.0","0","0","38371","","null","","","null","33","NaN","","","","","","","","","","","","","","",""
"","S2","","html-keyboard-response","217","429810","0.0-1.0-301.0","0","0","38371","","null","","","null","33","","NaN","","","","","","","","","","","","","",""
"","response","","html-keyboard-response","218","429927","0.0-1.0-302.0-0.0","0","0","38371","","115","","","68","33","","","1","33","training","adjacent","CB","3","2","N.jpg","M.jpg","0","0","1","",""
"","feedback","","html-keyboard-response","219","430929","0.0-1.0-303.0-0.0","0","0","38371","","null","","","null","33","","","","","","","","","","","","","","","",""
"","ITI","","html-keyboard-response","220","431932","0.0-1.0-306.0","0","0","38371","","null","","","null","33","","","","","","","","","","","","","","","NaN",""
"","S1","","html-keyboard-response","221","432184","0.0-1.0-308.0","0","0","38371","","null","","","null","34","","","","","","","","","","","","","","","",""
"","ISI","","html-keyboard-response","222","433188","0.0-1.0-309.0","0","0","38371","","null","","","null","34","NaN","","","","","","","","","","","","","","",""
"","S2","","html-keyboard-response","223","433441","0.0-1.0-310.0","0","0","38371","","null","","","null","34","","NaN","","","","","","","","","","","","","",""
"","response","","html-keyboard-response","224","433732","0.0-1.0-311.0-0.0","0","0","38371","","290","","","68","34","","","1","34","training","adjacent","DE","4","5","O.jpg","Q.jpg","0","1","0","",""
"","feedback","","html-keyboard-response","225","434736","0.0-1.0-312.0-0.0","0","0","38371","","null","","","null","34","","","","","","","","","","","","","","","",""
"","time_out","","html-keyboard-response","226","436739","0.0-1.0-314.0-0.0","0","0","38371","","null","","","null","34","","","","","","","","","","","","","","","",""
"","ITI","","html-keyboard-response","227","437741","0.0-1.0-315.0","0","0","38371","","null","","","null","34","","","","","","","","","","","","","","","NaN",""
"","S1","","html-keyboard-response","228","437994","0.0-1.0-317.0","0","0","38371","","null","","","null","35","","","","","","","","","","","","","","","",""
"","ISI","","html-keyboard-response","229","438997","0.0-1.0-318.0","0","0","38371","","null","","","null","35","NaN","","","","","","","","","","","","","","",""
"","S2","","html-keyboard-response","230","439251","0.0-1.0-319.0","0","0","38371","","null","","","null","35","","NaN","","","","","","","","","","","","","",""
"","response","","html-keyboard-response","231","439339","0.0-1.0-320.0-0.0","0","0","38371","","86","","","75","35","","","1","35","training","adjacent","AB","1","2","L.jpg","M.jpg","1","1","1","",""
"","feedback","","html-keyboard-response","232","440342","0.0-1.0-321.0-0.0","0","0","38371","","null","","","null","35","","","","","","","","","","","","","","","",""
"","ITI","","html-keyboard-response","233","441344","0.0-1.0-324.0","0","0","38371","","null","","","null","35","","","","","","","","","","","","","","","NaN",""
"","S1","","html-keyboard-response","234","441596","0.0-1.0-326.0","0","0","38371","","null","","","null","36","","","","","","","","","","","","","","","",""
"","ISI","","html-keyboard-response","235","442599","0.0-1.0-327.0","0","0","38371","","null","","","null","36","NaN","","","","","","","","","","","","","","",""
"","S2","","html-keyboard-response","236","442852","0.0-1.0-328.0","0","0","38371","","null","","","null","36","","NaN","","","","","","","","","","","","","",""
"","response","","html-keyboard-response","237","443716","0.0-1.0-329.0-0.0","0","0","38371","","861","","","75","36","","","1","36","training","adjacent","EF","5","6","Q.jpg","R.jpg","1","1","1","",""
"","feedback","","html-keyboard-response","238","444719","0.0-1.0-330.0-0.0","0","0","38371","","null","","","null","36","","","","","","","","","","","","","","","",""
"","ITI","","html-keyboard-response","239","445722","0.0-1.0-333.0","0","0","38371","","null","","","null","36","","","","","","","","","","","","","","","NaN",""
"","S1","","html-keyboard-response","240","445975","0.0-1.0-335.0","0","0","38371","","null","","","null","37","","","","","","","","","","","","","","","",""
"","ISI","","html-keyboard-response","241","446977","0.0-1.0-336.0","0","0","38371","","null","","","null","37","NaN","","","","","","","","","","","","","","",""
"","S2","","html-keyboard-response","242","447229","0.0-1.0-337.0","0","0","38371","","null","","","null","37","","NaN","","","","","","","","","","","","","",""
"","response","","html-keyboard-response","243","447969","0.0-1.0-338.0-0.0","0","0","38371","","737","","","75","37","","","1","37","training","adjacent","CD","3","4","N.jpg","O.jpg","1","1","1","",""
"","feedback","","html-keyboard-response","244","448971","0.0-1.0-339.0-0.0","0","0","38371","","null","","","null","37","","","","","","","","","","","","","","","",""
"","ITI","","html-keyboard-response","245","449973","0.0-1.0-342.0","0","0","38371","","null","","","null","37","","","","","","","","","","","","","","","NaN",""
"","S1","","html-keyboard-response","246","450226","0.0-1.0-344.0","0","0","38371","","null","","","null","38","","","","","","","","","","","","","","","",""
"","ISI","","html-keyboard-response","247","451229","0.0-1.0-345.0","0","0","38371","","null","","","null","38","NaN","","","","","","","","","","","","","","",""
"","S2","","html-keyboard-response","248","451482","0.0-1.0-346.0","0","0","38371","","null","","","null","38","","NaN","","","","","","","","","","","","","",""
"","response","","html-keyboard-response","249","451933","0.0-1.0-347.0-0.0","0","0","38371","","448","","","75","38","","","1","38","training","adjacent","EF","5","6","Q.jpg","R.jpg","1","1","1","",""
"","feedback","","html-keyboard-response","250","452936","0.0-1.0-348.0-0.0","0","0","38371","","null","","","null","38","","","","","","","","","","","","","","","",""
"","ITI","","html-keyboard-response","251","453939","0.0-1.0-351.0","0","0","38371","","null","","","null","38","","","","","","","","","","","","","","","NaN",""
"","S1","","html-keyboard-response","252","454192","0.0-1.0-353.0","0","0","38371","","null","","","null","39","","","","","","","","","","","","","","","",""
"","ISI","","html-keyboard-response","253","455194","0.0-1.0-354.0","0","0","38371","","null","","","null","39","NaN","","","","","","","","","","","","","","",""
"","S2","","html-keyboard-response","254","455448","0.0-1.0-355.0","0","0","38371","","null","","","null","39","","NaN","","","","","","","","","","","","","",""
"","response","","html-keyboard-response","255","456050","0.0-1.0-356.0-0.0","0","0","38371","","601","","","75","39","","","1","39","training","adjacent","DC","4","3","O.jpg","N.jpg","1","0","0","",""
"","feedback","","html-keyboard-response","256","457053","0.0-1.0-357.0-0.0","0","0","38371","","null","","","null","39","","","","","","","","","","","","","","","",""
"","time_out","","html-keyboard-response","257","459056","0.0-1.0-359.0-0.0","0","0","38371","","null","","","null","39","","","","","","","","","","","","","","","",""
"","ITI","","html-keyboard-response","258","460059","0.0-1.0-360.0","0","0","38371","","null","","","null","39","","","","","","","","","","","","","","","NaN",""
"","S1","","html-keyboard-response","259","460312","0.0-1.0-362.0","0","0","38371","","null","","","null","40","","","","","","","","","","","","","","","",""
"","ISI","","html-keyboard-response","260","461316","0.0-1.0-363.0","0","0","38371","","null","","","null","40","NaN","","","","","","","","","","","","","","",""
"","S2","","html-keyboard-response","261","461568","0.0-1.0-364.0","0","0","38371","","null","","","null","40","","NaN","","","","","","","","","","","","","",""
"","response","","html-keyboard-response","262","462006","0.0-1.0-365.0-0.0","0","0","38371","","436","","","68","40","","","1","40","training","adjacent","CD","3","4","N.jpg","O.jpg","0","1","0","",""
"","feedback","","html-keyboard-response","263","463008","0.0-1.0-366.0-0.0","0","0","38371","","null","","","null","40","","","","","","","","","","","","","","","",""
"","time_out","","html-keyboard-response","264","465010","0.0-1.0-368.0-0.0","0","0","38371","","null","","","null","40","","","","","","","","","","","","","","","",""
"","ITI","","html-keyboard-response","265","466013","0.0-1.0-369.0","0","0","38371","","null","","","null","40","","","","","","","","","","","","","","","NaN",""
"","S1","","html-keyboard-response","266","466267","0.0-1.0-371.0","0","0","38371","","null","","","null","41","","","","","","","","","","","","","","","",""
"","ISI","","html-keyboard-response","267","467269","0.0-1.0-372.0","0","0","38371","","null","","","null","41","NaN","","","","","","","","","","","","","","",""
"","S2","","html-keyboard-response","268","467522","0.0-1.0-373.0","0","0","38371","","null","","","null","41","","NaN","","","","","","","","","","","","","",""
"","response","","html-keyboard-response","269","467861","0.0-1.0-374.0-0.0","0","0","38371","","337","","","75","41","","","1","41","training","adjacent","GF","7","6","P.jpg","R.jpg","1","0","0","",""
"","feedback","","html-keyboard-response","270","468864","0.0-1.0-375.0-0.0","0","0","38371","","null","","","null","41","","","","","","","","","","","","","","","",""
"","time_out","","html-keyboard-response","271","470867","0.0-1.0-377.0-0.0","0","0","38371","","null","","","null","41","","","","","","","","","","","","","","","",""
"","ITI","","html-keyboard-response","272","471870","0.0-1.0-378.0","0","0","38371","","null","","","null","41","","","","","","","","","","","","","","","NaN",""
"","S1","","html-keyboard-response","273","472123","0.0-1.0-380.0","0","0","38371","","null","","","null","42","","","","","","","","","","","","","","","",""
"","ISI","","html-keyboard-response","274","473126","0.0-1.0-381.0","0","0","38371","","null","","","null","42","NaN","","","","","","","","","","","","","","",""
"","S2","","html-keyboard-response","275","473379","0.0-1.0-382.0","0","0","38371","","null","","","null","42","","NaN","","","","","","","","","","","","","",""
"","response","","html-keyboard-response","276","473877","0.0-1.0-383.0-0.0","0","0","38371","","495","","","68","42","","","1","42","training","adjacent","AB","1","2","L.jpg","M.jpg","0","1","0","",""
"","feedback","","html-keyboard-response","277","474880","0.0-1.0-384.0-0.0","0","0","38371","","null","","","null","42","","","","","","","","","","","","","","","",""
"","time_out","","html-keyboard-response","278","476882","0.0-1.0-386.0-0.0","0","0","38371","","null","","","null","42","","","","","","","","","","","","","","","",""
"","ITI","","html-keyboard-response","279","477886","0.0-1.0-387.0","0","0","38371","","null","","","null","42","","","","","","","","","","","","","","","NaN",""
"","S1","","html-keyboard-response","280","478139","0.0-1.0-389.0","0","0","38371","","null","","","null","43","","","","","","","","","","","","","","","",""
"","ISI","","html-keyboard-response","281","479141","0.0-1.0-390.0","0","0","38371","","null","","","null","43","NaN","","","","","","","","","","","","","","",""
"","S2","","html-keyboard-response","282","479394","0.0-1.0-391.0","0","0","38371","","null","","","null","43","","NaN","","","","","","","","","","","","","",""
"","response","","html-keyboard-response","283","479644","0.0-1.0-392.0-0.0","0","0","38371","","247","","","75","43","","","1","43","training","adjacent","FE","6","5","R.jpg","Q.jpg","1","0","0","",""
"","feedback","","html-keyboard-response","284","480647","0.0-1.0-393.0-0.0","0","0","38371","","null","","","null","43","","","","","","","","","","","","","","","",""
"","time_out","","html-keyboard-response","285","482650","0.0-1.0-395.0-0.0","0","0","38371","","null","","","null","43","","","","","","","","","","","","","","","",""
"","ITI","","html-keyboard-response","286","483653","0.0-1.0-396.0","0","0","38371","","null","","","null","43","","","","","","","","","","","","","","","NaN",""
"","S1","","html-keyboard-response","287","483907","0.0-1.0-398.0","0","0","38371","","null","","","null","44","","","","","","","","","","","","","","","",""
"","ISI","","html-keyboard-response","288","484909","0.0-1.0-399.0","0","0","38371","","null","","","null","44","NaN","","","","","","","","","","","","","","",""
"","S2","","html-keyboard-response","289","485162","0.0-1.0-400.0","0","0","38371","","null","","","null","44","","NaN","","","","","","","","","","","","","",""
"","response","","html-keyboard-response","290","485449","0.0-1.0-401.0-0.0","0","0","38371","","286","","","75","44","","","1","44","training","adjacent","DC","4","3","O.jpg","N.jpg","1","0","0","",""
"","feedback","","html-keyboard-response","291","486452","0.0-1.0-402.0-0.0","0","0","38371","","null","","","null","44","","","","","","","","","","","","","","","",""
"","time_out","","html-keyboard-response","292","488456","0.0-1.0-404.0-0.0","0","0","38371","","null","","","null","44","","","","","","","","","","","","","","","",""
"","ITI","","html-keyboard-response","293","489458","0.0-1.0-405.0","0","0","38371","","null","","","null","44","","","","","","","","","","","","","","","NaN",""
"","S1","","html-keyboard-response","294","489710","0.0-1.0-407.0","0","0","38371","","null","","","null","45","","","","","","","","","","","","","","","",""
"","ISI","","html-keyboard-response","295","490713","0.0-1.0-408.0","0","0","38371","","null","","","null","45","NaN","","","","","","","","","","","","","","",""
"","S2","","html-keyboard-response","296","490966","0.0-1.0-409.0","0","0","38371","","null","","","null","45","","NaN","","","","","","","","","","","","","",""
"","response","","html-keyboard-response","297","491582","0.0-1.0-410.0-0.0","0","0","38371","","614","","","68","45","","","1","45","training","adjacent","BC","2","3","M.jpg","N.jpg","0","1","0","",""
"","feedback","","html-keyboard-response","298","492586","0.0-1.0-411.0-0.0","0","0","38371","","null","","","null","45","","","","","","","","","","","","","","","",""
"","time_out","","html-keyboard-response","299","494602","0.0-1.0-413.0-0.0","0","0","38371","","null","","","null","45","","","","","","","","","","","","","","","",""
"","ITI","","html-keyboard-response","300","495604","0.0-1.0-414.0","0","0","38371","","null","","","null","45","","","","","","","","","","","","","","","NaN",""
"","S1","","html-keyboard-response","301","495857","0.0-1.0-416.0","0","0","38371","","null","","","null","46","","","","","","","","","","","","","","","",""
"","ISI","","html-keyboard-response","302","496859","0.0-1.0-417.0","0","0","38371","","null","","","null","46","NaN","","","","","","","","","","","","","","",""
"","S2","","html-keyboard-response","303","497113","0.0-1.0-418.0","0","0","38371","","null","","","null","46","","NaN","","","","","","","","","","","","","",""
"","response","","html-keyboard-response","304","497505","0.0-1.0-419.0-0.0","0","0","38371","","390","","","68","46","","","1","46","training","adjacent","DE","4","5","O.jpg","Q.jpg","0","1","0","",""
"","feedback","","html-keyboard-response","305","498508","0.0-1.0-420.0-0.0","0","0","38371","","null","","","null","46","","","","","","","","","","","","","","","",""
"","time_out","","html-keyboard-response","306","500511","0.0-1.0-422.0-0.0","0","0","38371","","null","","","null","46","","","","","","","","","","","","","","","",""
"","ITI","","html-keyboard-response","307","501514","0.0-1.0-423.0","0","0","38371","","null","","","null","46","","","","","","","","","","","","","","","NaN",""
"","S1","","html-keyboard-response","308","501767","0.0-1.0-425.0","0","0","38371","","null","","","null","47","","","","","","","","","","","","","","","",""
"","ISI","","html-keyboard-response","309","502769","0.0-1.0-426.0","0","0","38371","","null","","","null","47","NaN","","","","","","","","","","","","","","",""
"","S2","","html-keyboard-response","310","503022","0.0-1.0-427.0","0","0","38371","","null","","","null","47","","NaN","","","","","","","","","","","","","",""
"","response","","html-keyboard-response","311","503385","0.0-1.0-428.0-0.0","0","0","38371","","360","","","68","47","","","1","47","training","adjacent","BA","2","1","M.jpg","L.jpg","0","0","1","",""
"","feedback","","html-keyboard-response","312","504388","0.0-1.0-429.0-0.0","0","0","38371","","null","","","null","47","","","","","","","","","","","","","","","",""
"","ITI","","html-keyboard-response","313","505391","0.0-1.0-432.0","0","0","38371","","null","","","null","47","","","","","","","","","","","","","","","NaN",""
"","block_over","","html-keyboard-response","314","510783","0.0-1.0-433.0-0.0","0","0","38371","","5389","","","32","47","","","","","","","","","","","","","","","",""
"","S1","","html-keyboard-response","315","511036","0.0-1.0-434.0","0","0","38371","","null","","","null","48","","","","","","","","","","","","","","","",""
"","ISI","","html-keyboard-response","316","512039","0.0-1.0-435.0","0","0","38371","","null","","","null","48","NaN","","","","","","","","","","","","","","",""
"","S2","","html-keyboard-response","317","512293","0.0-1.0-436.0","0","0","38371","","null","","","null","48","","NaN","","","","","","","","","","","","","",""
"","response","","html-keyboard-response","318","512596","0.0-1.0-437.0-0.0","0","0","38371","","301","","","75","48","","","2","48","training","adjacent","ED","5","4","Q.jpg","O.jpg","1","0","0","",""
"","feedback","","html-keyboard-response","319","513599","0.0-1.0-438.0-0.0","0","0","38371","","null","","","null","48","","","","","","","","","","","","","","","",""
"","time_out","","html-keyboard-response","320","515602","0.0-1.0-440.0-0.0","0","0","38371","","null","","","null","48","","","","","","","","","","","","","","","",""
"","ITI","","html-keyboard-response","321","516605","0.0-1.0-441.0","0","0","38371","","null","","","null","48","","","","","","","","","","","","","","","NaN",""
"","S1","","html-keyboard-response","322","516858","0.0-1.0-443.0","0","0","38371","","null","","","null","49","","","","","","","","","","","","","","","",""
"","ISI","","html-keyboard-response","323","517860","0.0-1.0-444.0","0","0","38371","","null","","","null","49","NaN","","","","","","","","","","","","","","",""
"","S2","","html-keyboard-response","324","518113","0.0-1.0-445.0","0","0","38371","","null","","","null","49","","NaN","","","","","","","","","","","","","",""
"","response","","html-keyboard-response","325","518410","0.0-1.0-446.0-0.0","0","0","38371","","296","","","68","49","","","2","49","training","adjacent","DE","4","5","O.jpg","Q.jpg","0","1","0","",""
"","feedback","","html-keyboard-response","326","519414","0.0-1.0-447.0-0.0","0","0","38371","","null","","","null","49","","","","","","","","","","","","","","","",""
"","time_out","","html-keyboard-response","327","521417","0.0-1.0-449.0-0.0","0","0","38371","","null","","","null","49","","","","","","","","","","","","","","","",""
"","ITI","","html-keyboard-response","328","522420","0.0-1.0-450.0","0","0","38371","","null","","","null","49","","","","","","","","","","","","","","","NaN",""
"","S1","","html-keyboard-response","329","522673","0.0-1.0-452.0","0","0","38371","","null","","","null","50","","","","","","","","","","","","","","","",""
"","ISI","","html-keyboard-response","330","523676","0.0-1.0-453.0","0","0","38371","","null","","","null","50","NaN","","","","","","","","","","","","","","",""
"","S2","","html-keyboard-response","331","523929","0.0-1.0-454.0","0","0","38371","","null","","","null","50","","NaN","","","","","","","","","","","","","",""
"","response","","html-keyboard-response","332","524195","0.0-1.0-455.0-0.0","0","0","38371","","265","","","68","50","","","2","50","training","adjacent","FE","6","5","R.jpg","Q.jpg","0","0","1","",""
"","feedback","","html-keyboard-response","333","525198","0.0-1.0-456.0-0.0","0","0","38371","","null","","","null","50","","","","","","","","","","","","","","","",""
"","ITI","","html-keyboard-response","334","526201","0.0-1.0-459.0","0","0","38371","","null","","","null","50","","","","","","","","","","","","","","","NaN",""
"","S1","","html-keyboard-response","335","526454","0.0-1.0-461.0","0","0","38371","","null","","","null","51","","","","","","","","","","","","","","","",""
"","ISI","","html-keyboard-response","336","527457","0.0-1.0-462.0","0","0","38371","","null","","","null","51","NaN","","","","","","","","","","","","","","",""
"","S2","","html-keyboard-response","337","527710","0.0-1.0-463.0","0","0","38371","","null","","","null","51","","NaN","","","","","","","","","","","","","",""
"","response","","html-keyboard-response","338","527934","0.0-1.0-464.0-0.0","0","0","38371","","223","","","75","51","","","2","51","training","adjacent","DE","4","5","O.jpg","Q.jpg","1","1","1","",""
"","feedback","","html-keyboard-response","339","528938","0.0-1.0-465.0-0.0","0","0","38371","","null","","","null","51","","","","","","","","","","","","","","","",""
"","ITI","","html-keyboard-response","340","529941","0.0-1.0-468.0","0","0","38371","","null","","","null","51","","","","","","","","","","","","","","","NaN",""
"","S1","","html-keyboard-response","341","530193","0.0-1.0-470.0","0","0","38371","","null","","","null","52","","","","","","","","","","","","","","","",""
"","ISI","","html-keyboard-response","342","531196","0.0-1.0-471.0","0","0","38371","","null","","","null","52","NaN","","","","","","","","","","","","","","",""
"","S2","","html-keyboard-response","343","531449","0.0-1.0-472.0","0","0","38371","","null","","","null","52","","NaN","","","","","","","","","","","","","",""
"","response","","html-keyboard-response","344","531560","0.0-1.0-473.0-0.0","0","0","38371","","108","","","68","52","","","2","52","training","adjacent","CD","3","4","N.jpg","O.jpg","0","1","0","",""
"","feedback","","html-keyboard-response","345","532562","0.0-1.0-474.0-0.0","0","0","38371","","null","","","null","52","","","","","","","","","","","","","","","",""
"","time_out","","html-keyboard-response","346","534565","0.0-1.0-476.0-0.0","0","0","38371","","null","","","null","52","","","","","","","","","","","","","","","",""
"","ITI","","html-keyboard-response","347","535568","0.0-1.0-477.0","0","0","38371","","null","","","null","52","","","","","","","","","","","","","","","NaN",""
"","S1","","html-keyboard-response","348","535821","0.0-1.0-479.0","0","0","38371","","null","","","null","53","","","","","","","","","","","","","","","",""
"","ISI","","html-keyboard-response","349","536824","0.0-1.0-480.0","0","0","38371","","null","","","null","53","NaN","","","","","","","","","","","","","","",""
"","S2","","html-keyboard-response","350","537077","0.0-1.0-481.0","0","0","38371","","null","","","null","53","","NaN","","","","","","","","","","","","","",""
"","response","","html-keyboard-response","351","537329","0.0-1.0-482.0-0.0","0","0","38371","","250","","","75","53","","","2","53","training","adjacent","BA","2","1","M.jpg","L.jpg","1","0","0","",""
"","feedback","","html-keyboard-response","352","538332","0.0-1.0-483.0-0.0","0","0","38371","","null","","","null","53","","","","","","","","","","","","","","","",""
"","time_out","","html-keyboard-response","353","540335","0.0-1.0-485.0-0.0","0","0","38371","","null","","","null","53","","","","","","","","","","","","","","","",""
"","ITI","","html-keyboard-response","354","541338","0.0-1.0-486.0","0","0","38371","","356","","","68","53","","","","","","","","","","","","","","","d",""
"","S1","","html-keyboard-response","355","541590","0.0-1.0-488.0","0","0","38371","","null","","","null","54","","","","","","","","","","","","","","","",""
"","ISI","","html-keyboard-response","356","542593","0.0-1.0-489.0","0","0","38371","","null","","","null","54","NaN","","","","","","","","","","","","","","",""
"","S2","","html-keyboard-response","357","542788","0.0-1.0-490.0","0","0","38371","","192","","","68","54","","d","2","54","training","adjacent","FG","6","7","R.jpg","P.jpg","0","1","0","",""
"","feedback","","html-keyboard-response","358","543791","0.0-1.0-492.0-0.0","0","0","38371","","null","","","null","54","","","","","","","","","","","","","","","",""
"","time_out","","html-keyboard-response","359","545794","0.0-1.0-494.0-0.0","0","0","38371","","null","","","null","54","","","","","","","","","","","","","","","",""
"","ITI","","html-keyboard-response","360","546797","0.0-1.0-495.0","0","0","38371","","null","","","null","54","","","","","","","","","","","","","","","NaN",""
"","S1","","html-keyboard-response","361","547050","0.0-1.0-497.0","0","0","38371","","null","","","null","55","","","","","","","","","","","","","","","",""
"","ISI","","html-keyboard-response","362","548053","0.0-1.0-498.0","0","0","38371","","null","","","null","55","NaN","","","","","","","","","","","","","","",""
"","S2","","html-keyboard-response","363","548306","0.0-1.0-499.0","0","0","38371","","null","","","null","55","","NaN","","","","","","","","","","","","","",""
"","response","","html-keyboard-response","364","548583","0.0-1.0-500.0-0.0","0","0","38371","","275","","","75","55","","","2","55","training","adjacent","ED","5","4","Q.jpg","O.jpg","1","0","0","",""
"","feedback","","html-keyboard-response","365","549586","0.0-1.0-501.0-0.0","0","0","38371","","null","","","null","55","","","","","","","","","","","","","","","",""
"","time_out","","html-keyboard-response","366","551589","0.0-1.0-503.0-0.0","0","0","38371","","null","","","null","55","","","","","","","","","","","","","","","",""
"","ITI","","html-keyboard-response","367","552592","0.0-1.0-504.0","0","0","38371","","null","","","null","55","","","","","","","","","","","","","","","NaN",""
"","S1","","html-keyboard-response","368","552845","0.0-1.0-506.0","0","0","38371","","null","","","null","56","","","","","","","","","","","","","","","",""
"","ISI","","html-keyboard-response","369","553848","0.0-1.0-507.0","0","0","38371","","null","","","null","56","NaN","","","","","","","","","","","","","","",""
"","S2","","html-keyboard-response","370","554101","0.0-1.0-508.0","0","0","38371","","null","","","null","56","","NaN","","","","","","","","","","","","","",""
"","response","","html-keyboard-response","371","554118","0.0-1.0-509.0-0.0","0","0","38371","","14","","","68","56","","","2","56","training","adjacent","EF","5","6","Q.jpg","R.jpg","0","1","0","",""
"","feedback","","html-keyboard-response","372","555121","0.0-1.0-510.0-0.0","0","0","38371","","null","","","null","56","","","","","","","","","","","","","","","",""
"","time_out","","html-keyboard-response","373","557123","0.0-1.0-512.0-0.0","0","0","38371","","null","","","null","56","","","","","","","","","","","","","","","",""
"","ITI","","html-keyboard-response","374","558126","0.0-1.0-513.0","0","0","38371","","null","","","null","56","","","","","","","","","","","","","","","NaN",""
"","S1","","html-keyboard-response","375","558379","0.0-1.0-515.0","0","0","38371","","null","","","null","57","","","","","","","","","","","","","","","",""
"","ISI","","html-keyboard-response","376","559381","0.0-1.0-516.0","0","0","38371","","55","","","75","57","k","","","","","","","","","","","","","","",""
"","S2","","html-keyboard-response","377","559634","0.0-1.0-517.0","0","0","38371","","null","","","null","57","","NaN","","","","","","","","","","","","","",""
"","response","","html-keyboard-response","378","559640","0.0-1.0-518.0-0.0","0","0","38371","","4","","","75","57","","","2","57","training","adjacent","DC","4","3","O.jpg","N.jpg","1","0","0","",""
"","feedback","","html-keyboard-response","379","560643","0.0-1.0-519.0-0.0","0","0","38371","","null","","","null","57","","","","","","","","","","","","","","","",""
"","time_out","","html-keyboard-response","380","562647","0.0-1.0-521.0-0.0","0","0","38371","","null","","","null","57","","","","","","","","","","","","","","","",""
"","ITI","","html-keyboard-response","381","563650","0.0-1.0-522.0","0","0","38371","","null","","","null","57","","","","","","","","","","","","","","","NaN",""
"","S1","","html-keyboard-response","382","563903","0.0-1.0-524.0","0","0","38371","","null","","","null","58","","","","","","","","","","","","","","","",""
"","ISI","","html-keyboard-response","383","564906","0.0-1.0-525.0","0","0","38371","","null","","","null","58","NaN","","","","","","","","","","","","","","",""
"","S2","","html-keyboard-response","384","565160","0.0-1.0-526.0","0","0","38371","","null","","","null","58","","NaN","","","","","","","","","","","","","",""
"","response","","html-keyboard-response","385","565430","0.0-1.0-527.0-0.0","0","0","38371","","268","","","68","58","","","2","58","training","adjacent","EF","5","6","Q.jpg","R.jpg","0","1","0","",""
"","feedback","","html-keyboard-response","386","566433","0.0-1.0-528.0-0.0","0","0","38371","","null","","","null","58","","","","","","","","","","","","","","","",""
"","time_out","","html-keyboard-response","387","568436","0.0-1.0-530.0-0.0","0","0","38371","","null","","","null","58","","","","","","","","","","","","","","","",""
"","ITI","","html-keyboard-response","388","569438","0.0-1.0-531.0","0","0","38371","","null","","","null","58","","","","","","","","","","","","","","","NaN",""
"","S1","","html-keyboard-response","389","569696","0.0-1.0-533.0","0","0","38371","","null","","","null","59","","","","","","","","","","","","","","","",""
"","ISI","","html-keyboard-response","390","570699","0.0-1.0-534.0","0","0","38371","","null","","","null","59","NaN","","","","","","","","","","","","","","",""
"","S2","","html-keyboard-response","391","570952","0.0-1.0-535.0","0","0","38371","","null","","","null","59","","NaN","","","","","","","","","","","","","",""
"","response","","html-keyboard-response","392","571027","0.0-1.0-536.0-0.0","0","0","38371","","73","","","75","59","","","2","59","training","adjacent","BA","2","1","M.jpg","L.jpg","1","0","0","",""
"","feedback","","html-keyboard-response","393","572030","0.0-1.0-537.0-0.0","0","0","38371","","null","","","null","59","","","","","","","","","","","","","","","",""
"","time_out","","html-keyboard-response","394","574033","0.0-1.0-539.0-0.0","0","0","38371","","null","","","null","59","","","","","","","","","","","","","","","",""
"","ITI","","html-keyboard-response","395","575037","0.0-1.0-540.0","0","0","38371","","null","","","null","59","","","","","","","","","","","","","","","NaN",""
"","S1","","html-keyboard-response","396","575290","0.0-1.0-542.0","0","0","38371","","null","","","null","60","","","","","","","","","","","","","","","",""
"","ISI","","html-keyboard-response","397","576292","0.0-1.0-543.0","0","0","38371","","null","","","null","60","NaN","","","","","","","","","","","","","","",""
"","S2","","html-keyboard-response","398","576546","0.0-1.0-544.0","0","0","38371","","null","","","null","60","","NaN","","","","","","","","","","","","","",""
"","response","","html-keyboard-response","399","576741","0.0-1.0-545.0-0.0","0","0","38371","","194","","","75","60","","","2","60","training","adjacent","EF","5","6","Q.jpg","R.jpg","1","1","1","",""
"","feedback","","html-keyboard-response","400","577745","0.0-1.0-546.0-0.0","0","0","38371","","null","","","null","60","","","","","","","","","","","","","","","",""
"","ITI","","html-keyboard-response","401","578748","0.0-1.0-549.0","0","0","38371","","null","","","null","60","","","","","","","","","","","","","","","NaN",""
"","S1","","html-keyboard-response","402","579001","0.0-1.0-551.0","0","0","38371","","null","","","null","61","","","","","","","","","","","","","","","",""
"","ISI","","html-keyboard-response","403","580004","0.0-1.0-552.0","0","0","38371","","null","","","null","61","NaN","","","","","","","","","","","","","","",""
"","S2","","html-keyboard-response","404","580258","0.0-1.0-553.0","0","0","38371","","null","","","null","61","","NaN","","","","","","","","","","","","","",""
"","response","","html-keyboard-response","405","580740","0.0-1.0-554.0-0.0","0","0","38371","","479","","","75","61","","","2","61","training","adjacent","ED","5","4","Q.jpg","O.jpg","1","0","0","",""
"","feedback","","html-keyboard-response","406","581742","0.0-1.0-555.0-0.0","0","0","38371","","null","","","null","61","","","","","","","","","","","","","","","",""
"","time_out","","html-keyboard-response","407","583745","0.0-1.0-557.0-0.0","0","0","38371","","null","","","null","61","","","","","","","","","","","","","","","",""
"","ITI","","html-keyboard-response","408","584748","0.0-1.0-558.0","0","0","38371","","null","","","null","61","","","","","","","","","","","","","","","NaN",""
"","S1","","html-keyboard-response","409","585001","0.0-1.0-560.0","0","0","38371","","null","","","null","62","","","","","","","","","","","","","","","",""
"","ISI","","html-keyboard-response","410","586004","0.0-1.0-561.0","0","0","38371","","null","","","null","62","NaN","","","","","","","","","","","","","","",""
"","S2","","html-keyboard-response","411","586258","0.0-1.0-562.0","0","0","38371","","null","","","null","62","","NaN","","","","","","","","","","","","","",""
"","response","","html-keyboard-response","412","586684","0.0-1.0-563.0-0.0","0","0","38371","","424","","","75","62","","","2","62","training","adjacent","DC","4","3","O.jpg","N.jpg","1","0","0","",""
"","feedback","","html-keyboard-response","413","587687","0.0-1.0-564.0-0.0","0","0","38371","","null","","","null","62","","","","","","","","","","","","","","","",""
"","time_out","","html-keyboard-response","414","589690","0.0-1.0-566.0-0.0","0","0","38371","","null","","","null","62","","","","","","","","","","","","","","","",""
"","ITI","","html-keyboard-response","415","590693","0.0-1.0-567.0","0","0","38371","","null","","","null","62","","","","","","","","","","","","","","","NaN",""
"","S1","","html-keyboard-response","416","590946","0.0-1.0-569.0","0","0","38371","","null","","","null","63","","","","","","","","","","","","","","","",""
"","ISI","","html-keyboard-response","417","591948","0.0-1.0-570.0","0","0","38371","","null","","","null","63","NaN","","","","","","","","","","","","","","",""
"","S2","","html-keyboard-response","418","592208","0.0-1.0-571.0","0","0","38371","","null","","","null","63","","NaN","","","","","","","","","","","","","",""
"","response","","html-keyboard-response","419","592514","0.0-1.0-572.0-0.0","0","0","38371","","305","","","75","63","","","2","63","training","adjacent","BC","2","3","M.jpg","N.jpg","1","1","1","",""
"","feedback","","html-keyboard-response","420","593517","0.0-1.0-573.0-0.0","0","0","38371","","null","","","null","63","","","","","","","","","","","","","","","",""
"","ITI","","html-keyboard-response","421","594520","0.0-1.0-576.0","0","0","38371","","null","","","null","63","","","","","","","","","","","","","","","NaN",""
"","S1","","html-keyboard-response","422","594773","0.0-1.0-578.0","0","0","38371","","null","","","null","64","","","","","","","","","","","","","","","",""
"","ISI","","html-keyboard-response","423","595776","0.0-1.0-579.0","0","0","38371","","null","","","null","64","NaN","","","","","","","","","","","","","","",""
"","S2","","html-keyboard-response","424","596029","0.0-1.0-580.0","0","0","38371","","null","","","null","64","","NaN","","","","","","","","","","","","","",""
"","response","","html-keyboard-response","425","596524","0.0-1.0-581.0-0.0","0","0","38371","","492","","","68","64","","","2","64","training","adjacent","CB","3","2","N.jpg","M.jpg","0","0","1","",""
"","feedback","","html-keyboard-response","426","597526","0.0-1.0-582.0-0.0","0","0","38371","","null","","","null","64","","","","","","","","","","","","","","","",""
"","ITI","","html-keyboard-response","427","598530","0.0-1.0-585.0","0","0","38371","","null","","","null","64","","","","","","","","","","","","","","","NaN",""
"","S1","","html-keyboard-response","428","598782","0.0-1.0-587.0","0","0","38371","","null","","","null","65","","","","","","","","","","","","","","","",""
"","ISI","","html-keyboard-response","429","599786","0.0-1.0-588.0","0","0","38371","","null","","","null","65","NaN","","","","","","","","","","","","","","",""
"","S2","","html-keyboard-response","430","600038","0.0-1.0-589.0","0","0","38371","","null","","","null","65","","NaN","","","","","","","","","","","","","",""
"","response","","html-keyboard-response","431","600381","0.0-1.0-590.0-0.0","0","0","38371","","341","","","75","65","","","2","65","training","adjacent","AB","1","2","L.jpg","M.jpg","1","1","1","",""
"","feedback","","html-keyboard-response","432","601384","0.0-1.0-591.0-0.0","0","0","38371","","null","","","null","65","","","","","","","","","","","","","","","",""
"","ITI","","html-keyboard-response","433","602387","0.0-1.0-594.0","0","0","38371","","null","","","null","65","","","","","","","","","","","","","","","NaN",""
"","S1","","html-keyboard-response","434","602651","0.0-1.0-596.0","0","0","38371","","null","","","null","66","","","","","","","","","","","","","","","",""
"","ISI","","html-keyboard-response","435","603653","0.0-1.0-597.0","0","0","38371","","null","","","null","66","NaN","","","","","","","","","","","","","","",""
"","S2","","html-keyboard-response","436","603908","0.0-1.0-598.0","0","0","38371","","null","","","null","66","","NaN","","","","","","","","","","","","","",""
"","response","","html-keyboard-response","437","604576","0.0-1.0-599.0-0.0","0","0","38371","","666","","","68","66","","","2","66","training","adjacent","DE","4","5","O.jpg","Q.jpg","0","1","0","",""
"","feedback","","html-keyboard-response","438","605579","0.0-1.0-600.0-0.0","0","0","38371","","null","","","null","66","","","","","","","","","","","","","","","",""
"","time_out","","html-keyboard-response","439","607582","0.0-1.0-602.0-0.0","0","0","38371","","null","","","null","66","","","","","","","","","","","","","","","",""
"","ITI","","html-keyboard-response","440","608585","0.0-1.0-603.0","0","0","38371","","null","","","null","66","","","","","","","","","","","","","","","NaN",""
"","S1","","html-keyboard-response","441","608838","0.0-1.0-605.0","0","0","38371","","null","","","null","67","","","","","","","","","","","","","","","",""
"","ISI","","html-keyboard-response","442","609841","0.0-1.0-606.0","0","0","38371","","613","","","75","67","k","","","","","","","","","","","","","","",""
"","S2","","html-keyboard-response","443","610094","0.0-1.0-607.0","0","0","38371","","null","","","null","67","","NaN","","","","","","","","","","","","","",""
"","response","","html-keyboard-response","444","610194","0.0-1.0-608.0-0.0","0","0","38371","","98","","","75","67","","","2","67","training","adjacent","BC","2","3","M.jpg","N.jpg","1","1","1","",""
"","feedback","","html-keyboard-response","445","611197","0.0-1.0-609.0-0.0","0","0","38371","","null","","","null","67","","","","","","","","","","","","","","","",""
"","ITI","","html-keyboard-response","446","612200","0.0-1.0-612.0","0","0","38371","","null","","","null","67","","","","","","","","","","","","","","","NaN",""
"","S1","","html-keyboard-response","447","612453","0.0-1.0-614.0","0","0","38371","","null","","","null","68","","","","","","","","","","","","","","","",""
"","ISI","","html-keyboard-response","448","613455","0.0-1.0-615.0","0","0","38371","","null","","","null","68","NaN","","","","","","","","","","","","","","",""
"","S2","","html-keyboard-response","449","613709","0.0-1.0-616.0","0","0","38371","","null","","","null","68","","NaN","","","","","","","","","","","","","",""
"","response","","html-keyboard-response","450","614163","0.0-1.0-617.0-0.0","0","0","38371","","453","","","68","68","","","2","68","training","adjacent","FG","6","7","R.jpg","P.jpg","0","1","0","",""
"","feedback","","html-keyboard-response","451","615167","0.0-1.0-618.0-0.0","0","0","38371","","null","","","null","68","","","","","","","","","","","","","","","",""
"","time_out","","html-keyboard-response","452","617170","0.0-1.0-620.0-0.0","0","0","38371","","null","","","null","68","","","","","","","","","","","","","","","",""
"","ITI","","html-keyboard-response","453","618174","0.0-1.0-621.0","0","0","38371","","null","","","null","68","","","","","","","","","","","","","","","NaN",""
"","S1","","html-keyboard-response","454","618427","0.0-1.0-623.0","0","0","38371","","null","","","null","69","","","","","","","","","","","","","","","",""
"","ISI","","html-keyboard-response","455","619430","0.0-1.0-624.0","0","0","38371","","null","","","null","69","NaN","","","","","","","","","","","","","","",""
"","S2","","html-keyboard-response","456","619683","0.0-1.0-625.0","0","0","38371","","null","","","null","69","","NaN","","","","","","","","","","","","","",""
"","response","","html-keyboard-response","457","619982","0.0-1.0-626.0-0.0","0","0","38371","","297","","","75","69","","","2","69","training","adjacent","AB","1","2","L.jpg","M.jpg","1","1","1","",""
"","feedback","","html-keyboard-response","458","620986","0.0-1.0-627.0-0.0","0","0","38371","","null","","","null","69","","","","","","","","","","","","","","","",""
"","ITI","","html-keyboard-response","459","621988","0.0-1.0-630.0","0","0","38371","","null","","","null","69","","","","","","","","","","","","","","","NaN",""
"","S1","","html-keyboard-response","460","622241","0.0-1.0-632.0","0","0","38371","","null","","","null","70","","","","","","","","","","","","","","","",""
"","ISI","","html-keyboard-response","461","623243","0.0-1.0-633.0","0","0","38371","","null","","","null","70","NaN","","","","","","","","","","","","","","",""
"","S2","","html-keyboard-response","462","623497","0.0-1.0-634.0","0","0","38371","","null","","","null","70","","NaN","","","","","","","","","","","","","",""
"","response","","html-keyboard-response","463","624027","0.0-1.0-635.0-0.0","0","0","38371","","528","","","75","70","","","2","70","training","adjacent","GF","7","6","P.jpg","R.jpg","1","0","0","",""
"","feedback","","html-keyboard-response","464","625031","0.0-1.0-636.0-0.0","0","0","38371","","null","","","null","70","","","","","","","","","","","","","","","",""
"","time_out","","html-keyboard-response","465","627034","0.0-1.0-638.0-0.0","0","0","38371","","null","","","null","70","","","","","","","","","","","","","","","",""
"","ITI","","html-keyboard-response","466","628036","0.0-1.0-639.0","0","0","38371","","null","","","null","70","","","","","","","","","","","","","","","NaN",""
"","S1","","html-keyboard-response","467","628289","0.0-1.0-641.0","0","0","38371","","null","","","null","71","","","","","","","","","","","","","","","",""
"","ISI","","html-keyboard-response","468","629292","0.0-1.0-642.0","0","0","38371","","null","","","null","71","NaN","","","","","","","","","","","","","","",""
"","S2","","html-keyboard-response","469","629545","0.0-1.0-643.0","0","0","38371","","null","","","null","71","","NaN","","","","","","","","","","","","","",""
"","response","","html-keyboard-response","470","630170","0.0-1.0-644.0-0.0","0","0","38371","","623","","","75","71","","","2","71","training","adjacent","FG","6","7","R.jpg","P.jpg","1","1","1","",""
"","feedback","","html-keyboard-response","471","631173","0.0-1.0-645.0-0.0","0","0","38371","","null","","","null","71","","","","","","","","","","","","","","","",""
"","ITI","","html-keyboard-response","472","632176","0.0-1.0-648.0","0","0","38371","","null","","","null","71","","","","","","","","","","","","","","","NaN",""
"","S1","","html-keyboard-response","473","632429","0.0-1.0-650.0","0","0","38371","","null","","","null","72","","","","","","","","","","","","","","","",""
"","ISI","","html-keyboard-response","474","633432","0.0-1.0-651.0","0","0","38371","","null","","","null","72","NaN","","","","","","","","","","","","","","",""
"","S2","","html-keyboard-response","475","633686","0.0-1.0-652.0","0","0","38371","","null","","","null","72","","NaN","","","","","","","","","","","","","",""
"","response","","html-keyboard-response","476","633979","0.0-1.0-653.0-0.0","0","0","38371","","292","","","68","72","","","2","72","training","adjacent","BC","2","3","M.jpg","N.jpg","0","1","0","",""
"","feedback","","html-keyboard-response","477","634983","0.0-1.0-654.0-0.0","0","0","38371","","null","","","null","72","","","","","","","","","","","","","","","",""
"","time_out","","html-keyboard-response","478","636986","0.0-1.0-656.0-0.0","0","0","38371","","null","","","null","72","","","","","","","","","","","","","","","",""
"","ITI","","html-keyboard-response","479","637989","0.0-1.0-657.0","0","0","38371","","null","","","null","72","","","","","","","","","","","","","","","NaN",""
"","S1","","html-keyboard-response","480","638243","0.0-1.0-659.0","0","0","38371","","null","","","null","73","","","","","","","","","","","","","","","",""
"","ISI","","html-keyboard-response","481","639245","0.0-1.0-660.0","0","0","38371","","null","","","null","73","NaN","","","","","","","","","","","","","","",""
"","S2","","html-keyboard-response","482","639497","0.0-1.0-661.0","0","0","38371","","null","","","null","73","","NaN","","","","","","","","","","","","","",""
"","response","","html-keyboard-response","483","639513","0.0-1.0-662.0-0.0","0","0","38371","","15","","","75","73","","","2","73","training","adjacent","GF","7","6","P.jpg","R.jpg","1","0","0","",""
"","feedback","","html-keyboard-response","484","640515","0.0-1.0-663.0-0.0","0","0","38371","","null","","","null","73","","","","","","","","","","","","","","","",""
"","time_out","","html-keyboard-response","485","642518","0.0-1.0-665.0-0.0","0","0","38371","","null","","","null","73","","","","","","","","","","","","","","","",""
"","ITI","","html-keyboard-response","486","643522","0.0-1.0-666.0","0","0","38371","","null","","","null","73","","","","","","","","","","","","","","","NaN",""
"","S1","","html-keyboard-response","487","643776","0.0-1.0-668.0","0","0","38371","","null","","","null","74","","","","","","","","","","","","","","","",""
"","ISI","","html-keyboard-response","488","644778","0.0-1.0-669.0","0","0","38371","","null","","","null","74","NaN","","","","","","","","","","","","","","",""
"","S2","","html-keyboard-response","489","645031","0.0-1.0-670.0","0","0","38371","","null","","","null","74","","NaN","","","","","","","","","","","","","",""
"","response","","html-keyboard-response","490","645334","0.0-1.0-671.0-0.0","0","0","38371","","301","","","68","74","","","2","74","training","adjacent","GF","7","6","P.jpg","R.jpg","0","0","1","",""
"","feedback","","html-keyboard-response","491","646337","0.0-1.0-672.0-0.0","0","0","38371","","null","","","null","74","","","","","","","","","","","","","","","",""
"","ITI","","html-keyboard-response","492","647340","0.0-1.0-675.0","0","0","38371","","null","","","null","74","","","","","","","","","","","","","","","NaN",""
"","S1","","html-keyboard-response","493","647593","0.0-1.0-677.0","0","0","38371","","null","","","null","75","","","","","","","","","","","","","","","",""
"","ISI","","html-keyboard-response","494","648596","0.0-1.0-678.0","0","0","38371","","null","","","null","75","NaN","","","","","","","","","","","","","","",""
"","S2","","html-keyboard-response","495","648849","0.0-1.0-679.0","0","0","38371","","null","","","null","75","","NaN","","","","","","","","","","","","","",""
"","response","","html-keyboard-response","496","648894","0.0-1.0-680.0-0.0","0","0","38371","","42","","","68","75","","","2","75","training","adjacent","CD","3","4","N.jpg","O.jpg","0","1","0","",""
"","feedback","","html-keyboard-response","497","649896","0.0-1.0-681.0-0.0","0","0","38371","","null","","","null","75","","","","","","","","","","","","","","","",""
"","time_out","","html-keyboard-response","498","651899","0.0-1.0-683.0-0.0","0","0","38371","","null","","","null","75","","","","","","","","","","","","","","","",""
"","ITI","","html-keyboard-response","499","652902","0.0-1.0-684.0","0","0","38371","","null","","","null","75","","","","","","","","","","","","","","","NaN",""
"","S1","","html-keyboard-response","500","653156","0.0-1.0-686.0","0","0","38371","","null","","","null","76","","","","","","","","","","","","","","","",""
"","ISI","","html-keyboard-response","501","654158","0.0-1.0-687.0","0","0","38371","","null","","","null","76","NaN","","","","","","","","","","","","","","",""
"","S2","","html-keyboard-response","502","654421","0.0-1.0-688.0","0","0","38371","","null","","","null","76","","NaN","","","","","","","","","","","","","",""
"","response","","html-keyboard-response","503","654815","0.0-1.0-689.0-0.0","0","0","38371","","391","","","68","76","","","2","76","training","adjacent","GF","7","6","P.jpg","R.jpg","0","0","1","",""
"","feedback","","html-keyboard-response","504","655818","0.0-1.0-690.0-0.0","0","0","38371","","null","","","null","76","","","","","","","","","","","","","","","",""
"","ITI","","html-keyboard-response","505","656821","0.0-1.0-693.0","0","0","38371","","null","","","null","76","","","","","","","","","","","","","","","NaN",""
"","S1","","html-keyboard-response","506","657074","0.0-1.0-695.0","0","0","38371","","null","","","null","77","","","","","","","","","","","","","","","",""
"","ISI","","html-keyboard-response","507","658077","0.0-1.0-696.0","0","0","38371","","null","","","null","77","NaN","","","","","","","","","","","","","","",""
"","S2","","html-keyboard-response","508","658330","0.0-1.0-697.0","0","0","38371","","null","","","null","77","","NaN","","","","","","","","","","","","","",""
"","response","","html-keyboard-response","509","658711","0.0-1.0-698.0-0.0","0","0","38371","","378","","","75","77","","","2","77","training","adjacent","CB","3","2","N.jpg","M.jpg","1","0","0","",""
"","feedback","","html-keyboard-response","510","659714","0.0-1.0-699.0-0.0","0","0","38371","","null","","","null","77","","","","","","","","","","","","","","","",""
"","time_out","","html-keyboard-response","511","661717","0.0-1.0-701.0-0.0","0","0","38371","","null","","","null","77","","","","","","","","","","","","","","","",""
"","ITI","","html-keyboard-response","512","662720","0.0-1.0-702.0","0","0","38371","","null","","","null","77","","","","","","","","","","","","","","","NaN",""
"","S1","","html-keyboard-response","513","662972","0.0-1.0-704.0","0","0","38371","","null","","","null","78","","","","","","","","","","","","","","","",""
"","ISI","","html-keyboard-response","514","663975","0.0-1.0-705.0","0","0","38371","","null","","","null","78","NaN","","","","","","","","","","","","","","",""
"","S2","","html-keyboard-response","515","664228","0.0-1.0-706.0","0","0","38371","","null","","","null","78","","NaN","","","","","","","","","","","","","",""
"","response","","html-keyboard-response","516","664913","0.0-1.0-707.0-0.0","0","0","38371","","683","","","75","78","","","2","78","training","adjacent","DE","4","5","O.jpg","Q.jpg","1","1","1","",""
"","feedback","","html-keyboard-response","517","665917","0.0-1.0-708.0-0.0","0","0","38371","","null","","","null","78","","","","","","","","","","","","","","","",""
"","ITI","","html-keyboard-response","518","666919","0.0-1.0-711.0","0","0","38371","","null","","","null","78","","","","","","","","","","","","","","","NaN",""
"","S1","","html-keyboard-response","519","667172","0.0-1.0-713.0","0","0","38371","","null","","","null","79","","","","","","","","","","","","","","","",""
"","ISI","","html-keyboard-response","520","668175","0.0-1.0-714.0","0","0","38371","","null","","","null","79","NaN","","","","","","","","","","","","","","",""
"","S2","","html-keyboard-response","521","668427","0.0-1.0-715.0","0","0","38371","","null","","","null","79","","NaN","","","","","","","","","","","","","",""
"","response","","html-keyboard-response","522","669095","0.0-1.0-716.0-0.0","0","0","38371","","666","","","75","79","","","2","79","training","adjacent","CB","3","2","N.jpg","M.jpg","1","0","0","",""
"","feedback","","html-keyboard-response","523","670098","0.0-1.0-717.0-0.0","0","0","38371","","null","","","null","79","","","","","","","","","","","","","","","",""
"","time_out","","html-keyboard-response","524","672100","0.0-1.0-719.0-0.0","0","0","38371","","null","","","null","79","","","","","","","","","","","","","","","",""
"","ITI","","html-keyboard-response","525","673102","0.0-1.0-720.0","0","0","38371","","null","","","null","79","","","","","","","","","","","","","","","NaN",""
"","S1","","html-keyboard-response","526","673356","0.0-1.0-722.0","0","0","38371","","null","","","null","80","","","","","","","","","","","","","","","",""
"","ISI","","html-keyboard-response","527","674359","0.0-1.0-723.0","0","0","38371","","null","","","null","80","NaN","","","","","","","","","","","","","","",""
"","S2","","html-keyboard-response","528","674612","0.0-1.0-724.0","0","0","38371","","null","","","null","80","","NaN","","","","","","","","","","","","","",""
"","response","","html-keyboard-response","529","674967","0.0-1.0-725.0-0.0","0","0","38371","","352","","","68","80","","","2","80","training","adjacent","FG","6","7","R.jpg","P.jpg","0","1","0","",""
"","feedback","","html-keyboard-response","530","675970","0.0-1.0-726.0-0.0","0","0","38371","","null","","","null","80","","","","","","","","","","","","","","","",""
"","time_out","","html-keyboard-response","531","677972","0.0-1.0-728.0-0.0","0","0","38371","","null","","","null","80","","","","","","","","","","","","","","","",""
"","ITI","","html-keyboard-response","532","678976","0.0-1.0-729.0","0","0","38371","","null","","","null","80","","","","","","","","","","","","","","","NaN",""
"","S1","","html-keyboard-response","533","679228","0.0-1.0-731.0","0","0","38371","","null","","","null","81","","","","","","","","","","","","","","","",""
"","ISI","","html-keyboard-response","534","680230","0.0-1.0-732.0","0","0","38371","","null","","","null","81","NaN","","","","","","","","","","","","","","",""
"","S2","","html-keyboard-response","535","680482","0.0-1.0-733.0","0","0","38371","","null","","","null","81","","NaN","","","","","","","","","","","","","",""
"","response","","html-keyboard-response","536","680871","0.0-1.0-734.0-0.0","0","0","38371","","386","","","75","81","","","2","81","training","adjacent","CD","3","4","N.jpg","O.jpg","1","1","1","",""
"","feedback","","html-keyboard-response","537","681875","0.0-1.0-735.0-0.0","0","0","38371","","null","","","null","81","","","","","","","","","","","","","","","",""
"","ITI","","html-keyboard-response","538","682877","0.0-1.0-738.0","0","0","38371","","null","","","null","81","","","","","","","","","","","","","","","NaN",""
"","S1","","html-keyboard-response","539","683131","0.0-1.0-740.0","0","0","38371","","null","","","null","82","","","","","","","","","","","","","","","",""
"","ISI","","html-keyboard-response","540","684133","0.0-1.0-741.0","0","0","38371","","null","","","null","82","NaN","","","","","","","","","","","","","","",""
"","S2","","html-keyboard-response","541","684386","0.0-1.0-742.0","0","0","38371","","null","","","null","82","","NaN","","","","","","","","","","","","","",""
"","response","","html-keyboard-response","542","685062","0.0-1.0-743.0-0.0","0","0","38371","","673","","","75","82","","","2","82","training","adjacent","CB","3","2","N.jpg","M.jpg","1","0","0","",""
"","feedback","","html-keyboard-response","543","686066","0.0-1.0-744.0-0.0","0","0","38371","","null","","","null","82","","","","","","","","","","","","","","","",""
"","time_out","","html-keyboard-response","544","688069","0.0-1.0-746.0-0.0","0","0","38371","","null","","","null","82","","","","","","","","","","","","","","","",""
"","ITI","","html-keyboard-response","545","689071","0.0-1.0-747.0","0","0","38371","","null","","","null","82","","","","","","","","","","","","","","","NaN",""
"","S1","","html-keyboard-response","546","689324","0.0-1.0-749.0","0","0","38371","","null","","","null","83","","","","","","","","","","","","","","","",""
"","ISI","","html-keyboard-response","547","690327","0.0-1.0-750.0","0","0","38371","","null","","","null","83","NaN","","","","","","","","","","","","","","",""
"","S2","","html-keyboard-response","548","690579","0.0-1.0-751.0","0","0","38371","","null","","","null","83","","NaN","","","","","","","","","","","","","",""
"","response","","html-keyboard-response","549","690905","0.0-1.0-752.0-0.0","0","0","38371","","323","","","68","83","","","2","83","training","adjacent","CD","3","4","N.jpg","O.jpg","0","1","0","",""
"","feedback","","html-keyboard-response","550","691908","0.0-1.0-753.0-0.0","0","0","38371","","null","","","null","83","","","","","","","","","","","","","","","",""
"","time_out","","html-keyboard-response","551","693911","0.0-1.0-755.0-0.0","0","0","38371","","null","","","null","83","","","","","","","","","","","","","","","",""
"","ITI","","html-keyboard-response","552","694913","0.0-1.0-756.0","0","0","38371","","null","","","null","83","","","","","","","","","","","","","","","NaN",""
"","S1","","html-keyboard-response","553","695166","0.0-1.0-758.0","0","0","38371","","null","","","null","84","","","","","","","","","","","","","","","",""
"","ISI","","html-keyboard-response","554","696168","0.0-1.0-759.0","0","0","38371","","448","","","75","84","k","","","","","","","","","","","","","","",""
"","S2","","html-keyboard-response","555","696421","0.0-1.0-760.0","0","0","38371","","null","","","null","84","","NaN","","","","","","","","","","","","","",""
"","response","","html-keyboard-response","556","696443","0.0-1.0-761.0-0.0","0","0","38371","","20","","","75","84","","","2","84","training","adjacent","BC","2","3","M.jpg","N.jpg","1","1","1","",""
"","feedback","","html-keyboard-response","557","697447","0.0-1.0-762.0-0.0","0","0","38371","","null","","","null","84","","","","","","","","","","","","","","","",""
"","ITI","","html-keyboard-response","558","698450","0.0-1.0-765.0","0","0","38371","","null","","","null","84","","","","","","","","","","","","","","","NaN",""
"","S1","","html-keyboard-response","559","698703","0.0-1.0-767.0","0","0","38371","","null","","","null","85","","","","","","","","","","","","","","","",""
"","ISI","","html-keyboard-response","560","699706","0.0-1.0-768.0","0","0","38371","","690","","","68","85","d","","","","","","","","","","","","","","",""
"","S2","","html-keyboard-response","561","699960","0.0-1.0-769.0","0","0","38371","","null","","","null","85","","NaN","","","","","","","","","","","","","",""
"","response","","html-keyboard-response","562","700594","0.0-1.0-770.0-0.0","0","0","38371","","633","","","75","85","","","2","85","training","adjacent","FE","6","5","R.jpg","Q.jpg","1","0","0","",""
"","feedback","","html-keyboard-response","563","701598","0.0-1.0-771.0-0.0","0","0","38371","","null","","","null","85","","","","","","","","","","","","","","","",""
"","time_out","","html-keyboard-response","564","703600","0.0-1.0-773.0-0.0","0","0","38371","","null","","","null","85","","","","","","","","","","","","","","","",""
"","ITI","","html-keyboard-response","565","704603","0.0-1.0-774.0","0","0","38371","","null","","","null","85","","","","","","","","","","","","","","","NaN",""
"","S1","","html-keyboard-response","566","704857","0.0-1.0-776.0","0","0","38371","","null","","","null","86","","","","","","","","","","","","","","","",""
"","ISI","","html-keyboard-response","567","705860","0.0-1.0-777.0","0","0","38371","","445","","","68","86","d","","","","","","","","","","","","","","",""
"","S2","","html-keyboard-response","568","705940","0.0-1.0-778.0","0","0","38371","","78","","","68","86","","d","2","86","training","adjacent","EF","5","6","Q.jpg","R.jpg","0","1","0","",""
"","feedback","","html-keyboard-response","569","706944","0.0-1.0-780.0-0.0","0","0","38371","","null","","","null","86","","","","","","","","","","","","","","","",""
"","time_out","","html-keyboard-response","570","708946","0.0-1.0-782.0-0.0","0","0","38371","","null","","","null","86","","","","","","","","","","","","","","","",""
"","ITI","","html-keyboard-response","571","709949","0.0-1.0-783.0","0","0","38371","","null","","","null","86","","","","","","","","","","","","","","","NaN",""
"","S1","","html-keyboard-response","572","710203","0.0-1.0-785.0","0","0","38371","","null","","","null","87","","","","","","","","","","","","","","","",""
"","ISI","","html-keyboard-response","573","711206","0.0-1.0-786.0","0","0","38371","","127","","","75","87","k","","","","","","","","","","","","","","",""
"","S2","","html-keyboard-response","574","711459","0.0-1.0-787.0","0","0","38371","","null","","","null","87","","NaN","","","","","","","","","","","","","",""
"","response","","html-keyboard-response","575","711966","0.0-1.0-788.0-0.0","0","0","38371","","505","","","75","87","","","2","87","training","adjacent","ED","5","4","Q.jpg","O.jpg","1","0","0","",""
"","feedback","","html-keyboard-response","576","712970","0.0-1.0-789.0-0.0","0","0","38371","","null","","","null","87","","","","","","","","","","","","","","","",""
"","time_out","","html-keyboard-response","577","714972","0.0-1.0-791.0-0.0","0","0","38371","","null","","","null","87","","","","","","","","","","","","","","","",""
"","ITI","","html-keyboard-response","578","715975","0.0-1.0-792.0","0","0","38371","","null","","","null","87","","","","","","","","","","","","","","","NaN",""
"","S1","","html-keyboard-response","579","716228","0.0-1.0-794.0","0","0","38371","","null","","","null","88","","","","","","","","","","","","","","","",""
"","ISI","","html-keyboard-response","580","717230","0.0-1.0-795.0","0","0","38371","","null","","","null","88","NaN","","","","","","","","","","","","","","",""
"","S2","","html-keyboard-response","581","717482","0.0-1.0-796.0","0","0","38371","","null","","","null","88","","NaN","","","","","","","","","","","","","",""
