"success","ttype","start_time","trial_type","trial_index","time_elapsed","internal_node_id","warning","missed_checkup","PID","view_history","rt","responses","repeat_instructions","key_press","index","keypress_isi","keypress_S2","block","trial_num","phase","group_type","pair_type","S1_stim","S2_stim","S1_img","S2_img","S1_chosen","S1_higher","accuracy","keypress_iti","total_bonus_tally"
"true","full_screen","d03072023hr1800","fullscreen","0","22808","0.0-0.0","0","0","23103","","","","","","","","","","","","","","","","","","","","","",""
"","instructions","","instructions","1","171138","0.0-1.0-0.0-0.0","0","0","23103","[{""page_index"":0,""viewing_time"":7233},{""page_index"":1,""viewing_time"":28351},{""page_index"":2,""viewing_time"":109608},{""page_index"":3,""viewing_time"":3135}]","148327","","","","","","","","","","","","","","","","","","","",""
"","comprehension_check","","survey-multi-choice","2","265362","0.0-1.0-0.0-1.0","0","0","23103","","94221","{""Q0"":""True"",""Q1"":""K"",""Q2"":""Once the second image appears and while the screen 'MAKE A CHOICE' is shown"",""Q3"":""Green mark"",""Q4"":""either D or K""}","0","","","","","","","","","","","","","","","","","",""
"","start_exp","","html-keyboard-response","3","269484","0.0-1.0-1.0","0","0","23103","","4119","","","32","","","","","","","","","","","","","","","","",""
"","S1","","html-keyboard-response","4","269737","0.0-1.0-2.0","0","0","23103","","null","","","null","0","","","","","","","","","","","","","","","",""
"","ISI","","html-keyboard-response","5","270739","0.0-1.0-3.0","0","0","23103","","null","","","null","0","NaN","","","","","","","","","","","","","","",""
"","S2","","html-keyboard-response","6","270993","0.0-1.0-4.0","0","0","23103","","null","","","null","0","","NaN","","","","","","","","","","","","","",""
"","response","","html-keyboard-response","7","271386","0.0-1.0-5.0-0.0","0","0","23103","","392","","","68","0","","","1","0","training","adjacent","BC","2","3","M.jpg","R.jpg","0","1","0","",""
"","feedback","","html-keyboard-response","8","272389","0.0-1.0-6.0-0.0","0","0","23103","","null","","","null","0","","","","","","","","","","","","","","","",""
"","time_out","","html-keyboard-response","9","274392","0.0-1.0-8.0-0.0","0","0","23103","","null","","","null","0","","","","","","","","","","","","","","","",""
"","ITI","","html-keyboard-response","10","275395","0.0-1.0-9.0","0","0","23103","","null","","","null","0","","","","","","","","","","","","","","","NaN",""
"","S1","","html-keyboard-response","11","275648","0.0-1.0-11.0","0","0","23103","","null","","","null","1","","","","","","","","","","","","","","","",""
"","ISI","","html-keyboard-response","12","276651","0.0-1.0-12.0","0","0","23103","","null","","","null","1","NaN","","","","","","","","","","","","","","",""
"","S2","","html-keyboard-response","13","276903","0.0-1.0-13.0","0","0","23103","","null","","","null","1","","NaN","","","","","","","","","","","","","",""
"","response","","html-keyboard-response","14","277202","0.0-1.0-14.0-0.0","0","0","23103","","298","","","75","1","","","1","1","training","adjacent","FG","6","7","P.jpg","N.jpg","1","1","1","",""
"","feedback","","html-keyboard-response","15","278205","0.0-1.0-15.0-0.0","0","0","23103","","null","","","null","1","","","","","","","","","","","","","","","",""
"","ITI","","html-keyboard-response","16","279208","0.0-1.0-18.0","0","0","23103","","null","","","null","1","","","","","","","","","","","","","","","NaN",""
"","S1","","html-keyboard-response","17","279460","0.0-1.0-20.0","0","0","23103","","null","","","null","2","","","","","","","","","","","","","","","",""
"","ISI","","html-keyboard-response","18","280462","0.0-1.0-21.0","0","0","23103","","null","","","null","2","NaN","","","","","","","","","","","","","","",""
"","S2","","html-keyboard-response","19","280722","0.0-1.0-22.0","0","0","23103","","null","","","null","2","","NaN","","","","","","","","","","","","","",""
"","response","","html-keyboard-response","20","281012","0.0-1.0-23.0-0.0","0","0","23103","","287","","","75","2","","","1","2","training","adjacent","CD","3","4","R.jpg","L.jpg","1","1","1","",""
"","feedback","","html-keyboard-response","21","282016","0.0-1.0-24.0-0.0","0","0","23103","","null","","","null","2","","","","","","","","","","","","","","","",""
"","ITI","","html-keyboard-response","22","283028","0.0-1.0-27.0","0","0","23103","","null","","","null","2","","","","","","","","","","","","","","","NaN",""
"","S1","","html-keyboard-response","23","283281","0.0-1.0-29.0","0","0","23103","","null","","","null","3","","","","","","","","","","","","","","","",""
"","ISI","","html-keyboard-response","24","284284","0.0-1.0-30.0","0","0","23103","","null","","","null","3","NaN","","","","","","","","","","","","","","",""
"","S2","","html-keyboard-response","25","284536","0.0-1.0-31.0","0","0","23103","","null","","","null","3","","NaN","","","","","","","","","","","","","",""
"","response","","html-keyboard-response","26","284812","0.0-1.0-32.0-0.0","0","0","23103","","274","","","75","3","","","1","3","training","adjacent","BC","2","3","M.jpg","R.jpg","1","1","1","",""
"","feedback","","html-keyboard-response","27","285815","0.0-1.0-33.0-0.0","0","0","23103","","null","","","null","3","","","","","","","","","","","","","","","",""
"","ITI","","html-keyboard-response","28","286818","0.0-1.0-36.0","0","0","23103","","null","","","null","3","","","","","","","","","","","","","","","NaN",""
"","S1","","html-keyboard-response","29","287070","0.0-1.0-38.0","0","0","23103","","null","","","null","4","","","","","","","","","","","","","","","",""
"","ISI","","html-keyboard-response","30","288073","0.0-1.0-39.0","0","0","23103","","null","","","null","4","NaN","","","","","","","","","","","","","","",""
"","S2","","html-keyboard-response","31","288335","0.0-1.0-40.0","0","0","23103","","null","","","null","4","","NaN","","","","","","","","","","","","","",""
"","response","","html-keyboard-response","32","288594","0.0-1.0-41.0-0.0","0","0","23103","","257","","","75","4","","","1","4","training","adjacent","EF","5","6","O.jpg","P.jpg","1","1","1","",""
"","feedback","","html-keyboard-response","33","289596","0.0-1.0-42.0-0.0","0","0","23103","","null","","","null","4","","","","","","","","","","","","","","","",""
"","ITI","","html-keyboard-response","34","290599","0.0-1.0-45.0","0","0","23103","","null","","","null","4","","","","","","","","","","","","","","","NaN",""
"","S1","","html-keyboard-response","35","290852","0.0-1.0-47.0","0","0","23103","","null","","","null","5","","","","","","","","","","","","","","","",""
"","ISI","","html-keyboard-response","36","291855","0.0-1.0-48.0","0","0","23103","","null","","","null","5","NaN","","","","","","","","","","","","","","",""
"","S2","","html-keyboard-response","37","292108","0.0-1.0-49.0","0","0","23103","","null","","","null","5","","NaN","","","","","","","","","","","","","",""
"","response","","html-keyboard-response","38","292162","0.0-1.0-50.0-0.0","0","0","23103","","53","","","75","5","","","1","5","training","adjacent","CB","3","2","R.jpg","M.jpg","1","0","0","",""
"","feedback","","html-keyboard-response","39","293165","0.0-1.0-51.0-0.0","0","0","23103","","null","","","null","5","","","","","","","","","","","","","","","",""
"","time_out","","html-keyboard-response","40","295167","0.0-1.0-53.0-0.0","0","0","23103","","null","","","null","5","","","","","","","","","","","","","","","",""
"","ITI","","html-keyboard-response","41","296170","0.0-1.0-54.0","0","0","23103","","null","","","null","5","","","","","","","","","","","","","","","NaN",""
"","S1","","html-keyboard-response","42","296423","0.0-1.0-56.0","0","0","23103","","null","","","null","6","","","","","","","","","","","","","","","",""
"","ISI","","html-keyboard-response","43","297425","0.0-1.0-57.0","0","0","23103","","null","","","null","6","NaN","","","","","","","","","","","","","","",""
"","S2","","html-keyboard-response","44","297678","0.0-1.0-58.0","0","0","23103","","null","","","null","6","","NaN","","","","","","","","","","","","","",""
"","response","","html-keyboard-response","45","297858","0.0-1.0-59.0-0.0","0","0","23103","","179","","","68","6","","","1","6","training","adjacent","DC","4","3","L.jpg","R.jpg","0","0","1","",""
"","feedback","","html-keyboard-response","46","298861","0.0-1.0-60.0-0.0","0","0","23103","","null","","","null","6","","","","","","","","","","","","","","","",""
"","ITI","","html-keyboard-response","47","299864","0.0-1.0-63.0","0","0","23103","","null","","","null","6","","","","","","","","","","","","","","","NaN",""
"","S1","","html-keyboard-response","48","300118","0.0-1.0-65.0","0","0","23103","","null","","","null","7","","","","","","","","","","","","","","","",""
"","ISI","","html-keyboard-response","49","301120","0.0-1.0-66.0","0","0","23103","","null","","","null","7","NaN","","","","","","","","","","","","","","",""
"","S2","","html-keyboard-response","50","301375","0.0-1.0-67.0","0","0","23103","","null","","","null","7","","NaN","","","","","","","","","","","","","",""
"","response","","html-keyboard-response","51","301611","0.0-1.0-68.0-0.0","0","0","23103","","235","","","68","7","","","1","7","training","adjacent","CB","3","2","R.jpg","M.jpg","0","0","1","",""
"","feedback","","html-keyboard-response","52","302614","0.0-1.0-69.0-0.0","0","0","23103","","null","","","null","7","","","","","","","","","","","","","","","",""
"","ITI","","html-keyboard-response","53","303616","0.0-1.0-72.0","0","0","23103","","null","","","null","7","","","","","","","","","","","","","","","NaN",""
"","S1","","html-keyboard-response","54","303870","0.0-1.0-74.0","0","0","23103","","null","","","null","8","","","","","","","","","","","","","","","",""
"","ISI","","html-keyboard-response","55","304871","0.0-1.0-75.0","0","0","23103","","null","","","null","8","NaN","","","","","","","","","","","","","","",""
"","S2","","html-keyboard-response","56","305129","0.0-1.0-76.0","0","0","23103","","null","","","null","8","","NaN","","","","","","","","","","","","","",""
"","response","","html-keyboard-response","57","305388","0.0-1.0-77.0-0.0","0","0","23103","","256","","","68","8","","","1","8","training","adjacent","GF","7","6","N.jpg","P.jpg","0","0","1","",""
"","feedback","","html-keyboard-response","58","306389","0.0-1.0-78.0-0.0","0","0","23103","","null","","","null","8","","","","","","","","","","","","","","","",""
"","ITI","","html-keyboard-response","59","307392","0.0-1.0-81.0","0","0","23103","","null","","","null","8","","","","","","","","","","","","","","","NaN",""
"","S1","","html-keyboard-response","60","307645","0.0-1.0-83.0","0","0","23103","","null","","","null","9","","","","","","","","","","","","","","","",""
"","ISI","","html-keyboard-response","61","308653","0.0-1.0-84.0","0","0","23103","","null","","","null","9","NaN","","","","","","","","","","","","","","",""
"","S2","","html-keyboard-response","62","308906","0.0-1.0-85.0","0","0","23103","","null","","","null","9","","NaN","","","","","","","","","","","","","",""
"","response","","html-keyboard-response","63","309194","0.0-1.0-86.0-0.0","0","0","23103","","287","","","68","9","","","1","9","training","adjacent","AB","1","2","Q.jpg","M.jpg","0","1","0","",""
"","feedback","","html-keyboard-response","64","310196","0.0-1.0-87.0-0.0","0","0","23103","","null","","","null","9","","","","","","","","","","","","","","","",""
"","time_out","","html-keyboard-response","65","312199","0.0-1.0-89.0-0.0","0","0","23103","","null","","","null","9","","","","","","","","","","","","","","","",""
"","ITI","","html-keyboard-response","66","313203","0.0-1.0-90.0","0","0","23103","","null","","","null","9","","","","","","","","","","","","","","","NaN",""
"","S1","","html-keyboard-response","67","313456","0.0-1.0-92.0","0","0","23103","","null","","","null","10","","","","","","","","","","","","","","","",""
"","ISI","","html-keyboard-response","68","314458","0.0-1.0-93.0","0","0","23103","","null","","","null","10","NaN","","","","","","","","","","","","","","",""
"","S2","","html-keyboard-response","69","314710","0.0-1.0-94.0","0","0","23103","","null","","","null","10","","NaN","","","","","","","","","","","","","",""
"","response","","html-keyboard-response","70","314971","0.0-1.0-95.0-0.0","0","0","23103","","260","","","75","10","","","1","10","training","adjacent","BA","2","1","M.jpg","Q.jpg","1","0","0","",""
"","feedback","","html-keyboard-response","71","315974","0.0-1.0-96.0-0.0","0","0","23103","","null","","","null","10","","","","","","","","","","","","","","","",""
"","time_out","","html-keyboard-response","72","317976","0.0-1.0-98.0-0.0","0","0","23103","","null","","","null","10","","","","","","","","","","","","","","","",""
"","ITI","","html-keyboard-response","73","318979","0.0-1.0-99.0","0","0","23103","","null","","","null","10","","","","","","","","","","","","","","","NaN",""
"","S1","","html-keyboard-response","74","319231","0.0-1.0-101.0","0","0","23103","","null","","","null","11","","","","","","","","","","","","","","","",""
"","ISI","","html-keyboard-response","75","320233","0.0-1.0-102.0","0","0","23103","","null","","","null","11","NaN","","","","","","","","","","","","","","",""
"","S2","","html-keyboard-response","76","320492","0.0-1.0-103.0","0","0","23103","","null","","","null","11","","NaN","","","","","","","","","","","","","",""
"","response","","html-keyboard-response","77","320794","0.0-1.0-104.0-0.0","0","0","23103","","300","","","75","11","","","1","11","training","adjacent","EF","5","6","O.jpg","P.jpg","1","1","1","",""
"","feedback","","html-keyboard-response","78","321797","0.0-1.0-105.0-0.0","0","0","23103","","null","","","null","11","","","","","","","","","","","","","","","",""
"","ITI","","html-keyboard-response","79","322800","0.0-1.0-108.0","0","0","23103","","null","","","null","11","","","","","","","","","","","","","","","NaN",""
"","S1","","html-keyboard-response","80","323053","0.0-1.0-110.0","0","0","23103","","null","","","null","12","","","","","","","","","","","","","","","",""
"","ISI","","html-keyboard-response","81","324056","0.0-1.0-111.0","0","0","23103","","null","","","null","12","NaN","","","","","","","","","","","","","","",""
"","S2","","html-keyboard-response","82","324309","0.0-1.0-112.0","0","0","23103","","null","","","null","12","","NaN","","","","","","","","","","","","","",""
"","response","","html-keyboard-response","83","324683","0.0-1.0-113.0-0.0","0","0","23103","","373","","","75","12","","","1","12","training","adjacent","CD","3","4","R.jpg","L.jpg","1","1","1","",""
"","feedback","","html-keyboard-response","84","325687","0.0-1.0-114.0-0.0","0","0","23103","","null","","","null","12","","","","","","","","","","","","","","","",""
"","ITI","","html-keyboard-response","85","326690","0.0-1.0-117.0","0","0","23103","","null","","","null","12","","","","","","","","","","","","","","","NaN",""
"","S1","","html-keyboard-response","86","326943","0.0-1.0-119.0","0","0","23103","","null","","","null","13","","","","","","","","","","","","","","","",""
"","ISI","","html-keyboard-response","87","327947","0.0-1.0-120.0","0","0","23103","","null","","","null","13","NaN","","","","","","","","","","","","","","",""
"","S2","","html-keyboard-response","88","328200","0.0-1.0-121.0","0","0","23103","","null","","","null","13","","NaN","","","","","","","","","","","","","",""
"","response","","html-keyboard-response","89","328531","0.0-1.0-122.0-0.0","0","0","23103","","328","","","75","13","","","1","13","training","adjacent","FG","6","7","P.jpg","N.jpg","1","1","1","",""
"","feedback","","html-keyboard-response","90","329535","0.0-1.0-123.0-0.0","0","0","23103","","null","","","null","13","","","","","","","","","","","","","","","",""
"","ITI","","html-keyboard-response","91","330537","0.0-1.0-126.0","0","0","23103","","null","","","null","13","","","","","","","","","","","","","","","NaN",""
"","S1","","html-keyboard-response","92","330790","0.0-1.0-128.0","0","0","23103","","null","","","null","14","","","","","","","","","","","","","","","",""
"","ISI","","html-keyboard-response","93","331793","0.0-1.0-129.0","0","0","23103","","null","","","null","14","NaN","","","","","","","","","","","","","","",""
"","S2","","html-keyboard-response","94","332047","0.0-1.0-130.0","0","0","23103","","null","","","null","14","","NaN","","","","","","","","","","","","","",""
"","response","","html-keyboard-response","95","332443","0.0-1.0-131.0-0.0","0","0","23103","","394","","","75","14","","","1","14","training","adjacent","DE","4","5","L.jpg","O.jpg","1","1","1","",""
"","feedback","","html-keyboard-response","96","333446","0.0-1.0-132.0-0.0","0","0","23103","","null","","","null","14","","","","","","","","","","","","","","","",""
"","ITI","","html-keyboard-response","97","334449","0.0-1.0-135.0","0","0","23103","","null","","","null","14","","","","","","","","","","","","","","","NaN",""
"","S1","","html-keyboard-response","98","334701","0.0-1.0-137.0","0","0","23103","","null","","","null","15","","","","","","","","","","","","","","","",""
"","ISI","","html-keyboard-response","99","335703","0.0-1.0-138.0","0","0","23103","","null","","","null","15","NaN","","","","","","","","","","","","","","",""
"","S2","","html-keyboard-response","100","335957","0.0-1.0-139.0","0","0","23103","","null","","","null","15","","NaN","","","","","","","","","","","","","",""
"","response","","html-keyboard-response","101","336338","0.0-1.0-140.0-0.0","0","0","23103","","380","","","75","15","","","1","15","training","adjacent","FE","6","5","P.jpg","O.jpg","1","0","0","",""
"","feedback","","html-keyboard-response","102","337342","0.0-1.0-141.0-0.0","0","0","23103","","null","","","null","15","","","","","","","","","","","","","","","",""
"","time_out","","html-keyboard-response","103","339344","0.0-1.0-143.0-0.0","0","0","23103","","null","","","null","15","","","","","","","","","","","","","","","",""
"","ITI","","html-keyboard-response","104","340346","0.0-1.0-144.0","0","0","23103","","null","","","null","15","","","","","","","","","","","","","","","NaN",""
"","S1","","html-keyboard-response","105","340598","0.0-1.0-146.0","0","0","23103","","null","","","null","16","","","","","","","","","","","","","","","",""
"","ISI","","html-keyboard-response","106","341600","0.0-1.0-147.0","0","0","23103","","null","","","null","16","NaN","","","","","","","","","","","","","","",""
"","S2","","html-keyboard-response","107","341853","0.0-1.0-148.0","0","0","23103","","null","","","null","16","","NaN","","","","","","","","","","","","","",""
"","response","","html-keyboard-response","108","342146","0.0-1.0-149.0-0.0","0","0","23103","","292","","","68","16","","","1","16","training","adjacent","GF","7","6","N.jpg","P.jpg","0","0","1","",""
"","feedback","","html-keyboard-response","109","343149","0.0-1.0-150.0-0.0","0","0","23103","","null","","","null","16","","","","","","","","","","","","","","","",""
"","ITI","","html-keyboard-response","110","344152","0.0-1.0-153.0","0","0","23103","","null","","","null","16","","","","","","","","","","","","","","","NaN",""
"","S1","","html-keyboard-response","111","344405","0.0-1.0-155.0","0","0","23103","","null","","","null","17","","","","","","","","","","","","","","","",""
"","ISI","","html-keyboard-response","112","345413","0.0-1.0-156.0","0","0","23103","","null","","","null","17","NaN","","","","","","","","","","","","","","",""
"","S2","","html-keyboard-response","113","345667","0.0-1.0-157.0","0","0","23103","","null","","","null","17","","NaN","","","","","","","","","","","","","",""
"","response","","html-keyboard-response","114","345963","0.0-1.0-158.0-0.0","0","0","23103","","294","","","68","17","","","1","17","training","adjacent","CB","3","2","R.jpg","M.jpg","0","0","1","",""
"","feedback","","html-keyboard-response","115","346966","0.0-1.0-159.0-0.0","0","0","23103","","null","","","null","17","","","","","","","","","","","","","","","",""
"","ITI","","html-keyboard-response","116","347968","0.0-1.0-162.0","0","0","23103","","null","","","null","17","","","","","","","","","","","","","","","NaN",""
"","S1","","html-keyboard-response","117","348221","0.0-1.0-164.0","0","0","23103","","null","","","null","18","","","","","","","","","","","","","","","",""
"","ISI","","html-keyboard-response","118","349223","0.0-1.0-165.0","0","0","23103","","null","","","null","18","NaN","","","","","","","","","","","","","","",""
"","S2","","html-keyboard-response","119","349476","0.0-1.0-166.0","0","0","23103","","null","","","null","18","","NaN","","","","","","","","","","","","","",""
"","response","","html-keyboard-response","120","349754","0.0-1.0-167.0-0.0","0","0","23103","","277","","","68","18","","","1","18","training","adjacent","GF","7","6","N.jpg","P.jpg","0","0","1","",""
"","feedback","","html-keyboard-response","121","350757","0.0-1.0-168.0-0.0","0","0","23103","","null","","","null","18","","","","","","","","","","","","","","","",""
"","ITI","","html-keyboard-response","122","351760","0.0-1.0-171.0","0","0","23103","","null","","","null","18","","","","","","","","","","","","","","","NaN",""
"","S1","","html-keyboard-response","123","352013","0.0-1.0-173.0","0","0","23103","","null","","","null","19","","","","","","","","","","","","","","","",""
"","ISI","","html-keyboard-response","124","353015","0.0-1.0-174.0","0","0","23103","","null","","","null","19","NaN","","","","","","","","","","","","","","",""
"","S2","","html-keyboard-response","125","353268","0.0-1.0-175.0","0","0","23103","","null","","","null","19","","NaN","","","","","","","","","","","","","",""
"","response","","html-keyboard-response","126","353571","0.0-1.0-176.0-0.0","0","0","23103","","301","","","68","19","","","1","19","training","adjacent","CB","3","2","R.jpg","M.jpg","0","0","1","",""
"","feedback","","html-keyboard-response","127","354573","0.0-1.0-177.0-0.0","0","0","23103","","null","","","null","19","","","","","","","","","","","","","","","",""
"","ITI","","html-keyboard-response","128","355577","0.0-1.0-180.0","0","0","23103","","null","","","null","19","","","","","","","","","","","","","","","NaN",""
"","S1","","html-keyboard-response","129","355830","0.0-1.0-182.0","0","0","23103","","null","","","null","20","","","","","","","","","","","","","","","",""
"","ISI","","html-keyboard-response","130","356833","0.0-1.0-183.0","0","0","23103","","null","","","null","20","NaN","","","","","","","","","","","","","","",""
"","S2","","html-keyboard-response","131","357086","0.0-1.0-184.0","0","0","23103","","null","","","null","20","","NaN","","","","","","","","","","","","","",""
"","response","","html-keyboard-response","132","357403","0.0-1.0-185.0-0.0","0","0","23103","","315","","","68","20","","","1","20","training","adjacent","FG","6","7","P.jpg","N.jpg","0","1","0","",""
"","feedback","","html-keyboard-response","133","358420","0.0-1.0-186.0-0.0","0","0","23103","","null","","","null","20","","","","","","","","","","","","","","","",""
"","time_out","","html-keyboard-response","134","360422","0.0-1.0-188.0-0.0","0","0","23103","","null","","","null","20","","","","","","","","","","","","","","","",""
"","ITI","","html-keyboard-response","135","361425","0.0-1.0-189.0","0","0","23103","","null","","","null","20","","","","","","","","","","","","","","","NaN",""
"","S1","","html-keyboard-response","136","361678","0.0-1.0-191.0","0","0","23103","","null","","","null","21","","","","","","","","","","","","","","","",""
"","ISI","","html-keyboard-response","137","362680","0.0-1.0-192.0","0","0","23103","","null","","","null","21","NaN","","","","","","","","","","","","","","",""
"","S2","","html-keyboard-response","138","362933","0.0-1.0-193.0","0","0","23103","","null","","","null","21","","NaN","","","","","","","","","","","","","",""
"","response","","html-keyboard-response","139","363203","0.0-1.0-194.0-0.0","0","0","23103","","268","","","75","21","","","1","21","training","adjacent","ED","5","4","O.jpg","L.jpg","1","0","0","",""
"","feedback","","html-keyboard-response","140","364207","0.0-1.0-195.0-0.0","0","0","23103","","null","","","null","21","","","","","","","","","","","","","","","",""
"","time_out","","html-keyboard-response","141","366213","0.0-1.0-197.0-0.0","0","0","23103","","null","","","null","21","","","","","","","","","","","","","","","",""
"","ITI","","html-keyboard-response","142","367215","0.0-1.0-198.0","0","0","23103","","null","","","null","21","","","","","","","","","","","","","","","NaN",""
"","S1","","html-keyboard-response","143","367467","0.0-1.0-200.0","0","0","23103","","null","","","null","22","","","","","","","","","","","","","","","",""
"","ISI","","html-keyboard-response","144","368471","0.0-1.0-201.0","0","0","23103","","null","","","null","22","NaN","","","","","","","","","","","","","","",""
"","S2","","html-keyboard-response","145","368724","0.0-1.0-202.0","0","0","23103","","null","","","null","22","","NaN","","","","","","","","","","","","","",""
"","response","","html-keyboard-response","146","369043","0.0-1.0-203.0-0.0","0","0","23103","","318","","","75","22","","","1","22","training","adjacent","FG","6","7","P.jpg","N.jpg","1","1","1","",""
"","feedback","","html-keyboard-response","147","370046","0.0-1.0-204.0-0.0","0","0","23103","","null","","","null","22","","","","","","","","","","","","","","","",""
"","ITI","","html-keyboard-response","148","371049","0.0-1.0-207.0","0","0","23103","","null","","","null","22","","","","","","","","","","","","","","","NaN",""
"","S1","","html-keyboard-response","149","371302","0.0-1.0-209.0","0","0","23103","","null","","","null","23","","","","","","","","","","","","","","","",""
"","ISI","","html-keyboard-response","150","372310","0.0-1.0-210.0","0","0","23103","","null","","","null","23","NaN","","","","","","","","","","","","","","",""
"","S2","","html-keyboard-response","151","372563","0.0-1.0-211.0","0","0","23103","","null","","","null","23","","NaN","","","","","","","","","","","","","",""
"","response","","html-keyboard-response","152","372946","0.0-1.0-212.0-0.0","0","0","23103","","381","","","75","23","","","1","23","training","adjacent","BC","2","3","M.jpg","R.jpg","1","1","1","",""
"","feedback","","html-keyboard-response","153","373949","0.0-1.0-213.0-0.0","0","0","23103","","null","","","null","23","","","","","","","","","","","","","","","",""
"","ITI","","html-keyboard-response","154","374952","0.0-1.0-216.0","0","0","23103","","null","","","null","23","","","","","","","","","","","","","","","NaN",""
"","S1","","html-keyboard-response","155","375204","0.0-1.0-218.0","0","0","23103","","null","","","null","24","","","","","","","","","","","","","","","",""
"","ISI","","html-keyboard-response","156","376207","0.0-1.0-219.0","0","0","23103","","null","","","null","24","NaN","","","","","","","","","","","","","","",""
"","S2","","html-keyboard-response","157","376460","0.0-1.0-220.0","0","0","23103","","null","","","null","24","","NaN","","","","","","","","","","","","","",""
"","response","","html-keyboard-response","158","376803","0.0-1.0-221.0-0.0","0","0","23103","","342","","","75","24","","","1","24","training","adjacent","DE","4","5","L.jpg","O.jpg","1","1","1","",""
"","feedback","","html-keyboard-response","159","377805","0.0-1.0-222.0-0.0","0","0","23103","","null","","","null","24","","","","","","","","","","","","","","","",""
"","ITI","","html-keyboard-response","160","378808","0.0-1.0-225.0","0","0","23103","","null","","","null","24","","","","","","","","","","","","","","","NaN",""
"","S1","","html-keyboard-response","161","379060","0.0-1.0-227.0","0","0","23103","","null","","","null","25","","","","","","","","","","","","","","","",""
"","ISI","","html-keyboard-response","162","380063","0.0-1.0-228.0","0","0","23103","","null","","","null","25","NaN","","","","","","","","","","","","","","",""
"","S2","","html-keyboard-response","163","380316","0.0-1.0-229.0","0","0","23103","","null","","","null","25","","NaN","","","","","","","","","","","","","",""
"","response","","html-keyboard-response","164","380699","0.0-1.0-230.0-0.0","0","0","23103","","382","","","75","25","","","1","25","training","adjacent","ED","5","4","O.jpg","L.jpg","1","0","0","",""
"","feedback","","html-keyboard-response","165","381703","0.0-1.0-231.0-0.0","0","0","23103","","null","","","null","25","","","","","","","","","","","","","","","",""
"","time_out","","html-keyboard-response","166","383707","0.0-1.0-233.0-0.0","0","0","23103","","null","","","null","25","","","","","","","","","","","","","","","",""
"","ITI","","html-keyboard-response","167","384710","0.0-1.0-234.0","0","0","23103","","null","","","null","25","","","","","","","","","","","","","","","NaN",""
"","S1","","html-keyboard-response","168","384962","0.0-1.0-236.0","0","0","23103","","null","","","null","26","","","","","","","","","","","","","","","",""
"","ISI","","html-keyboard-response","169","385965","0.0-1.0-237.0","0","0","23103","","null","","","null","26","NaN","","","","","","","","","","","","","","",""
"","S2","","html-keyboard-response","170","386217","0.0-1.0-238.0","0","0","23103","","null","","","null","26","","NaN","","","","","","","","","","","","","",""
"","response","","html-keyboard-response","171","386523","0.0-1.0-239.0-0.0","0","0","23103","","304","","","75","26","","","1","26","training","adjacent","FE","6","5","P.jpg","O.jpg","1","0","0","",""
"","feedback","","html-keyboard-response","172","387526","0.0-1.0-240.0-0.0","0","0","23103","","null","","","null","26","","","","","","","","","","","","","","","",""
"","time_out","","html-keyboard-response","173","389528","0.0-1.0-242.0-0.0","0","0","23103","","null","","","null","26","","","","","","","","","","","","","","","",""
"","ITI","","html-keyboard-response","174","390531","0.0-1.0-243.0","0","0","23103","","null","","","null","26","","","","","","","","","","","","","","","NaN",""
"","S1","","html-keyboard-response","175","390785","0.0-1.0-245.0","0","0","23103","","null","","","null","27","","","","","","","","","","","","","","","",""
"","ISI","","html-keyboard-response","176","391788","0.0-1.0-246.0","0","0","23103","","null","","","null","27","NaN","","","","","","","","","","","","","","",""
"","S2","","html-keyboard-response","177","392042","0.0-1.0-247.0","0","0","23103","","null","","","null","27","","NaN","","","","","","","","","","","","","",""
"","response","","html-keyboard-response","178","392394","0.0-1.0-248.0-0.0","0","0","23103","","350","","","68","27","","","1","27","training","adjacent","DC","4","3","L.jpg","R.jpg","0","0","1","",""
"","feedback","","html-keyboard-response","179","393412","0.0-1.0-249.0-0.0","0","0","23103","","null","","","null","27","","","","","","","","","","","","","","","",""
"","ITI","","html-keyboard-response","180","394414","0.0-1.0-252.0","0","0","23103","","null","","","null","27","","","","","","","","","","","","","","","NaN",""
"","S1","","html-keyboard-response","181","394667","0.0-1.0-254.0","0","0","23103","","null","","","null","28","","","","","","","","","","","","","","","",""
"","ISI","","html-keyboard-response","182","395670","0.0-1.0-255.0","0","0","23103","","null","","","null","28","NaN","","","","","","","","","","","","","","",""
"","S2","","html-keyboard-response","183","395923","0.0-1.0-256.0","0","0","23103","","null","","","null","28","","NaN","","","","","","","","","","","","","",""
"","response","","html-keyboard-response","184","396245","0.0-1.0-257.0-0.0","0","0","23103","","321","","","68","28","","","1","28","training","adjacent","DE","4","5","L.jpg","O.jpg","0","1","0","",""
"","feedback","","html-keyboard-response","185","397248","0.0-1.0-258.0-0.0","0","0","23103","","null","","","null","28","","","","","","","","","","","","","","","",""
"","time_out","","html-keyboard-response","186","399251","0.0-1.0-260.0-0.0","0","0","23103","","null","","","null","28","","","","","","","","","","","","","","","",""
"","ITI","","html-keyboard-response","187","400260","0.0-1.0-261.0","0","0","23103","","null","","","null","28","","","","","","","","","","","","","","","NaN",""
"","S1","","html-keyboard-response","188","400514","0.0-1.0-263.0","0","0","23103","","null","","","null","29","","","","","","","","","","","","","","","",""
"","ISI","","html-keyboard-response","189","401517","0.0-1.0-264.0","0","0","23103","","null","","","null","29","NaN","","","","","","","","","","","","","","",""
"","S2","","html-keyboard-response","190","401770","0.0-1.0-265.0","0","0","23103","","null","","","null","29","","NaN","","","","","","","","","","","","","",""
"","response","","html-keyboard-response","191","402066","0.0-1.0-266.0-0.0","0","0","23103","","293","","","75","29","","","1","29","training","adjacent","ED","5","4","O.jpg","L.jpg","1","0","0","",""
"","feedback","","html-keyboard-response","192","403069","0.0-1.0-267.0-0.0","0","0","23103","","null","","","null","29","","","","","","","","","","","","","","","",""
"","time_out","","html-keyboard-response","193","405072","0.0-1.0-269.0-0.0","0","0","23103","","null","","","null","29","","","","","","","","","","","","","","","",""
"","ITI","","html-keyboard-response","194","406074","0.0-1.0-270.0","0","0","23103","","null","","","null","29","","","","","","","","","","","","","","","NaN",""
"","S1","","html-keyboard-response","195","406326","0.0-1.0-272.0","0","0","23103","","null","","","null","30","","","","","","","","","","","","","","","",""
"","ISI","","html-keyboard-response","196","407328","0.0-1.0-273.0","0","0","23103","","null","","","null","30","NaN","","","","","","","","","","","","","","",""
"","S2","","html-keyboard-response","197","407581","0.0-1.0-274.0","0","0","23103","","null","","","null","30","","NaN","","","","","","","","","","","","","",""
"","response","","html-keyboard-response","198","407891","0.0-1.0-275.0-0.0","0","0","23103","","307","","","68","30","","","1","30","training","adjacent","BA","2","1","M.jpg","Q.jpg","0","0","1","",""
"","feedback","","html-keyboard-response","199","408893","0.0-1.0-276.0-0.0","0","0","23103","","null","","","null","30","","","","","","","","","","","","","","","",""
"","ITI","","html-keyboard-response","200","409896","0.0-1.0-279.0","0","0","23103","","null","","","null","30","","","","","","","","","","","","","","","NaN",""
"","S1","","html-keyboard-response","201","410149","0.0-1.0-281.0","0","0","23103","","null","","","null","31","","","","","","","","","","","","","","","",""
"","ISI","","html-keyboard-response","202","411152","0.0-1.0-282.0","0","0","23103","","null","","","null","31","NaN","","","","","","","","","","","","","","",""
"","S2","","html-keyboard-response","203","411411","0.0-1.0-283.0","0","0","23103","","null","","","null","31","","NaN","","","","","","","","","","","","","",""
"","response","","html-keyboard-response","204","411786","0.0-1.0-284.0-0.0","0","0","23103","","374","","","68","31","","","1","31","training","adjacent","BA","2","1","M.jpg","Q.jpg","0","0","1","",""
"","feedback","","html-keyboard-response","205","412788","0.0-1.0-285.0-0.0","0","0","23103","","null","","","null","31","","","","","","","","","","","","","","","",""
"","ITI","","html-keyboard-response","206","413791","0.0-1.0-288.0","0","0","23103","","null","","","null","31","","","","","","","","","","","","","","","NaN",""
"","S1","","html-keyboard-response","207","414042","0.0-1.0-290.0","0","0","23103","","null","","","null","32","","","","","","","","","","","","","","","",""
"","ISI","","html-keyboard-response","208","415046","0.0-1.0-291.0","0","0","23103","","null","","","null","32","NaN","","","","","","","","","","","","","","",""
"","S2","","html-keyboard-response","209","415298","0.0-1.0-292.0","0","0","23103","","null","","","null","32","","NaN","","","","","","","","","","","","","",""
"","response","","html-keyboard-response","210","415635","0.0-1.0-293.0-0.0","0","0","23103","","334","","","68","32","","","1","32","training","adjacent","BA","2","1","M.jpg","Q.jpg","0","0","1","",""
"","feedback","","html-keyboard-response","211","416637","0.0-1.0-294.0-0.0","0","0","23103","","null","","","null","32","","","","","","","","","","","","","","","",""
"","ITI","","html-keyboard-response","212","417653","0.0-1.0-297.0","0","0","23103","","null","","","null","32","","","","","","","","","","","","","","","NaN",""
"","S1","","html-keyboard-response","213","417906","0.0-1.0-299.0","0","0","23103","","null","","","null","33","","","","","","","","","","","","","","","",""
"","ISI","","html-keyboard-response","214","418909","0.0-1.0-300.0","0","0","23103","","null","","","null","33","NaN","","","","","","","","","","","","","","",""
"","S2","","html-keyboard-response","215","419161","0.0-1.0-301.0","0","0","23103","","null","","","null","33","","NaN","","","","","","","","","","","","","",""
"","response","","html-keyboard-response","216","419564","0.0-1.0-302.0-0.0","0","0","23103","","401","","","68","33","","","1","33","training","adjacent","CD","3","4","R.jpg","L.jpg","0","1","0","",""
"","feedback","","html-keyboard-response","217","420568","0.0-1.0-303.0-0.0","0","0","23103","","null","","","null","33","","","","","","","","","","","","","","","",""
"","time_out","","html-keyboard-response","218","422586","0.0-1.0-305.0-0.0","0","0","23103","","null","","","null","33","","","","","","","","","","","","","","","",""
"","ITI","","html-keyboard-response","219","423589","0.0-1.0-306.0","0","0","23103","","null","","","null","33","","","","","","","","","","","","","","","NaN",""
"","S1","","html-keyboard-response","220","423843","0.0-1.0-308.0","0","0","23103","","null","","","null","34","","","","","","","","","","","","","","","",""
"","ISI","","html-keyboard-response","221","424845","0.0-1.0-309.0","0","0","23103","","null","","","null","34","NaN","","","","","","","","","","","","","","",""
"","S2","","html-keyboard-response","222","425097","0.0-1.0-310.0","0","0","23103","","null","","","null","34","","NaN","","","","","","","","","","","","","",""
"","response","","html-keyboard-response","223","425484","0.0-1.0-311.0-0.0","0","0","23103","","384","","","68","34","","","1","34","training","adjacent","DE","4","5","L.jpg","O.jpg","0","1","0","",""
"","feedback","","html-keyboard-response","224","426488","0.0-1.0-312.0-0.0","0","0","23103","","null","","","null","34","","","","","","","","","","","","","","","",""
"","time_out","","html-keyboard-response","225","428492","0.0-1.0-314.0-0.0","0","0","23103","","null","","","null","34","","","","","","","","","","","","","","","",""
"","ITI","","html-keyboard-response","226","429494","0.0-1.0-315.0","0","0","23103","","null","","","null","34","","","","","","","","","","","","","","","NaN",""
"","S1","","html-keyboard-response","227","429747","0.0-1.0-317.0","0","0","23103","","null","","","null","35","","","","","","","","","","","","","","","",""
"","ISI","","html-keyboard-response","228","430749","0.0-1.0-318.0","0","0","23103","","null","","","null","35","NaN","","","","","","","","","","","","","","",""
"","S2","","html-keyboard-response","229","431002","0.0-1.0-319.0","0","0","23103","","null","","","null","35","","NaN","","","","","","","","","","","","","",""
"","response","","html-keyboard-response","230","431330","0.0-1.0-320.0-0.0","0","0","23103","","327","","","75","35","","","1","35","training","adjacent","AB","1","2","Q.jpg","M.jpg","1","1","1","",""
"","feedback","","html-keyboard-response","231","432333","0.0-1.0-321.0-0.0","0","0","23103","","null","","","null","35","","","","","","","","","","","","","","","",""
"","ITI","","html-keyboard-response","232","433337","0.0-1.0-324.0","0","0","23103","","null","","","null","35","","","","","","","","","","","","","","","NaN",""
"","S1","","html-keyboard-response","233","433590","0.0-1.0-326.0","0","0","23103","","null","","","null","36","","","","","","","","","","","","","","","",""
"","ISI","","html-keyboard-response","234","434593","0.0-1.0-327.0","0","0","23103","","null","","","null","36","NaN","","","","","","","","","","","","","","",""
"","S2","","html-keyboard-response","235","434858","0.0-1.0-328.0","0","0","23103","","null","","","null","36","","NaN","","","","","","","","","","","","","",""
"","response","","html-keyboard-response","236","435187","0.0-1.0-329.0-0.0","0","0","23103","","327","","","75","36","","","1","36","training","adjacent","FE","6","5","P.jpg","O.jpg","1","0","0","",""
"","feedback","","html-keyboard-response","237","436190","0.0-1.0-330.0-0.0","0","0","23103","","null","","","null","36","","","","","","","","","","","","","","","",""
"","time_out","","html-keyboard-response","238","438192","0.0-1.0-332.0-0.0","0","0","23103","","null","","","null","36","","","","","","","","","","","","","","","",""
"","ITI","","html-keyboard-response","239","439194","0.0-1.0-333.0","0","0","23103","","null","","","null","36","","","","","","","","","","","","","","","NaN",""
"","S1","","html-keyboard-response","240","439447","0.0-1.0-335.0","0","0","23103","","null","","","null","37","","","","","","","","","","","","","","","",""
"","ISI","","html-keyboard-response","241","440450","0.0-1.0-336.0","0","0","23103","","null","","","null","37","NaN","","","","","","","","","","","","","","",""
"","S2","","html-keyboard-response","242","440702","0.0-1.0-337.0","0","0","23103","","null","","","null","37","","NaN","","","","","","","","","","","","","",""
"","response","","html-keyboard-response","243","440986","0.0-1.0-338.0-0.0","0","0","23103","","283","","","68","37","","","1","37","training","adjacent","EF","5","6","O.jpg","P.jpg","0","1","0","",""
"","feedback","","html-keyboard-response","244","441989","0.0-1.0-339.0-0.0","0","0","23103","","null","","","null","37","","","","","","","","","","","","","","","",""
"","time_out","","html-keyboard-response","245","443992","0.0-1.0-341.0-0.0","0","0","23103","","null","","","null","37","","","","","","","","","","","","","","","",""
"","ITI","","html-keyboard-response","246","444994","0.0-1.0-342.0","0","0","23103","","null","","","null","37","","","","","","","","","","","","","","","NaN",""
"","S1","","html-keyboard-response","247","445247","0.0-1.0-344.0","0","0","23103","","null","","","null","38","","","","","","","","","","","","","","","",""
"","ISI","","html-keyboard-response","248","446249","0.0-1.0-345.0","0","0","23103","","null","","","null","38","NaN","","","","","","","","","","","","","","",""
"","S2","","html-keyboard-response","249","446502","0.0-1.0-346.0","0","0","23103","","null","","","null","38","","NaN","","","","","","","","","","","","","",""
"","response","","html-keyboard-response","250","446755","0.0-1.0-347.0-0.0","0","0","23103","","251","","","75","38","","","1","38","training","adjacent","DC","4","3","L.jpg","R.jpg","1","0","0","",""
"","feedback","","html-keyboard-response","251","447758","0.0-1.0-348.0-0.0","0","0","23103","","null","","","null","38","","","","","","","","","","","","","","","",""
"","time_out","","html-keyboard-response","252","449760","0.0-1.0-350.0-0.0","0","0","23103","","null","","","null","38","","","","","","","","","","","","","","","",""
"","ITI","","html-keyboard-response","253","450763","0.0-1.0-351.0","0","0","23103","","null","","","null","38","","","","","","","","","","","","","","","NaN",""
"","S1","","html-keyboard-response","254","451014","0.0-1.0-353.0","0","0","23103","","null","","","null","39","","","","","","","","","","","","","","","",""
"","ISI","","html-keyboard-response","255","452018","0.0-1.0-354.0","0","0","23103","","null","","","null","39","NaN","","","","","","","","","","","","","","",""
"","S2","","html-keyboard-response","256","452271","0.0-1.0-355.0","0","0","23103","","null","","","null","39","","NaN","","","","","","","","","","","","","",""
"","response","","html-keyboard-response","257","452587","0.0-1.0-356.0-0.0","0","0","23103","","314","","","75","39","","","1","39","training","adjacent","GF","7","6","N.jpg","P.jpg","1","0","0","",""
"","feedback","","html-keyboard-response","258","453592","0.0-1.0-357.0-0.0","0","0","23103","","null","","","null","39","","","","","","","","","","","","","","","",""
"","time_out","","html-keyboard-response","259","455594","0.0-1.0-359.0-0.0","0","0","23103","","null","","","null","39","","","","","","","","","","","","","","","",""
"","ITI","","html-keyboard-response","260","456597","0.0-1.0-360.0","0","0","23103","","null","","","null","39","","","","","","","","","","","","","","","NaN",""
"","S1","","html-keyboard-response","261","456849","0.0-1.0-362.0","0","0","23103","","null","","","null","40","","","","","","","","","","","","","","","",""
"","ISI","","html-keyboard-response","262","457851","0.0-1.0-363.0","0","0","23103","","null","","","null","40","NaN","","","","","","","","","","","","","","",""
"","S2","","html-keyboard-response","263","458103","0.0-1.0-364.0","0","0","23103","","null","","","null","40","","NaN","","","","","","","","","","","","","",""
"","response","","html-keyboard-response","264","458402","0.0-1.0-365.0-0.0","0","0","23103","","297","","","68","40","","","1","40","training","adjacent","FE","6","5","P.jpg","O.jpg","0","0","1","",""
"","feedback","","html-keyboard-response","265","459405","0.0-1.0-366.0-0.0","0","0","23103","","null","","","null","40","","","","","","","","","","","","","","","",""
"","ITI","","html-keyboard-response","266","460408","0.0-1.0-369.0","0","0","23103","","null","","","null","40","","","","","","","","","","","","","","","NaN",""
"","S1","","html-keyboard-response","267","460661","0.0-1.0-371.0","0","0","23103","","null","","","null","41","","","","","","","","","","","","","","","",""
"","ISI","","html-keyboard-response","268","461674","0.0-1.0-372.0","0","0","23103","","null","","","null","41","NaN","","","","","","","","","","","","","","",""
"","S2","","html-keyboard-response","269","461927","0.0-1.0-373.0","0","0","23103","","null","","","null","41","","NaN","","","","","","","","","","","","","",""
"","response","","html-keyboard-response","270","462267","0.0-1.0-374.0-0.0","0","0","23103","","338","","","68","41","","","1","41","training","adjacent","EF","5","6","O.jpg","P.jpg","0","1","0","",""
"","feedback","","html-keyboard-response","271","463269","0.0-1.0-375.0-0.0","0","0","23103","","null","","","null","41","","","","","","","","","","","","","","","",""
"","time_out","","html-keyboard-response","272","465272","0.0-1.0-377.0-0.0","0","0","23103","","null","","","null","41","","","","","","","","","","","","","","","",""
"","ITI","","html-keyboard-response","273","466276","0.0-1.0-378.0","0","0","23103","","null","","","null","41","","","","","","","","","","","","","","","NaN",""
"","S1","","html-keyboard-response","274","466529","0.0-1.0-380.0","0","0","23103","","null","","","null","42","","","","","","","","","","","","","","","",""
"","ISI","","html-keyboard-response","275","467531","0.0-1.0-381.0","0","0","23103","","null","","","null","42","NaN","","","","","","","","","","","","","","",""
"","S2","","html-keyboard-response","276","467783","0.0-1.0-382.0","0","0","23103","","null","","","null","42","","NaN","","","","","","","","","","","","","",""
"","response","","html-keyboard-response","277","468066","0.0-1.0-383.0-0.0","0","0","23103","","281","","","75","42","","","1","42","training","adjacent","CD","3","4","R.jpg","L.jpg","1","1","1","",""
"","feedback","","html-keyboard-response","278","469069","0.0-1.0-384.0-0.0","0","0","23103","","null","","","null","42","","","","","","","","","","","","","","","",""
"","ITI","","html-keyboard-response","279","470073","0.0-1.0-387.0","0","0","23103","","null","","","null","42","","","","","","","","","","","","","","","NaN",""
"","S1","","html-keyboard-response","280","470324","0.0-1.0-389.0","0","0","23103","","null","","","null","43","","","","","","","","","","","","","","","",""
"","ISI","","html-keyboard-response","281","471338","0.0-1.0-390.0","0","0","23103","","null","","","null","43","NaN","","","","","","","","","","","","","","",""
"","S2","","html-keyboard-response","282","471591","0.0-1.0-391.0","0","0","23103","","null","","","null","43","","NaN","","","","","","","","","","","","","",""
"","response","","html-keyboard-response","283","471850","0.0-1.0-392.0-0.0","0","0","23103","","258","","","75","43","","","1","43","training","adjacent","AB","1","2","Q.jpg","M.jpg","1","1","1","",""
"","feedback","","html-keyboard-response","284","472853","0.0-1.0-393.0-0.0","0","0","23103","","null","","","null","43","","","","","","","","","","","","","","","",""
"","ITI","","html-keyboard-response","285","473856","0.0-1.0-396.0","0","0","23103","","null","","","null","43","","","","","","","","","","","","","","","NaN",""
"","S1","","html-keyboard-response","286","474109","0.0-1.0-398.0","0","0","23103","","null","","","null","44","","","","","","","","","","","","","","","",""
"","ISI","","html-keyboard-response","287","475111","0.0-1.0-399.0","0","0","23103","","null","","","null","44","NaN","","","","","","","","","","","","","","",""
"","S2","","html-keyboard-response","288","475364","0.0-1.0-400.0","0","0","23103","","null","","","null","44","","NaN","","","","","","","","","","","","","",""
"","response","","html-keyboard-response","289","475618","0.0-1.0-401.0-0.0","0","0","23103","","252","","","68","44","","","1","44","training","adjacent","ED","5","4","O.jpg","L.jpg","0","0","1","",""
"","feedback","","html-keyboard-response","290","476622","0.0-1.0-402.0-0.0","0","0","23103","","null","","","null","44","","","","","","","","","","","","","","","",""
"","ITI","","html-keyboard-response","291","477625","0.0-1.0-405.0","0","0","23103","","null","","","null","44","","","","","","","","","","","","","","","NaN",""
"","S1","","html-keyboard-response","292","477878","0.0-1.0-407.0","0","0","23103","","null","","","null","45","","","","","","","","","","","","","","","",""
"","ISI","","html-keyboard-response","293","478880","0.0-1.0-408.0","0","0","23103","","null","","","null","45","NaN","","","","","","","","","","","","","","",""
"","S2","","html-keyboard-response","294","479132","0.0-1.0-409.0","0","0","23103","","null","","","null","45","","NaN","","","","","","","","","","","","","",""
"","response","","html-keyboard-response","295","479194","0.0-1.0-410.0-0.0","0","0","23103","","61","","","68","45","","","1","45","training","adjacent","BC","2","3","M.jpg","R.jpg","0","1","0","",""
"","feedback","","html-keyboard-response","296","480197","0.0-1.0-411.0-0.0","0","0","23103","","null","","","null","45","","","","","","","","","","","","","","","",""
"","time_out","","html-keyboard-response","297","482200","0.0-1.0-413.0-0.0","0","0","23103","","null","","","null","45","","","","","","","","","","","","","","","",""
"","ITI","","html-keyboard-response","298","483203","0.0-1.0-414.0","0","0","23103","","null","","","null","45","","","","","","","","","","","","","","","NaN",""
"","S1","","html-keyboard-response","299","483457","0.0-1.0-416.0","0","0","23103","","null","","","null","46","","","","","","","","","","","","","","","",""
"","ISI","","html-keyboard-response","300","484459","0.0-1.0-417.0","0","0","23103","","null","","","null","46","NaN","","","","","","","","","","","","","","",""
"","S2","","html-keyboard-response","301","484712","0.0-1.0-418.0","0","0","23103","","null","","","null","46","","NaN","","","","","","","","","","","","","",""
"","response","","html-keyboard-response","302","485074","0.0-1.0-419.0-0.0","0","0","23103","","361","","","75","46","","","1","46","training","adjacent","AB","1","2","Q.jpg","M.jpg","1","1","1","",""
"","feedback","","html-keyboard-response","303","486078","0.0-1.0-420.0-0.0","0","0","23103","","null","","","null","46","","","","","","","","","","","","","","","",""
"","ITI","","html-keyboard-response","304","487081","0.0-1.0-423.0","0","0","23103","","null","","","null","46","","","","","","","","","","","","","","","NaN",""
"","S1","","html-keyboard-response","305","487334","0.0-1.0-425.0","0","0","23103","","null","","","null","47","","","","","","","","","","","","","","","",""
"","ISI","","html-keyboard-response","306","488336","0.0-1.0-426.0","0","0","23103","","null","","","null","47","NaN","","","","","","","","","","","","","","",""
"","S2","","html-keyboard-response","307","488590","0.0-1.0-427.0","0","0","23103","","null","","","null","47","","NaN","","","","","","","","","","","","","",""
"","response","","html-keyboard-response","308","489059","0.0-1.0-428.0-0.0","0","0","23103","","467","","","75","47","","","1","47","training","adjacent","DC","4","3","L.jpg","R.jpg","1","0","0","",""
"","feedback","","html-keyboard-response","309","490061","0.0-1.0-429.0-0.0","0","0","23103","","null","","","null","47","","","","","","","","","","","","","","","",""
"","time_out","","html-keyboard-response","310","492064","0.0-1.0-431.0-0.0","0","0","23103","","null","","","null","47","","","","","","","","","","","","","","","",""
"","ITI","","html-keyboard-response","311","493067","0.0-1.0-432.0","0","0","23103","","null","","","null","47","","","","","","","","","","","","","","","NaN",""
"","block_over","","html-keyboard-response","312","497946","0.0-1.0-433.0-0.0","0","0","23103","","4878","","","32","47","","","","","","","","","","","","","","","",""
"","S1","","html-keyboard-response","313","498200","0.0-1.0-434.0","0","0","23103","","null","","","null","48","","","","","","","","","","","","","","","",""
"","ISI","","html-keyboard-response","314","499203","0.0-1.0-435.0","0","0","23103","","null","","","null","48","NaN","","","","","","","","","","","","","","",""
"","S2","","html-keyboard-response","315","499465","0.0-1.0-436.0","0","0","23103","","null","","","null","48","","NaN","","","","","","","","","","","","","",""
"","response","","html-keyboard-response","316","499852","0.0-1.0-437.0-0.0","0","0","23103","","386","","","75","48","","","2","48","training","adjacent","ED","5","4","O.jpg","L.jpg","1","0","0","",""
"","feedback","","html-keyboard-response","317","500855","0.0-1.0-438.0-0.0","0","0","23103","","null","","","null","48","","","","","","","","","","","","","","","",""
"","time_out","","html-keyboard-response","318","502858","0.0-1.0-440.0-0.0","0","0","23103","","null","","","null","48","","","","","","","","","","","","","","","",""
"","ITI","","html-keyboard-response","319","503862","0.0-1.0-441.0","0","0","23103","","null","","","null","48","","","","","","","","","","","","","","","NaN",""
"","S1","","html-keyboard-response","320","504115","0.0-1.0-443.0","0","0","23103","","null","","","null","49","","","","","","","","","","","","","","","",""
"","ISI","","html-keyboard-response","321","505117","0.0-1.0-444.0","0","0","23103","","null","","","null","49","NaN","","","","","","","","","","","","","","",""
"","S2","","html-keyboard-response","322","505370","0.0-1.0-445.0","0","0","23103","","null","","","null","49","","NaN","","","","","","","","","","","","","",""
"","response","","html-keyboard-response","323","505602","0.0-1.0-446.0-0.0","0","0","23103","","230","","","68","49","","","2","49","training","adjacent","DE","4","5","L.jpg","O.jpg","0","1","0","",""
"","feedback","","html-keyboard-response","324","506605","0.0-1.0-447.0-0.0","0","0","23103","","null","","","null","49","","","","","","","","","","","","","","","",""
"","time_out","","html-keyboard-response","325","508608","0.0-1.0-449.0-0.0","0","0","23103","","null","","","null","49","","","","","","","","","","","","","","","",""
"","ITI","","html-keyboard-response","326","509624","0.0-1.0-450.0","0","0","23103","","null","","","null","49","","","","","","","","","","","","","","","NaN",""
"","S1","","html-keyboard-response","327","509878","0.0-1.0-452.0","0","0","23103","","null","","","null","50","","","","","","","","","","","","","","","",""
"","ISI","","html-keyboard-response","328","510880","0.0-1.0-453.0","0","0","23103","","null","","","null","50","NaN","","","","","","","","","","","","","","",""
"","S2","","html-keyboard-response","329","511133","0.0-1.0-454.0","0","0","23103","","null","","","null","50","","NaN","","","","","","","","","","","","","",""
"","response","","html-keyboard-response","330","511353","0.0-1.0-455.0-0.0","0","0","23103","","219","","","68","50","","","2","50","training","adjacent","DC","4","3","L.jpg","R.jpg","0","0","1","",""
"","feedback","","html-keyboard-response","331","512356","0.0-1.0-456.0-0.0","0","0","23103","","null","","","null","50","","","","","","","","","","","","","","","",""
"","ITI","","html-keyboard-response","332","513359","0.0-1.0-459.0","0","0","23103","","null","","","null","50","","","","","","","","","","","","","","","NaN",""
"","S1","","html-keyboard-response","333","513611","0.0-1.0-461.0","0","0","23103","","null","","","null","51","","","","","","","","","","","","","","","",""
"","ISI","","html-keyboard-response","334","514615","0.0-1.0-462.0","0","0","23103","","null","","","null","51","NaN","","","","","","","","","","","","","","",""
"","S2","","html-keyboard-response","335","514868","0.0-1.0-463.0","0","0","23103","","null","","","null","51","","NaN","","","","","","","","","","","","","",""
"","response","","html-keyboard-response","336","515179","0.0-1.0-464.0-0.0","0","0","23103","","308","","","68","51","","","2","51","training","adjacent","EF","5","6","O.jpg","P.jpg","0","1","0","",""
"","feedback","","html-keyboard-response","337","516183","0.0-1.0-465.0-0.0","0","0","23103","","null","","","null","51","","","","","","","","","","","","","","","",""
"","time_out","","html-keyboard-response","338","518185","0.0-1.0-467.0-0.0","0","0","23103","","null","","","null","51","","","","","","","","","","","","","","","",""
"","ITI","","html-keyboard-response","339","519188","0.0-1.0-468.0","0","0","23103","","null","","","null","51","","","","","","","","","","","","","","","NaN",""
"","S1","","html-keyboard-response","340","519442","0.0-1.0-470.0","0","0","23103","","null","","","null","52","","","","","","","","","","","","","","","",""
"","ISI","","html-keyboard-response","341","520444","0.0-1.0-471.0","0","0","23103","","null","","","null","52","NaN","","","","","","","","","","","","","","",""
"","S2","","html-keyboard-response","342","520697","0.0-1.0-472.0","0","0","23103","","null","","","null","52","","NaN","","","","","","","","","","","","","",""
"","response","","html-keyboard-response","343","520963","0.0-1.0-473.0-0.0","0","0","23103","","263","","","75","52","","","2","52","training","adjacent","FG","6","7","P.jpg","N.jpg","1","1","1","",""
"","feedback","","html-keyboard-response","344","521965","0.0-1.0-474.0-0.0","0","0","23103","","null","","","null","52","","","","","","","","","","","","","","","",""
"","ITI","","html-keyboard-response","345","522967","0.0-1.0-477.0","0","0","23103","","null","","","null","52","","","","","","","","","","","","","","","NaN",""
"","S1","","html-keyboard-response","346","523220","0.0-1.0-479.0","0","0","23103","","null","","","null","53","","","","","","","","","","","","","","","",""
"","ISI","","html-keyboard-response","347","524223","0.0-1.0-480.0","0","0","23103","","null","","","null","53","NaN","","","","","","","","","","","","","","",""
"","S2","","html-keyboard-response","348","524477","0.0-1.0-481.0","0","0","23103","","null","","","null","53","","NaN","","","","","","","","","","","","","",""
"","response","","html-keyboard-response","349","524771","0.0-1.0-482.0-0.0","0","0","23103","","291","","","75","53","","","2","53","training","adjacent","BA","2","1","M.jpg","Q.jpg","1","0","0","",""
"","feedback","","html-keyboard-response","350","525773","0.0-1.0-483.0-0.0","0","0","23103","","null","","","null","53","","","","","","","","","","","","","","","",""
"","time_out","","html-keyboard-response","351","527775","0.0-1.0-485.0-0.0","0","0","23103","","null","","","null","53","","","","","","","","","","","","","","","",""
"","ITI","","html-keyboard-response","352","528778","0.0-1.0-486.0","0","0","23103","","null","","","null","53","","","","","","","","","","","","","","","NaN",""
"","S1","","html-keyboard-response","353","529031","0.0-1.0-488.0","0","0","23103","","null","","","null","54","","","","","","","","","","","","","","","",""
"","ISI","","html-keyboard-response","354","530033","0.0-1.0-489.0","0","0","23103","","null","","","null","54","NaN","","","","","","","","","","","","","","",""
"","S2","","html-keyboard-response","355","530285","0.0-1.0-490.0","0","0","23103","","null","","","null","54","","NaN","","","","","","","","","","","","","",""
"","response","","html-keyboard-response","356","530761","0.0-1.0-491.0-0.0","0","0","23103","","474","","","75","54","","","2","54","training","adjacent","ED","5","4","O.jpg","L.jpg","1","0","0","",""
"","feedback","","html-keyboard-response","357","531763","0.0-1.0-492.0-0.0","0","0","23103","","null","","","null","54","","","","","","","","","","","","","","","",""
"","time_out","","html-keyboard-response","358","533766","0.0-1.0-494.0-0.0","0","0","23103","","null","","","null","54","","","","","","","","","","","","","","","",""
"","ITI","","html-keyboard-response","359","534769","0.0-1.0-495.0","0","0","23103","","null","","","null","54","","","","","","","","","","","","","","","NaN",""
"","S1","","html-keyboard-response","360","535022","0.0-1.0-497.0","0","0","23103","","null","","","null","55","","","","","","","","","","","","","","","",""
"","ISI","","html-keyboard-response","361","536038","0.0-1.0-498.0","0","0","23103","","null","","","null","55","NaN","","","","","","","","","","","","","","",""
"","S2","","html-keyboard-response","362","536291","0.0-1.0-499.0","0","0","23103","","null","","","null","55","","NaN","","","","","","","","","","","","","",""
"","response","","html-keyboard-response","363","536673","0.0-1.0-500.0-0.0","0","0","23103","","381","","","68","55","","","2","55","training","adjacent","BA","2","1","M.jpg","Q.jpg","0","0","1","",""
"","feedback","","html-keyboard-response","364","537676","0.0-1.0-501.0-0.0","0","0","23103","","null","","","null","55","","","","","","","","","","","","","","","",""
"","ITI","","html-keyboard-response","365","538679","0.0-1.0-504.0","0","0","23103","","null","","","null","55","","","","","","","","","","","","","","","NaN",""
"","S1","","html-keyboard-response","366","538932","0.0-1.0-506.0","0","0","23103","","null","","","null","56","","","","","","","","","","","","","","","",""
"","ISI","","html-keyboard-response","367","539935","0.0-1.0-507.0","0","0","23103","","null","","","null","56","NaN","","","","","","","","","","","","","","",""
"","S2","","html-keyboard-response","368","540187","0.0-1.0-508.0","0","0","23103","","null","","","null","56","","NaN","","","","","","","","","","","","","",""
"","response","","html-keyboard-response","369","540481","0.0-1.0-509.0-0.0","0","0","23103","","293","","","68","56","","","2","56","training","adjacent","AB","1","2","Q.jpg","M.jpg","0","1","0","",""
"","feedback","","html-keyboard-response","370","541485","0.0-1.0-510.0-0.0","0","0","23103","","null","","","null","56","","","","","","","","","","","","","","","",""
"","time_out","","html-keyboard-response","371","543487","0.0-1.0-512.0-0.0","0","0","23103","","null","","","null","56","","","","","","","","","","","","","","","",""
"","ITI","","html-keyboard-response","372","544491","0.0-1.0-513.0","0","0","23103","","null","","","null","56","","","","","","","","","","","","","","","NaN",""
"","S1","","html-keyboard-response","373","544744","0.0-1.0-515.0","0","0","23103","","null","","","null","57","","","","","","","","","","","","","","","",""
"","ISI","","html-keyboard-response","374","545748","0.0-1.0-516.0","0","0","23103","","null","","","null","57","NaN","","","","","","","","","","","","","","",""
"","S2","","html-keyboard-response","375","546003","0.0-1.0-517.0","0","0","23103","","null","","","null","57","","NaN","","","","","","","","","","","","","",""
"","response","","html-keyboard-response","376","546424","0.0-1.0-518.0-0.0","0","0","23103","","417","","","75","57","","","2","57","training","adjacent","DE","4","5","L.jpg","O.jpg","1","1","1","",""
"","feedback","","html-keyboard-response","377","547427","0.0-1.0-519.0-0.0","0","0","23103","","null","","","null","57","","","","","","","","","","","","","","","",""
"","ITI","","html-keyboard-response","378","548429","0.0-1.0-522.0","0","0","23103","","null","","","null","57","","","","","","","","","","","","","","","NaN",""
"","S1","","html-keyboard-response","379","548681","0.0-1.0-524.0","0","0","23103","","null","","","null","58","","","","","","","","","","","","","","","",""
"","ISI","","html-keyboard-response","380","549685","0.0-1.0-525.0","0","0","23103","","null","","","null","58","NaN","","","","","","","","","","","","","","",""
"","S2","","html-keyboard-response","381","549937","0.0-1.0-526.0","0","0","23103","","null","","","null","58","","NaN","","","","","","","","","","","","","",""
"","response","","html-keyboard-response","382","550313","0.0-1.0-527.0-0.0","0","0","23103","","374","","","68","58","","","2","58","training","adjacent","BA","2","1","M.jpg","Q.jpg","0","0","1","",""
"","feedback","","html-keyboard-response","383","551317","0.0-1.0-528.0-0.0","0","0","23103","","null","","","null","58","","","","","","","","","","","","","","","",""
"","ITI","","html-keyboard-response","384","552319","0.0-1.0-531.0","0","0","23103","","null","","","null","58","","","","","","","","","","","","","","","NaN",""
"","S1","","html-keyboard-response","385","552571","0.0-1.0-533.0","0","0","23103","","null","","","null","59","","","","","","","","","","","","","","","",""
"","ISI","","html-keyboard-response","386","553574","0.0-1.0-534.0","0","0","23103","","null","","","null","59","NaN","","","","","","","","","","","","","","",""
"","S2","","html-keyboard-response","387","553827","0.0-1.0-535.0","0","0","23103","","null","","","null","59","","NaN","","","","","","","","","","","","","",""
"","response","","html-keyboard-response","388","554441","0.0-1.0-536.0-0.0","0","0","23103","","613","","","75","59","","","2","59","training","adjacent","BC","2","3","M.jpg","R.jpg","1","1","1","",""
"","feedback","","html-keyboard-response","389","555443","0.0-1.0-537.0-0.0","0","0","23103","","null","","","null","59","","","","","","","","","","","","","","","",""
"","ITI","","html-keyboard-response","390","556448","0.0-1.0-540.0","0","0","23103","","null","","","null","59","","","","","","","","","","","","","","","NaN",""
"","S1","","html-keyboard-response","391","556702","0.0-1.0-542.0","0","0","23103","","null","","","null","60","","","","","","","","","","","","","","","",""
"","ISI","","html-keyboard-response","392","557705","0.0-1.0-543.0","0","0","23103","","null","","","null","60","NaN","","","","","","","","","","","","","","",""
"","S2","","html-keyboard-response","393","557958","0.0-1.0-544.0","0","0","23103","","null","","","null","60","","NaN","","","","","","","","","","","","","",""
"","response","","html-keyboard-response","394","558474","0.0-1.0-545.0-0.0","0","0","23103","","513","","","68","60","","","2","60","training","adjacent","FG","6","7","P.jpg","N.jpg","0","1","0","",""
"","feedback","","html-keyboard-response","395","559477","0.0-1.0-546.0-0.0","0","0","23103","","null","","","null","60","","","","","","","","","","","","","","","",""
"","time_out","","html-keyboard-response","396","561480","0.0-1.0-548.0-0.0","0","0","23103","","null","","","null","60","","","","","","","","","","","","","","","",""
"","ITI","","html-keyboard-response","397","562482","0.0-1.0-549.0","0","0","23103","","null","","","null","60","","","","","","","","","","","","","","","NaN",""
"","S1","","html-keyboard-response","398","562748","0.0-1.0-551.0","0","0","23103","","null","","","null","61","","","","","","","","","","","","","","","",""
"","ISI","","html-keyboard-response","399","563750","0.0-1.0-552.0","0","0","23103","","null","","","null","61","NaN","","","","","","","","","","","","","","",""
"","S2","","html-keyboard-response","400","564003","0.0-1.0-553.0","0","0","23103","","null","","","null","61","","NaN","","","","","","","","","","","","","",""
"","response","","html-keyboard-response","401","564497","0.0-1.0-554.0-0.0","0","0","23103","","492","","","75","61","","","2","61","training","adjacent","FG","6","7","P.jpg","N.jpg","1","1","1","",""
"","feedback","","html-keyboard-response","402","565500","0.0-1.0-555.0-0.0","0","0","23103","","null","","","null","61","","","","","","","","","","","","","","","",""
"","ITI","","html-keyboard-response","403","566503","0.0-1.0-558.0","0","0","23103","","null","","","null","61","","","","","","","","","","","","","","","NaN",""
"","S1","","html-keyboard-response","404","566756","0.0-1.0-560.0","0","0","23103","","null","","","null","62","","","","","","","","","","","","","","","",""
"","ISI","","html-keyboard-response","405","567758","0.0-1.0-561.0","0","0","23103","","null","","","null","62","NaN","","","","","","","","","","","","","","",""
"","S2","","html-keyboard-response","406","568011","0.0-1.0-562.0","0","0","23103","","null","","","null","62","","NaN","","","","","","","","","","","","","",""
"","response","","html-keyboard-response","407","568497","0.0-1.0-563.0-0.0","0","0","23103","","485","","","68","62","","","2","62","training","adjacent","CD","3","4","R.jpg","L.jpg","0","1","0","",""
"","feedback","","html-keyboard-response","408","569499","0.0-1.0-564.0-0.0","0","0","23103","","null","","","null","62","","","","","","","","","","","","","","","",""
"","time_out","","html-keyboard-response","409","571502","0.0-1.0-566.0-0.0","0","0","23103","","null","","","null","62","","","","","","","","","","","","","","","",""
"","ITI","","html-keyboard-response","410","572504","0.0-1.0-567.0","0","0","23103","","null","","","null","62","","","","","","","","","","","","","","","NaN",""
"","S1","","html-keyboard-response","411","572757","0.0-1.0-569.0","0","0","23103","","null","","","null","63","","","","","","","","","","","","","","","",""
"","ISI","","html-keyboard-response","412","573759","0.0-1.0-570.0","0","0","23103","","null","","","null","63","NaN","","","","","","","","","","","","","","",""
"","S2","","html-keyboard-response","413","574012","0.0-1.0-571.0","0","0","23103","","null","","","null","63","","NaN","","","","","","","","","","","","","",""
"","response","","html-keyboard-response","414","574393","0.0-1.0-572.0-0.0","0","0","23103","","380","","","75","63","","","2","63","training","adjacent","BC","2","3","M.jpg","R.jpg","1","1","1","",""
"","feedback","","html-keyboard-response","415","575397","0.0-1.0-573.0-0.0","0","0","23103","","null","","","null","63","","","","","","","","","","","","","","","",""
"","ITI","","html-keyboard-response","416","576402","0.0-1.0-576.0","0","0","23103","","null","","","null","63","","","","","","","","","","","","","","","NaN",""
"","S1","","html-keyboard-response","417","576655","0.0-1.0-578.0","0","0","23103","","null","","","null","64","","","","","","","","","","","","","","","",""
"","ISI","","html-keyboard-response","418","577658","0.0-1.0-579.0","0","0","23103","","null","","","null","64","NaN","","","","","","","","","","","","","","",""
"","S2","","html-keyboard-response","419","577912","0.0-1.0-580.0","0","0","23103","","null","","","null","64","","NaN","","","","","","","","","","","","","",""
"","response","","html-keyboard-response","420","578371","0.0-1.0-581.0-0.0","0","0","23103","","457","","","75","64","","","2","64","training","adjacent","CB","3","2","R.jpg","M.jpg","1","0","0","",""
"","feedback","","html-keyboard-response","421","579373","0.0-1.0-582.0-0.0","0","0","23103","","null","","","null","64","","","","","","","","","","","","","","","",""
"","time_out","","html-keyboard-response","422","581376","0.0-1.0-584.0-0.0","0","0","23103","","null","","","null","64","","","","","","","","","","","","","","","",""
"","ITI","","html-keyboard-response","423","582378","0.0-1.0-585.0","0","0","23103","","null","","","null","64","","","","","","","","","","","","","","","NaN",""
"","S1","","html-keyboard-response","424","582631","0.0-1.0-587.0","0","0","23103","","null","","","null","65","","","","","","","","","","","","","","","",""
"","ISI","","html-keyboard-response","425","583634","0.0-1.0-588.0","0","0","23103","","null","","","null","65","NaN","","","","","","","","","","","","","","",""
"","S2","","html-keyboard-response","426","583887","0.0-1.0-589.0","0","0","23103","","null","","","null","65","","NaN","","","","","","","","","","","","","",""
"","response","","html-keyboard-response","427","584313","0.0-1.0-590.0-0.0","0","0","23103","","425","","","75","65","","","2","65","training","adjacent","AB","1","2","Q.jpg","M.jpg","1","1","1","",""
"","feedback","","html-keyboard-response","428","585316","0.0-1.0-591.0-0.0","0","0","23103","","null","","","null","65","","","","","","","","","","","","","","","",""
"","ITI","","html-keyboard-response","429","586318","0.0-1.0-594.0","0","0","23103","","null","","","null","65","","","","","","","","","","","","","","","NaN",""
"","S1","","html-keyboard-response","430","586570","0.0-1.0-596.0","0","0","23103","","null","","","null","66","","","","","","","","","","","","","","","",""
"","ISI","","html-keyboard-response","431","587573","0.0-1.0-597.0","0","0","23103","","null","","","null","66","NaN","","","","","","","","","","","","","","",""
"","S2","","html-keyboard-response","432","587826","0.0-1.0-598.0","0","0","23103","","null","","","null","66","","NaN","","","","","","","","","","","","","",""
"","response","","html-keyboard-response","433","588297","0.0-1.0-599.0-0.0","0","0","23103","","470","","","75","66","","","2","66","training","adjacent","DC","4","3","L.jpg","R.jpg","1","0","0","",""
"","feedback","","html-keyboard-response","434","589301","0.0-1.0-600.0-0.0","0","0","23103","","null","","","null","66","","","","","","","","","","","","","","","",""
"","time_out","","html-keyboard-response","435","591304","0.0-1.0-602.0-0.0","0","0","23103","","null","","","null","66","","","","","","","","","","","","","","","",""
"","ITI","","html-keyboard-response","436","592307","0.0-1.0-603.0","0","0","23103","","null","","","null","66","","","","","","","","","","","","","","","NaN",""
"","S1","","html-keyboard-response","437","592559","0.0-1.0-605.0","0","0","23103","","null","","","null","67","","","","","","","","","","","","","","","",""
"","ISI","","html-keyboard-response","438","593562","0.0-1.0-606.0","0","0","23103","","null","","","null","67","NaN","","","","","","","","","","","","","","",""
"","S2","","html-keyboard-response","439","593815","0.0-1.0-607.0","0","0","23103","","null","","","null","67","","NaN","","","","","","","","","","","","","",""
"","response","","html-keyboard-response","440","594162","0.0-1.0-608.0-0.0","0","0","23103","","346","","","68","67","","","2","67","training","adjacent","FE","6","5","P.jpg","O.jpg","0","0","1","",""
"","feedback","","html-keyboard-response","441","595165","0.0-1.0-609.0-0.0","0","0","23103","","null","","","null","67","","","","","","","","","","","","","","","",""
"","ITI","","html-keyboard-response","442","596169","0.0-1.0-612.0","0","0","23103","","null","","","null","67","","","","","","","","","","","","","","","NaN",""
"","S1","","html-keyboard-response","443","596422","0.0-1.0-614.0","0","0","23103","","null","","","null","68","","","","","","","","","","","","","","","",""
"","ISI","","html-keyboard-response","444","597424","0.0-1.0-615.0","0","0","23103","","null","","","null","68","NaN","","","","","","","","","","","","","","",""
"","S2","","html-keyboard-response","445","597676","0.0-1.0-616.0","0","0","23103","","null","","","null","68","","NaN","","","","","","","","","","","","","",""
"","response","","html-keyboard-response","446","598018","0.0-1.0-617.0-0.0","0","0","23103","","340","","","75","68","","","2","68","training","adjacent","GF","7","6","N.jpg","P.jpg","1","0","0","",""
"","feedback","","html-keyboard-response","447","599021","0.0-1.0-618.0-0.0","0","0","23103","","null","","","null","68","","","","","","","","","","","","","","","",""
"","time_out","","html-keyboard-response","448","601023","0.0-1.0-620.0-0.0","0","0","23103","","null","","","null","68","","","","","","","","","","","","","","","",""
"","ITI","","html-keyboard-response","449","602026","0.0-1.0-621.0","0","0","23103","","null","","","null","68","","","","","","","","","","","","","","","NaN",""
"","S1","","html-keyboard-response","450","602279","0.0-1.0-623.0","0","0","23103","","null","","","null","69","","","","","","","","","","","","","","","",""
"","ISI","","html-keyboard-response","451","603281","0.0-1.0-624.0","0","0","23103","","null","","","null","69","NaN","","","","","","","","","","","","","","",""
"","S2","","html-keyboard-response","452","603533","0.0-1.0-625.0","0","0","23103","","null","","","null","69","","NaN","","","","","","","","","","","","","",""
"","response","","html-keyboard-response","453","603865","0.0-1.0-626.0-0.0","0","0","23103","","331","","","75","69","","","2","69","training","adjacent","FE","6","5","P.jpg","O.jpg","1","0","0","",""
"","feedback","","html-keyboard-response","454","604868","0.0-1.0-627.0-0.0","0","0","23103","","null","","","null","69","","","","","","","","","","","","","","","",""
"","time_out","","html-keyboard-response","455","606870","0.0-1.0-629.0-0.0","0","0","23103","","null","","","null","69","","","","","","","","","","","","","","","",""
"","ITI","","html-keyboard-response","456","607873","0.0-1.0-630.0","0","0","23103","","null","","","null","69","","","","","","","","","","","","","","","NaN",""
"","S1","","html-keyboard-response","457","608140","0.0-1.0-632.0","0","0","23103","","null","","","null","70","","","","","","","","","","","","","","","",""
"","ISI","","html-keyboard-response","458","609143","0.0-1.0-633.0","0","0","23103","","null","","","null","70","NaN","","","","","","","","","","","","","","",""
"","S2","","html-keyboard-response","459","609403","0.0-1.0-634.0","0","0","23103","","null","","","null","70","","NaN","","","","","","","","","","","","","",""
"","response","","html-keyboard-response","460","609851","0.0-1.0-635.0-0.0","0","0","23103","","446","","","68","70","","","2","70","training","adjacent","FE","6","5","P.jpg","O.jpg","0","0","1","",""
"","feedback","","html-keyboard-response","461","610855","0.0-1.0-636.0-0.0","0","0","23103","","null","","","null","70","","","","","","","","","","","","","","","",""
"","ITI","","html-keyboard-response","462","611858","0.0-1.0-639.0","0","0","23103","","null","","","null","70","","","","","","","","","","","","","","","NaN",""
"","S1","","html-keyboard-response","463","612111","0.0-1.0-641.0","0","0","23103","","null","","","null","71","","","","","","","","","","","","","","","",""
"","ISI","","html-keyboard-response","464","613114","0.0-1.0-642.0","0","0","23103","","null","","","null","71","NaN","","","","","","","","","","","","","","",""
"","S2","","html-keyboard-response","465","613367","0.0-1.0-643.0","0","0","23103","","null","","","null","71","","NaN","","","","","","","","","","","","","",""
"","response","","html-keyboard-response","466","613691","0.0-1.0-644.0-0.0","0","0","23103","","322","","","75","71","","","2","71","training","adjacent","DE","4","5","L.jpg","O.jpg","1","1","1","",""
"","feedback","","html-keyboard-response","467","614694","0.0-1.0-645.0-0.0","0","0","23103","","null","","","null","71","","","","","","","","","","","","","","","",""
"","ITI","","html-keyboard-response","468","615697","0.0-1.0-648.0","0","0","23103","","null","","","null","71","","","","","","","","","","","","","","","NaN",""
"","S1","","html-keyboard-response","469","615950","0.0-1.0-650.0","0","0","23103","","null","","","null","72","","","","","","","","","","","","","","","",""
"","ISI","","html-keyboard-response","470","616952","0.0-1.0-651.0","0","0","23103","","null","","","null","72","NaN","","","","","","","","","","","","","","",""
"","S2","","html-keyboard-response","471","617205","0.0-1.0-652.0","0","0","23103","","null","","","null","72","","NaN","","","","","","","","","","","","","",""
"","response","","html-keyboard-response","472","617562","0.0-1.0-653.0-0.0","0","0","23103","","355","","","68","72","","","2","72","training","adjacent","GF","7","6","N.jpg","P.jpg","0","0","1","",""
"","feedback","","html-keyboard-response","473","618564","0.0-1.0-654.0-0.0","0","0","23103","","null","","","null","72","","","","","","","","","","","","","","","",""
"","ITI","","html-keyboard-response","474","619566","0.0-1.0-657.0","0","0","23103","","null","","","null","72","","","","","","","","","","","","","","","NaN",""
"","S1","","html-keyboard-response","475","619819","0.0-1.0-659.0","0","0","23103","","null","","","null","73","","","","","","","","","","","","","","","",""
"","ISI","","html-keyboard-response","476","620822","0.0-1.0-660.0","0","0","23103","","null","","","null","73","NaN","","","","","","","","","","","","","","",""
"","S2","","html-keyboard-response","477","621075","0.0-1.0-661.0","0","0","23103","","null","","","null","73","","NaN","","","","","","","","","","","","","",""
"","response","","html-keyboard-response","478","621521","0.0-1.0-662.0-0.0","0","0","23103","","445","","","75","73","","","2","73","training","adjacent","BA","2","1","M.jpg","Q.jpg","1","0","0","",""
"","feedback","","html-keyboard-response","479","622524","0.0-1.0-663.0-0.0","0","0","23103","","null","","","null","73","","","","","","","","","","","","","","","",""
"","time_out","","html-keyboard-response","480","624527","0.0-1.0-665.0-0.0","0","0","23103","","null","","","null","73","","","","","","","","","","","","","","","",""
"","ITI","","html-keyboard-response","481","625529","0.0-1.0-666.0","0","0","23103","","null","","","null","73","","","","","","","","","","","","","","","NaN",""
"","S1","","html-keyboard-response","482","625782","0.0-1.0-668.0","0","0","23103","","null","","","null","74","","","","","","","","","","","","","","","",""
"","ISI","","html-keyboard-response","483","626785","0.0-1.0-669.0","0","0","23103","","null","","","null","74","NaN","","","","","","","","","","","","","","",""
"","S2","","html-keyboard-response","484","627038","0.0-1.0-670.0","0","0","23103","","null","","","null","74","","NaN","","","","","","","","","","","","","",""
"","response","","html-keyboard-response","485","627410","0.0-1.0-671.0-0.0","0","0","23103","","370","","","75","74","","","2","74","training","adjacent","ED","5","4","O.jpg","L.jpg","1","0","0","",""
"","feedback","","html-keyboard-response","486","628413","0.0-1.0-672.0-0.0","0","0","23103","","null","","","null","74","","","","","","","","","","","","","","","",""
"","time_out","","html-keyboard-response","487","630416","0.0-1.0-674.0-0.0","0","0","23103","","null","","","null","74","","","","","","","","","","","","","","","",""
"","ITI","","html-keyboard-response","488","631418","0.0-1.0-675.0","0","0","23103","","null","","","null","74","","","","","","","","","","","","","","","NaN",""
"","S1","","html-keyboard-response","489","631672","0.0-1.0-677.0","0","0","23103","","null","","","null","75","","","","","","","","","","","","","","","",""
"","ISI","","html-keyboard-response","490","632674","0.0-1.0-678.0","0","0","23103","","null","","","null","75","NaN","","","","","","","","","","","","","","",""
"","S2","","html-keyboard-response","491","632928","0.0-1.0-679.0","0","0","23103","","null","","","null","75","","NaN","","","","","","","","","","","","","",""
"","response","","html-keyboard-response","492","633225","0.0-1.0-680.0-0.0","0","0","23103","","296","","","68","75","","","2","75","training","adjacent","ED","5","4","O.jpg","L.jpg","0","0","1","",""
"","feedback","","html-keyboard-response","493","634230","0.0-1.0-681.0-0.0","0","0","23103","","null","","","null","75","","","","","","","","","","","","","","","",""
"","ITI","","html-keyboard-response","494","635233","0.0-1.0-684.0","0","0","23103","","null","","","null","75","","","","","","","","","","","","","","","NaN",""
"","S1","","html-keyboard-response","495","635486","0.0-1.0-686.0","0","0","23103","","null","","","null","76","","","","","","","","","","","","","","","",""
"","ISI","","html-keyboard-response","496","636489","0.0-1.0-687.0","0","0","23103","","null","","","null","76","NaN","","","","","","","","","","","","","","",""
"","S2","","html-keyboard-response","497","636742","0.0-1.0-688.0","0","0","23103","","null","","","null","76","","NaN","","","","","","","","","","","","","",""
"","response","","html-keyboard-response","498","637055","0.0-1.0-689.0-0.0","0","0","23103","","311","","","68","76","","","2","76","training","adjacent","CD","3","4","R.jpg","L.jpg","0","1","0","",""
"","feedback","","html-keyboard-response","499","638061","0.0-1.0-690.0-0.0","0","0","23103","","null","","","null","76","","","","","","","","","","","","","","","",""
"","time_out","","html-keyboard-response","500","640064","0.0-1.0-692.0-0.0","0","0","23103","","null","","","null","76","","","","","","","","","","","","","","","",""
"","ITI","","html-keyboard-response","501","641066","0.0-1.0-693.0","0","0","23103","","null","","","null","76","","","","","","","","","","","","","","","NaN",""
"","S1","","html-keyboard-response","502","641320","0.0-1.0-695.0","0","0","23103","","null","","","null","77","","","","","","","","","","","","","","","",""
"","ISI","","html-keyboard-response","503","642322","0.0-1.0-696.0","0","0","23103","","null","","","null","77","NaN","","","","","","","","","","","","","","",""
"","S2","","html-keyboard-response","504","642576","0.0-1.0-697.0","0","0","23103","","null","","","null","77","","NaN","","","","","","","","","","","","","",""
"","response","","html-keyboard-response","505","642901","0.0-1.0-698.0-0.0","0","0","23103","","322","","","75","77","","","2","77","training","adjacent","GF","7","6","N.jpg","P.jpg","1","0","0","",""
"","feedback","","html-keyboard-response","506","643905","0.0-1.0-699.0-0.0","0","0","23103","","null","","","null","77","","","","","","","","","","","","","","","",""
"","time_out","","html-keyboard-response","507","645907","0.0-1.0-701.0-0.0","0","0","23103","","null","","","null","77","","","","","","","","","","","","","","","",""
"","ITI","","html-keyboard-response","508","646909","0.0-1.0-702.0","0","0","23103","","null","","","null","77","","","","","","","","","","","","","","","NaN",""
"","S1","","html-keyboard-response","509","647161","0.0-1.0-704.0","0","0","23103","","null","","","null","78","","","","","","","","","","","","","","","",""
"","ISI","","html-keyboard-response","510","648164","0.0-1.0-705.0","0","0","23103","","null","","","null","78","NaN","","","","","","","","","","","","","","",""
"","S2","","html-keyboard-response","511","648417","0.0-1.0-706.0","0","0","23103","","null","","","null","78","","NaN","","","","","","","","","","","","","",""
"","response","","html-keyboard-response","512","648778","0.0-1.0-707.0-0.0","0","0","23103","","360","","","75","78","","","2","78","training","adjacent","DE","4","5","L.jpg","O.jpg","1","1","1","",""
"","feedback","","html-keyboard-response","513","649782","0.0-1.0-708.0-0.0","0","0","23103","","null","","","null","78","","","","","","","","","","","","","","","",""
"","ITI","","html-keyboard-response","514","650785","0.0-1.0-711.0","0","0","23103","","null","","","null","78","","","","","","","","","","","","","","","NaN",""
"","S1","","html-keyboard-response","515","651036","0.0-1.0-713.0","0","0","23103","","null","","","null","79","","","","","","","","","","","","","","","",""
"","ISI","","html-keyboard-response","516","652038","0.0-1.0-714.0","0","0","23103","","null","","","null","79","NaN","","","","","","","","","","","","","","",""
"","S2","","html-keyboard-response","517","652291","0.0-1.0-715.0","0","0","23103","","null","","","null","79","","NaN","","","","","","","","","","","","","",""
"","response","","html-keyboard-response","518","652770","0.0-1.0-716.0-0.0","0","0","23103","","477","","","75","79","","","2","79","training","adjacent","EF","5","6","O.jpg","P.jpg","1","1","1","",""
"","feedback","","html-keyboard-response","519","653773","0.0-1.0-717.0-0.0","0","0","23103","","null","","","null","79","","","","","","","","","","","","","","","",""
"","ITI","","html-keyboard-response","520","654775","0.0-1.0-720.0","0","0","23103","","null","","","null","79","","","","","","","","","","","","","","","NaN",""
"","S1","","html-keyboard-response","521","655028","0.0-1.0-722.0","0","0","23103","","null","","","null","80","","","","","","","","","","","","","","","",""
"","ISI","","html-keyboard-response","522","656031","0.0-1.0-723.0","0","0","23103","","null","","","null","80","NaN","","","","","","","","","","","","","","",""
"","S2","","html-keyboard-response","523","656284","0.0-1.0-724.0","0","0","23103","","null","","","null","80","","NaN","","","","","","","","","","","","","",""
"","response","","html-keyboard-response","524","656747","0.0-1.0-725.0-0.0","0","0","23103","","461","","","75","80","","","2","80","training","adjacent","BC","2","3","M.jpg","R.jpg","1","1","1","",""
"","feedback","","html-keyboard-response","525","657751","0.0-1.0-726.0-0.0","0","0","23103","","null","","","null","80","","","","","","","","","","","","","","","",""
"","ITI","","html-keyboard-response","526","658754","0.0-1.0-729.0","0","0","23103","","null","","","null","80","","","","","","","","","","","","","","","NaN",""
"","S1","","html-keyboard-response","527","659006","0.0-1.0-731.0","0","0","23103","","null","","","null","81","","","","","","","","","","","","","","","",""
"","ISI","","html-keyboard-response","528","660009","0.0-1.0-732.0","0","0","23103","","null","","","null","81","NaN","","","","","","","","","","","","","","",""
"","S2","","html-keyboard-response","529","660262","0.0-1.0-733.0","0","0","23103","","null","","","null","81","","NaN","","","","","","","","","","","","","",""
"","response","","html-keyboard-response","530","660754","0.0-1.0-734.0-0.0","0","0","23103","","491","","","75","81","","","2","81","training","adjacent","BC","2","3","M.jpg","R.jpg","1","1","1","",""
"","feedback","","html-keyboard-response","531","661756","0.0-1.0-735.0-0.0","0","0","23103","","null","","","null","81","","","","","","","","","","","","","","","",""
"","ITI","","html-keyboard-response","532","662759","0.0-1.0-738.0","0","0","23103","","null","","","null","81","","","","","","","","","","","","","","","NaN",""
"","S1","","html-keyboard-response","533","663012","0.0-1.0-740.0","0","0","23103","","null","","","null","82","","","","","","","","","","","","","","","",""
"","ISI","","html-keyboard-response","534","664015","0.0-1.0-741.0","0","0","23103","","null","","","null","82","NaN","","","","","","","","","","","","","","",""
"","S2","","html-keyboard-response","535","664268","0.0-1.0-742.0","0","0","23103","","null","","","null","82","","NaN","","","","","","","","","","","","","",""
"","response","","html-keyboard-response","536","664690","0.0-1.0-743.0-0.0","0","0","23103","","420","","","75","82","","","2","82","training","adjacent","DC","4","3","L.jpg","R.jpg","1","0","0","",""
"","feedback","","html-keyboard-response","537","665692","0.0-1.0-744.0-0.0","0","0","23103","","null","","","null","82","","","","","","","","","","","","","","","",""
"","time_out","","html-keyboard-response","538","667694","0.0-1.0-746.0-0.0","0","0","23103","","null","","","null","82","","","","","","","","","","","","","","","",""
"","ITI","","html-keyboard-response","539","668696","0.0-1.0-747.0","0","0","23103","","null","","","null","82","","","","","","","","","","","","","","","NaN",""
"","S1","","html-keyboard-response","540","668950","0.0-1.0-749.0","0","0","23103","","null","","","null","83","","","","","","","","","","","","","","","",""
"","ISI","","html-keyboard-response","541","669952","0.0-1.0-750.0","0","0","23103","","null","","","null","83","NaN","","","","","","","","","","","","","","",""
"","S2","","html-keyboard-response","542","670208","0.0-1.0-751.0","0","0","23103","","null","","","null","83","","NaN","","","","","","","","","","","","","",""
"","response","","html-keyboard-response","543","670529","0.0-1.0-752.0-0.0","0","0","23103","","319","","","68","83","","","2","83","training","adjacent","EF","5","6","O.jpg","P.jpg","0","1","0","",""
"","feedback","","html-keyboard-response","544","671532","0.0-1.0-753.0-0.0","0","0","23103","","null","","","null","83","","","","","","","","","","","","","","","",""
"","time_out","","html-keyboard-response","545","673534","0.0-1.0-755.0-0.0","0","0","23103","","null","","","null","83","","","","","","","","","","","","","","","",""
"","ITI","","html-keyboard-response","546","674537","0.0-1.0-756.0","0","0","23103","","null","","","null","83","","","","","","","","","","","","","","","NaN",""
"","S1","","html-keyboard-response","547","674791","0.0-1.0-758.0","0","0","23103","","null","","","null","84","","","","","","","","","","","","","","","",""
"","ISI","","html-keyboard-response","548","675793","0.0-1.0-759.0","0","0","23103","","null","","","null","84","NaN","","","","","","","","","","","","","","",""
"","S2","","html-keyboard-response","549","676047","0.0-1.0-760.0","0","0","23103","","null","","","null","84","","NaN","","","","","","","","","","","","","",""
"","response","","html-keyboard-response","550","676435","0.0-1.0-761.0-0.0","0","0","23103","","385","","","68","84","","","2","84","training","adjacent","DC","4","3","L.jpg","R.jpg","0","0","1","",""
"","feedback","","html-keyboard-response","551","677438","0.0-1.0-762.0-0.0","0","0","23103","","null","","","null","84","","","","","","","","","","","","","","","",""
"","ITI","","html-keyboard-response","552","678441","0.0-1.0-765.0","0","0","23103","","null","","","null","84","","","","","","","","","","","","","","","NaN",""
"","S1","","html-keyboard-response","553","678695","0.0-1.0-767.0","0","0","23103","","null","","","null","85","","","","","","","","","","","","","","","",""
"","ISI","","html-keyboard-response","554","679697","0.0-1.0-768.0","0","0","23103","","null","","","null","85","NaN","","","","","","","","","","","","","","",""
"","S2","","html-keyboard-response","555","679950","0.0-1.0-769.0","0","0","23103","","null","","","null","85","","NaN","","","","","","","","","","","","","",""
"","response","","html-keyboard-response","556","680313","0.0-1.0-770.0-0.0","0","0","23103","","362","","","68","85","","","2","85","training","adjacent","GF","7","6","N.jpg","P.jpg","0","0","1","",""
"","feedback","","html-keyboard-response","557","681317","0.0-1.0-771.0-0.0","0","0","23103","","null","","","null","85","","","","","","","","","","","","","","","",""
"","ITI","","html-keyboard-response","558","682320","0.0-1.0-774.0","0","0","23103","","null","","","null","85","","","","","","","","","","","","","","","NaN",""
"","S1","","html-keyboard-response","559","682576","0.0-1.0-776.0","0","0","23103","","null","","","null","86","","","","","","","","","","","","","","","",""
"","ISI","","html-keyboard-response","560","683579","0.0-1.0-777.0","0","0","23103","","null","","","null","86","NaN","","","","","","","","","","","","","","",""
"","S2","","html-keyboard-response","561","683831","0.0-1.0-778.0","0","0","23103","","null","","","null","86","","NaN","","","","","","","","","","","","","",""
"","response","","html-keyboard-response","562","684074","0.0-1.0-779.0-0.0","0","0","23103","","242","","","68","86","","","2","86","training","adjacent","FE","6","5","P.jpg","O.jpg","0","0","1","",""
"","feedback","","html-keyboard-response","563","685076","0.0-1.0-780.0-0.0","0","0","23103","","null","","","null","86","","","","","","","","","","","","","","","",""
"","ITI","","html-keyboard-response","564","686079","0.0-1.0-783.0","0","0","23103","","null","","","null","86","","","","","","","","","","","","","","","NaN",""
"","S1","","html-keyboard-response","565","686332","0.0-1.0-785.0","0","0","23103","","null","","","null","87","","","","","","","","","","","","","","","",""
"","ISI","","html-keyboard-response","566","687335","0.0-1.0-786.0","0","0","23103","","null","","","null","87","NaN","","","","","","","","","","","","","","",""
"","S2","","html-keyboard-response","567","687589","0.0-1.0-787.0","0","0","23103","","null","","","null","87","","NaN","","","","","","","","","","","","","",""
"","response","","html-keyboard-response","568","687874","0.0-1.0-788.0-0.0","0","0","23103","","282","","","68","87","","","2","87","training","adjacent","FG","6","7","P.jpg","N.jpg","0","1","0","",""
"","feedback","","html-keyboard-response","569","688877","0.0-1.0-789.0-0.0","0","0","23103","","null","","","null","87","","","","","","","","","","","","","","","",""
"","time_out","","html-keyboard-response","570","690879","0.0-1.0-791.0-0.0","0","0","23103","","null","","","null","87","","","","","","","","","","","","","","","",""
"","ITI","","html-keyboard-response","571","691881","0.0-1.0-792.0","0","0","23103","","null","","","null","87","","","","","","","","","","","","","","","NaN",""
"","S1","","html-keyboard-response","572","692134","0.0-1.0-794.0","0","0","23103","","null","","","null","88","","","","","","","","","","","","","","","",""
"","ISI","","html-keyboard-response","573","693137","0.0-1.0-795.0","0","0","23103","","null","","","null","88","NaN","","","","","","","","","","","","","","",""
"","S2","","html-keyboard-response","574","693389","0.0-1.0-796.0","0","0","23103","","null","","","null","88","","NaN","","","","","","","","","","","","","",""
"","response","","html-keyboard-response","575","693777","0.0-1.0-797.0-0.0","0","0","23103","","386","","","75","88","","","2","88","training","adjacent","AB","1","2","Q.jpg","M.jpg","1","1","1","",""
"","feedback","","html-keyboard-response","576","694781","0.0-1.0-798.0-0.0","0","0","23103","","null","","","null","88","","","","","","","","","","","","","","","",""
"","ITI","","html-keyboard-response","577","695783","0.0-1.0-801.0","0","0","23103","","null","","","null","88","","","","","","","","","","","","","","","NaN",""
"","S1","","html-keyboard-response","578","696036","0.0-1.0-803.0","0","0","23103","","null","","","null","89","","","","","","","","","","","","","","","",""
"","ISI","","html-keyboard-response","579","697038","0.0-1.0-804.0","0","0","23103","","null","","","null","89","NaN","","","","","","","","","","","","","","",""
"","S2","","html-keyboard-response","580","697291","0.0-1.0-805.0","0","0","23103","","null","","","null","89","","NaN","","","","","","","","","","","","","",""
"","response","","html-keyboard-response","581","697721","0.0-1.0-806.0-0.0","0","0","23103","","429","","","68","89","","","2","89","training","adjacent","CD","3","4","R.jpg","L.jpg","0","1","0","",""
"","feedback","","html-keyboard-response","582","698725","0.0-1.0-807.0-0.0","0","0","23103","","null","","","null","89","","","","","","","","","","","","","","","",""
