"success","ttype","start_time","trial_type","trial_index","time_elapsed","internal_node_id","warning","missed_checkup","PID","view_history","rt","responses","repeat_instructions","key_press","index","keypress_isi","keypress_S2","block","trial_num","phase","group_type","pair_type","S1_stim","S2_stim","S1_img","S2_img","S1_chosen","S1_higher","accuracy","keypress_iti","total_bonus_tally"
"true","full_screen","d03082023hr1518","fullscreen","0","37862","0.0-0.0","0","0","71312","","","","","","","","","","","","","","","","","","","","","",""
"","instructions","","instructions","1","97774","0.0-1.0-0.0-0.0","0","0","71312","[{""page_index"":0,""viewing_time"":10052},{""page_index"":1,""viewing_time"":28962},{""page_index"":2,""viewing_time"":17870},{""page_index"":3,""viewing_time"":3026}]","59910","","","","","","","","","","","","","","","","","","","",""
"","comprehension_check","","survey-multi-choice","2","128542","0.0-1.0-0.0-1.0","0","0","71312","","30765","{""Q0"":""True"",""Q1"":""D"",""Q2"":""Once the second image appears and while the screen 'MAKE A CHOICE' is shown"",""Q3"":""Green mark"",""Q4"":""either D or K""}","0","","","","","","","","","","","","","","","","","",""
"","start_exp","","html-keyboard-response","3","131829","0.0-1.0-1.0","0","0","71312","","3285","","","32","","","","","","","","","","","","","","","","",""
"","S1","","html-keyboard-response","4","132083","0.0-1.0-2.0","0","0","71312","","null","","","null","0","","","","","","","","","","","","","","","",""
"","ISI","","html-keyboard-response","5","132234","0.0-1.0-3.0","0","0","71312","","null","","","null","0","NaN","","","","","","","","","","","","","","",""
"","S2","","html-keyboard-response","6","132488","0.0-1.0-4.0","0","0","71312","","null","","","null","0","","NaN","","","","","","","","","","","","","",""
"","response","","html-keyboard-response","7","133286","0.0-1.0-5.0-0.0","0","0","71312","","796","","","75","0","","","1","0","training","adjacent","EF","5","6","O.jpg","R.jpg","0","1","0","",""
"","feedback","","html-keyboard-response","8","134289","0.0-1.0-6.0-0.0","0","0","71312","","null","","","null","0","","","","","","","","","","","","","","","",""
"","time_out","","html-keyboard-response","9","136292","0.0-1.0-8.0-0.0","0","0","71312","","null","","","null","0","","","","","","","","","","","","","","","",""
"","ITI","","html-keyboard-response","10","137294","0.0-1.0-9.0","0","0","71312","","null","","","null","0","","","","","","","","","","","","","","","NaN",""
"","S1","","html-keyboard-response","11","137547","0.0-1.0-11.0","0","0","71312","","null","","","null","1","","","","","","","","","","","","","","","",""
"","ISI","","html-keyboard-response","12","137699","0.0-1.0-12.0","0","0","71312","","null","","","null","1","NaN","","","","","","","","","","","","","","",""
"","S2","","html-keyboard-response","13","137952","0.0-1.0-13.0","0","0","71312","","null","","","null","1","","NaN","","","","","","","","","","","","","",""
"","response","","html-keyboard-response","14","138488","0.0-1.0-14.0-0.0","0","0","71312","","534","","","68","1","","","1","1","training","adjacent","EF","5","6","O.jpg","R.jpg","1","1","1","",""
"","feedback","","html-keyboard-response","15","139490","0.0-1.0-15.0-0.0","0","0","71312","","null","","","null","1","","","","","","","","","","","","","","","",""
"","ITI","","html-keyboard-response","16","140493","0.0-1.0-18.0","0","0","71312","","null","","","null","1","","","","","","","","","","","","","","","NaN",""
"","S1","","html-keyboard-response","17","140745","0.0-1.0-20.0","0","0","71312","","null","","","null","2","","","","","","","","","","","","","","","",""
"","ISI","","html-keyboard-response","18","140897","0.0-1.0-21.0","0","0","71312","","null","","","null","2","NaN","","","","","","","","","","","","","","",""
"","S2","","html-keyboard-response","19","141150","0.0-1.0-22.0","0","0","71312","","null","","","null","2","","NaN","","","","","","","","","","","","","",""
"","response","","html-keyboard-response","20","141838","0.0-1.0-23.0-0.0","0","0","71312","","687","","","75","2","","","1","2","training","adjacent","FE","6","5","R.jpg","O.jpg","0","0","1","",""
"","feedback","","html-keyboard-response","21","142841","0.0-1.0-24.0-0.0","0","0","71312","","null","","","null","2","","","","","","","","","","","","","","","",""
"","ITI","","html-keyboard-response","22","143844","0.0-1.0-27.0","0","0","71312","","null","","","null","2","","","","","","","","","","","","","","","NaN",""
"","S1","","html-keyboard-response","23","144096","0.0-1.0-29.0","0","0","71312","","null","","","null","3","","","","","","","","","","","","","","","",""
"","ISI","","html-keyboard-response","24","144249","0.0-1.0-30.0","0","0","71312","","null","","","null","3","NaN","","","","","","","","","","","","","","",""
"","S2","","html-keyboard-response","25","144502","0.0-1.0-31.0","0","0","71312","","null","","","null","3","","NaN","","","","","","","","","","","","","",""
"","response","","html-keyboard-response","26","145054","0.0-1.0-32.0-0.0","0","0","71312","","551","","","68","3","","","1","3","training","adjacent","CB","3","2","M.jpg","Q.jpg","1","0","0","",""
"","feedback","","html-keyboard-response","27","146056","0.0-1.0-33.0-0.0","0","0","71312","","null","","","null","3","","","","","","","","","","","","","","","",""
"","time_out","","html-keyboard-response","28","148058","0.0-1.0-35.0-0.0","0","0","71312","","null","","","null","3","","","","","","","","","","","","","","","",""
"","ITI","","html-keyboard-response","29","149061","0.0-1.0-36.0","0","0","71312","","null","","","null","3","","","","","","","","","","","","","","","NaN",""
"","S1","","html-keyboard-response","30","149313","0.0-1.0-38.0","0","0","71312","","null","","","null","4","","","","","","","","","","","","","","","",""
"","ISI","","html-keyboard-response","31","149465","0.0-1.0-39.0","0","0","71312","","null","","","null","4","NaN","","","","","","","","","","","","","","",""
"","S2","","html-keyboard-response","32","149718","0.0-1.0-40.0","0","0","71312","","null","","","null","4","","NaN","","","","","","","","","","","","","",""
"","response","","html-keyboard-response","33","150112","0.0-1.0-41.0-0.0","0","0","71312","","393","","","75","4","","","1","4","training","adjacent","BA","2","1","Q.jpg","N.jpg","0","0","1","",""
"","feedback","","html-keyboard-response","34","151114","0.0-1.0-42.0-0.0","0","0","71312","","null","","","null","4","","","","","","","","","","","","","","","",""
"","ITI","","html-keyboard-response","35","152117","0.0-1.0-45.0","0","0","71312","","null","","","null","4","","","","","","","","","","","","","","","NaN",""
"","S1","","html-keyboard-response","36","152370","0.0-1.0-47.0","0","0","71312","","null","","","null","5","","","","","","","","","","","","","","","",""
"","ISI","","html-keyboard-response","37","152523","0.0-1.0-48.0","0","0","71312","","null","","","null","5","NaN","","","","","","","","","","","","","","",""
"","S2","","html-keyboard-response","38","152776","0.0-1.0-49.0","0","0","71312","","null","","","null","5","","NaN","","","","","","","","","","","","","",""
"","response","","html-keyboard-response","39","153073","0.0-1.0-50.0-0.0","0","0","71312","","295","","","68","5","","","1","5","training","adjacent","CB","3","2","M.jpg","Q.jpg","1","0","0","",""
"","feedback","","html-keyboard-response","40","154075","0.0-1.0-51.0-0.0","0","0","71312","","null","","","null","5","","","","","","","","","","","","","","","",""
"","time_out","","html-keyboard-response","41","156078","0.0-1.0-53.0-0.0","0","0","71312","","null","","","null","5","","","","","","","","","","","","","","","",""
"","ITI","","html-keyboard-response","42","157080","0.0-1.0-54.0","0","0","71312","","null","","","null","5","","","","","","","","","","","","","","","NaN",""
"","S1","","html-keyboard-response","43","157332","0.0-1.0-56.0","0","0","71312","","null","","","null","6","","","","","","","","","","","","","","","",""
"","ISI","","html-keyboard-response","44","157484","0.0-1.0-57.0","0","0","71312","","null","","","null","6","NaN","","","","","","","","","","","","","","",""
"","S2","","html-keyboard-response","45","157736","0.0-1.0-58.0","0","0","71312","","null","","","null","6","","NaN","","","","","","","","","","","","","",""
"","response","","html-keyboard-response","46","157928","0.0-1.0-59.0-0.0","0","0","71312","","190","","","75","6","","","1","6","training","adjacent","ED","5","4","O.jpg","L.jpg","0","0","1","",""
"","feedback","","html-keyboard-response","47","158930","0.0-1.0-60.0-0.0","0","0","71312","","null","","","null","6","","","","","","","","","","","","","","","",""
"","ITI","","html-keyboard-response","48","159933","0.0-1.0-63.0","0","0","71312","","null","","","null","6","","","","","","","","","","","","","","","NaN",""
"","S1","","html-keyboard-response","49","160185","0.0-1.0-65.0","0","0","71312","","null","","","null","7","","","","","","","","","","","","","","","",""
"","ISI","","html-keyboard-response","50","160336","0.0-1.0-66.0","0","0","71312","","null","","","null","7","NaN","","","","","","","","","","","","","","",""
"","S2","","html-keyboard-response","51","160589","0.0-1.0-67.0","0","0","71312","","null","","","null","7","","NaN","","","","","","","","","","","","","",""
"","response","","html-keyboard-response","52","160858","0.0-1.0-68.0-0.0","0","0","71312","","269","","","75","7","","","1","7","training","adjacent","EF","5","6","O.jpg","R.jpg","0","1","0","",""
"","feedback","","html-keyboard-response","53","161861","0.0-1.0-69.0-0.0","0","0","71312","","null","","","null","7","","","","","","","","","","","","","","","",""
"","time_out","","html-keyboard-response","54","163863","0.0-1.0-71.0-0.0","0","0","71312","","null","","","null","7","","","","","","","","","","","","","","","",""
"","ITI","","html-keyboard-response","55","164865","0.0-1.0-72.0","0","0","71312","","null","","","null","7","","","","","","","","","","","","","","","NaN",""
"","S1","","html-keyboard-response","56","165119","0.0-1.0-74.0","0","0","71312","","null","","","null","8","","","","","","","","","","","","","","","",""
"","ISI","","html-keyboard-response","57","165272","0.0-1.0-75.0","0","0","71312","","null","","","null","8","NaN","","","","","","","","","","","","","","",""
"","S2","","html-keyboard-response","58","165524","0.0-1.0-76.0","0","0","71312","","null","","","null","8","","NaN","","","","","","","","","","","","","",""
"","response","","html-keyboard-response","59","165586","0.0-1.0-77.0-0.0","0","0","71312","","61","","","68","8","","","1","8","training","adjacent","FG","6","7","R.jpg","P.jpg","1","1","1","",""
"","feedback","","html-keyboard-response","60","166589","0.0-1.0-78.0-0.0","0","0","71312","","null","","","null","8","","","","","","","","","","","","","","","",""
"","ITI","","html-keyboard-response","61","167591","0.0-1.0-81.0","0","0","71312","","null","","","null","8","","","","","","","","","","","","","","","NaN",""
"","S1","","html-keyboard-response","62","167844","0.0-1.0-83.0","0","0","71312","","null","","","null","9","","","","","","","","","","","","","","","",""
"","ISI","","html-keyboard-response","63","167996","0.0-1.0-84.0","0","0","71312","","null","","","null","9","NaN","","","","","","","","","","","","","","",""
"","S2","","html-keyboard-response","64","168249","0.0-1.0-85.0","0","0","71312","","null","","","null","9","","NaN","","","","","","","","","","","","","",""
"","response","","html-keyboard-response","65","168475","0.0-1.0-86.0-0.0","0","0","71312","","224","","","68","9","","","1","9","training","adjacent","BA","2","1","Q.jpg","N.jpg","1","0","0","",""
"","feedback","","html-keyboard-response","66","169477","0.0-1.0-87.0-0.0","0","0","71312","","null","","","null","9","","","","","","","","","","","","","","","",""
"","time_out","","html-keyboard-response","67","171479","0.0-1.0-89.0-0.0","0","0","71312","","null","","","null","9","","","","","","","","","","","","","","","",""
"","ITI","","html-keyboard-response","68","172481","0.0-1.0-90.0","0","0","71312","","null","","","null","9","","","","","","","","","","","","","","","NaN",""
"","S1","","html-keyboard-response","69","172732","0.0-1.0-92.0","0","0","71312","","null","","","null","10","","","","","","","","","","","","","","","",""
"","ISI","","html-keyboard-response","70","172884","0.0-1.0-93.0","0","0","71312","","null","","","null","10","NaN","","","","","","","","","","","","","","",""
"","S2","","html-keyboard-response","71","173051","0.0-1.0-94.0","0","0","71312","","165","","","75","10","","k","1","10","training","adjacent","DE","4","5","L.jpg","O.jpg","0","1","0","",""
"","feedback","","html-keyboard-response","72","174054","0.0-1.0-96.0-0.0","0","0","71312","","null","","","null","10","","","","","","","","","","","","","","","",""
"","time_out","","html-keyboard-response","73","176057","0.0-1.0-98.0-0.0","0","0","71312","","null","","","null","10","","","","","","","","","","","","","","","",""
"","ITI","","html-keyboard-response","74","177067","0.0-1.0-99.0","0","0","71312","","null","","","null","10","","","","","","","","","","","","","","","NaN",""
"","S1","","html-keyboard-response","75","177320","0.0-1.0-101.0","0","0","71312","","null","","","null","11","","","","","","","","","","","","","","","",""
"","ISI","","html-keyboard-response","76","177472","0.0-1.0-102.0","0","0","71312","","null","","","null","11","NaN","","","","","","","","","","","","","","",""
"","S2","","html-keyboard-response","77","177684","0.0-1.0-103.0","0","0","71312","","210","","","68","11","","d","1","11","training","adjacent","DC","4","3","L.jpg","M.jpg","1","0","0","",""
"","feedback","","html-keyboard-response","78","178697","0.0-1.0-105.0-0.0","0","0","71312","","null","","","null","11","","","","","","","","","","","","","","","",""
"","time_out","","html-keyboard-response","79","180698","0.0-1.0-107.0-0.0","0","0","71312","","null","","","null","11","","","","","","","","","","","","","","","",""
"","ITI","","html-keyboard-response","80","181700","0.0-1.0-108.0","0","0","71312","","null","","","null","11","","","","","","","","","","","","","","","NaN",""
"","S1","","html-keyboard-response","81","181953","0.0-1.0-110.0","0","0","71312","","null","","","null","12","","","","","","","","","","","","","","","",""
"","ISI","","html-keyboard-response","82","182105","0.0-1.0-111.0","0","0","71312","","null","","","null","12","NaN","","","","","","","","","","","","","","",""
"","S2","","html-keyboard-response","83","182292","0.0-1.0-112.0","0","0","71312","","186","","","68","12","","d","1","12","training","adjacent","DC","4","3","L.jpg","M.jpg","1","0","0","",""
"","feedback","","html-keyboard-response","84","183294","0.0-1.0-114.0-0.0","0","0","71312","","null","","","null","12","","","","","","","","","","","","","","","",""
"","time_out","","html-keyboard-response","85","185296","0.0-1.0-116.0-0.0","0","0","71312","","null","","","null","12","","","","","","","","","","","","","","","",""
"","ITI","","html-keyboard-response","86","186299","0.0-1.0-117.0","0","0","71312","","null","","","null","12","","","","","","","","","","","","","","","NaN",""
"","S1","","html-keyboard-response","87","186551","0.0-1.0-119.0","0","0","71312","","null","","","null","13","","","","","","","","","","","","","","","",""
"","ISI","","html-keyboard-response","88","186703","0.0-1.0-120.0","0","0","71312","","null","","","null","13","NaN","","","","","","","","","","","","","","",""
"","S2","","html-keyboard-response","89","186934","0.0-1.0-121.0","0","0","71312","","229","","","75","13","","k","1","13","training","adjacent","CD","3","4","M.jpg","L.jpg","0","1","0","",""
"","feedback","","html-keyboard-response","90","187936","0.0-1.0-123.0-0.0","0","0","71312","","null","","","null","13","","","","","","","","","","","","","","","",""
"","time_out","","html-keyboard-response","91","189938","0.0-1.0-125.0-0.0","0","0","71312","","null","","","null","13","","","","","","","","","","","","","","","",""
"","ITI","","html-keyboard-response","92","190940","0.0-1.0-126.0","0","0","71312","","null","","","null","13","","","","","","","","","","","","","","","NaN",""
"","S1","","html-keyboard-response","93","191192","0.0-1.0-128.0","0","0","71312","","null","","","null","14","","","","","","","","","","","","","","","",""
"","ISI","","html-keyboard-response","94","191346","0.0-1.0-129.0","0","0","71312","","null","","","null","14","NaN","","","","","","","","","","","","","","",""
"","S2","","html-keyboard-response","95","191598","0.0-1.0-130.0","0","0","71312","","251","","","75","14","","k","1","14","training","adjacent","FE","6","5","R.jpg","O.jpg","0","0","1","",""
"","feedback","","html-keyboard-response","96","192601","0.0-1.0-132.0-0.0","0","0","71312","","null","","","null","14","","","","","","","","","","","","","","","",""
"","ITI","","html-keyboard-response","97","193602","0.0-1.0-135.0","0","0","71312","","null","","","null","14","","","","","","","","","","","","","","","NaN",""
"","S1","","html-keyboard-response","98","193854","0.0-1.0-137.0","0","0","71312","","null","","","null","15","","","","","","","","","","","","","","","",""
"","ISI","","html-keyboard-response","99","194006","0.0-1.0-138.0","0","0","71312","","null","","","null","15","NaN","","","","","","","","","","","","","","",""
"","S2","","html-keyboard-response","100","194260","0.0-1.0-139.0","0","0","71312","","null","","","null","15","","NaN","","","","","","","","","","","","","",""
"","response","","html-keyboard-response","101","194430","0.0-1.0-140.0-0.0","0","0","71312","","169","","","75","15","","","1","15","training","adjacent","BC","2","3","Q.jpg","M.jpg","0","1","0","",""
"","feedback","","html-keyboard-response","102","195434","0.0-1.0-141.0-0.0","0","0","71312","","null","","","null","15","","","","","","","","","","","","","","","",""
"","time_out","","html-keyboard-response","103","197435","0.0-1.0-143.0-0.0","0","0","71312","","null","","","null","15","","","","","","","","","","","","","","","",""
"","ITI","","html-keyboard-response","104","198437","0.0-1.0-144.0","0","0","71312","","null","","","null","15","","","","","","","","","","","","","","","NaN",""
"","S1","","html-keyboard-response","105","198690","0.0-1.0-146.0","0","0","71312","","null","","","null","16","","","","","","","","","","","","","","","",""
"","ISI","","html-keyboard-response","106","198842","0.0-1.0-147.0","0","0","71312","","null","","","null","16","NaN","","","","","","","","","","","","","","",""
"","S2","","html-keyboard-response","107","199094","0.0-1.0-148.0","0","0","71312","","null","","","null","16","","NaN","","","","","","","","","","","","","",""
"","response","","html-keyboard-response","108","199488","0.0-1.0-149.0-0.0","0","0","71312","","393","","","68","16","","","1","16","training","adjacent","GF","7","6","P.jpg","R.jpg","1","0","0","",""
"","feedback","","html-keyboard-response","109","200492","0.0-1.0-150.0-0.0","0","0","71312","","null","","","null","16","","","","","","","","","","","","","","","",""
"","time_out","","html-keyboard-response","110","202494","0.0-1.0-152.0-0.0","0","0","71312","","null","","","null","16","","","","","","","","","","","","","","","",""
"","ITI","","html-keyboard-response","111","203497","0.0-1.0-153.0","0","0","71312","","null","","","null","16","","","","","","","","","","","","","","","NaN",""
"","S1","","html-keyboard-response","112","203749","0.0-1.0-155.0","0","0","71312","","null","","","null","17","","","","","","","","","","","","","","","",""
"","ISI","","html-keyboard-response","113","203901","0.0-1.0-156.0","0","0","71312","","null","","","null","17","NaN","","","","","","","","","","","","","","",""
"","S2","","html-keyboard-response","114","204154","0.0-1.0-157.0","0","0","71312","","null","","","null","17","","NaN","","","","","","","","","","","","","",""
"","response","","html-keyboard-response","115","204392","0.0-1.0-158.0-0.0","0","0","71312","","236","","","75","17","","","1","17","training","adjacent","DE","4","5","L.jpg","O.jpg","0","1","0","",""
"","feedback","","html-keyboard-response","116","205395","0.0-1.0-159.0-0.0","0","0","71312","","null","","","null","17","","","","","","","","","","","","","","","",""
"","time_out","","html-keyboard-response","117","207398","0.0-1.0-161.0-0.0","0","0","71312","","null","","","null","17","","","","","","","","","","","","","","","",""
"","ITI","","html-keyboard-response","118","208399","0.0-1.0-162.0","0","0","71312","","null","","","null","17","","","","","","","","","","","","","","","NaN",""
"","S1","","html-keyboard-response","119","208651","0.0-1.0-164.0","0","0","71312","","null","","","null","18","","","","","","","","","","","","","","","",""
"","ISI","","html-keyboard-response","120","208803","0.0-1.0-165.0","0","0","71312","","null","","","null","18","NaN","","","","","","","","","","","","","","",""
"","S2","","html-keyboard-response","121","209055","0.0-1.0-166.0","0","0","71312","","null","","","null","18","","NaN","","","","","","","","","","","","","",""
"","response","","html-keyboard-response","122","209344","0.0-1.0-167.0-0.0","0","0","71312","","288","","","75","18","","","1","18","training","adjacent","GF","7","6","P.jpg","R.jpg","0","0","1","",""
"","feedback","","html-keyboard-response","123","210346","0.0-1.0-168.0-0.0","0","0","71312","","null","","","null","18","","","","","","","","","","","","","","","",""
"","ITI","","html-keyboard-response","124","211348","0.0-1.0-171.0","0","0","71312","","null","","","null","18","","","","","","","","","","","","","","","NaN",""
"","S1","","html-keyboard-response","125","211600","0.0-1.0-173.0","0","0","71312","","null","","","null","19","","","","","","","","","","","","","","","",""
"","ISI","","html-keyboard-response","126","211752","0.0-1.0-174.0","0","0","71312","","null","","","null","19","NaN","","","","","","","","","","","","","","",""
"","S2","","html-keyboard-response","127","212004","0.0-1.0-175.0","0","0","71312","","null","","","null","19","","NaN","","","","","","","","","","","","","",""
"","response","","html-keyboard-response","128","212203","0.0-1.0-176.0-0.0","0","0","71312","","198","","","68","19","","","1","19","training","adjacent","BA","2","1","Q.jpg","N.jpg","1","0","0","",""
"","feedback","","html-keyboard-response","129","213205","0.0-1.0-177.0-0.0","0","0","71312","","null","","","null","19","","","","","","","","","","","","","","","",""
"","time_out","","html-keyboard-response","130","215208","0.0-1.0-179.0-0.0","0","0","71312","","null","","","null","19","","","","","","","","","","","","","","","",""
"","ITI","","html-keyboard-response","131","216209","0.0-1.0-180.0","0","0","71312","","null","","","null","19","","","","","","","","","","","","","","","NaN",""
"","S1","","html-keyboard-response","132","216461","0.0-1.0-182.0","0","0","71312","","null","","","null","20","","","","","","","","","","","","","","","",""
"","ISI","","html-keyboard-response","133","216614","0.0-1.0-183.0","0","0","71312","","null","","","null","20","NaN","","","","","","","","","","","","","","",""
"","S2","","html-keyboard-response","134","216858","0.0-1.0-184.0","0","0","71312","","242","","","68","20","","d","1","20","training","adjacent","FE","6","5","R.jpg","O.jpg","1","0","0","",""
"","feedback","","html-keyboard-response","135","217866","0.0-1.0-186.0-0.0","0","0","71312","","null","","","null","20","","","","","","","","","","","","","","","",""
"","time_out","","html-keyboard-response","136","219869","0.0-1.0-188.0-0.0","0","0","71312","","null","","","null","20","","","","","","","","","","","","","","","",""
"","ITI","","html-keyboard-response","137","220871","0.0-1.0-189.0","0","0","71312","","null","","","null","20","","","","","","","","","","","","","","","NaN",""
"","S1","","html-keyboard-response","138","221124","0.0-1.0-191.0","0","0","71312","","null","","","null","21","","","","","","","","","","","","","","","",""
"","ISI","","html-keyboard-response","139","221276","0.0-1.0-192.0","0","0","71312","","null","","","null","21","NaN","","","","","","","","","","","","","","",""
"","S2","","html-keyboard-response","140","221523","0.0-1.0-193.0","0","0","71312","","245","","","75","21","","k","1","21","training","adjacent","AB","1","2","N.jpg","Q.jpg","0","1","0","",""
"","feedback","","html-keyboard-response","141","222526","0.0-1.0-195.0-0.0","0","0","71312","","null","","","null","21","","","","","","","","","","","","","","","",""
"","time_out","","html-keyboard-response","142","224528","0.0-1.0-197.0-0.0","0","0","71312","","null","","","null","21","","","","","","","","","","","","","","","",""
"","ITI","","html-keyboard-response","143","225530","0.0-1.0-198.0","0","0","71312","","null","","","null","21","","","","","","","","","","","","","","","NaN",""
"","S1","","html-keyboard-response","144","225783","0.0-1.0-200.0","0","0","71312","","null","","","null","22","","","","","","","","","","","","","","","",""
"","ISI","","html-keyboard-response","145","225935","0.0-1.0-201.0","0","0","71312","","null","","","null","22","NaN","","","","","","","","","","","","","","",""
"","S2","","html-keyboard-response","146","226190","0.0-1.0-202.0","0","0","71312","","null","","","null","22","","NaN","","","","","","","","","","","","","",""
"","response","","html-keyboard-response","147","226469","0.0-1.0-203.0-0.0","0","0","71312","","278","","","75","22","","","1","22","training","adjacent","ED","5","4","O.jpg","L.jpg","0","0","1","",""
"","feedback","","html-keyboard-response","148","227472","0.0-1.0-204.0-0.0","0","0","71312","","null","","","null","22","","","","","","","","","","","","","","","",""
"","ITI","","html-keyboard-response","149","228474","0.0-1.0-207.0","0","0","71312","","null","","","null","22","","","","","","","","","","","","","","","NaN",""
"","S1","","html-keyboard-response","150","228727","0.0-1.0-209.0","0","0","71312","","null","","","null","23","","","","","","","","","","","","","","","",""
"","ISI","","html-keyboard-response","151","228879","0.0-1.0-210.0","0","0","71312","","null","","","null","23","NaN","","","","","","","","","","","","","","",""
"","S2","","html-keyboard-response","152","229131","0.0-1.0-211.0","0","0","71312","","null","","","null","23","","NaN","","","","","","","","","","","","","",""
"","response","","html-keyboard-response","153","229364","0.0-1.0-212.0-0.0","0","0","71312","","232","","","75","23","","","1","23","training","adjacent","CD","3","4","M.jpg","L.jpg","0","1","0","",""
"","feedback","","html-keyboard-response","154","230366","0.0-1.0-213.0-0.0","0","0","71312","","null","","","null","23","","","","","","","","","","","","","","","",""
"","time_out","","html-keyboard-response","155","232369","0.0-1.0-215.0-0.0","0","0","71312","","null","","","null","23","","","","","","","","","","","","","","","",""
"","ITI","","html-keyboard-response","156","233370","0.0-1.0-216.0","0","0","71312","","null","","","null","23","","","","","","","","","","","","","","","NaN",""
"","S1","","html-keyboard-response","157","233623","0.0-1.0-218.0","0","0","71312","","null","","","null","24","","","","","","","","","","","","","","","",""
"","ISI","","html-keyboard-response","158","233774","0.0-1.0-219.0","0","0","71312","","null","","","null","24","NaN","","","","","","","","","","","","","","",""
"","S2","","html-keyboard-response","159","234027","0.0-1.0-220.0","0","0","71312","","null","","","null","24","","NaN","","","","","","","","","","","","","",""
"","response","","html-keyboard-response","160","234116","0.0-1.0-221.0-0.0","0","0","71312","","88","","","68","24","","","1","24","training","adjacent","DC","4","3","L.jpg","M.jpg","1","0","0","",""
"","feedback","","html-keyboard-response","161","235119","0.0-1.0-222.0-0.0","0","0","71312","","null","","","null","24","","","","","","","","","","","","","","","",""
"","time_out","","html-keyboard-response","162","237123","0.0-1.0-224.0-0.0","0","0","71312","","null","","","null","24","","","","","","","","","","","","","","","",""
"","ITI","","html-keyboard-response","163","238125","0.0-1.0-225.0","0","0","71312","","null","","","null","24","","","","","","","","","","","","","","","NaN",""
"","S1","","html-keyboard-response","164","238379","0.0-1.0-227.0","0","0","71312","","null","","","null","25","","","","","","","","","","","","","","","",""
"","ISI","","html-keyboard-response","165","238530","0.0-1.0-228.0","0","0","71312","","null","","","null","25","NaN","","","","","","","","","","","","","","",""
"","S2","","html-keyboard-response","166","238765","0.0-1.0-229.0","0","0","71312","","233","","","75","25","","k","1","25","training","adjacent","GF","7","6","P.jpg","R.jpg","0","0","1","",""
"","feedback","","html-keyboard-response","167","239768","0.0-1.0-231.0-0.0","0","0","71312","","null","","","null","25","","","","","","","","","","","","","","","",""
"","ITI","","html-keyboard-response","168","240769","0.0-1.0-234.0","0","0","71312","","null","","","null","25","","","","","","","","","","","","","","","NaN",""
"","S1","","html-keyboard-response","169","241021","0.0-1.0-236.0","0","0","71312","","null","","","null","26","","","","","","","","","","","","","","","",""
"","ISI","","html-keyboard-response","170","241173","0.0-1.0-237.0","0","0","71312","","null","","","null","26","NaN","","","","","","","","","","","","","","",""
"","S2","","html-keyboard-response","171","241426","0.0-1.0-238.0","0","0","71312","","null","","","null","26","","NaN","","","","","","","","","","","","","",""
"","response","","html-keyboard-response","172","241630","0.0-1.0-239.0-0.0","0","0","71312","","202","","","75","26","","","1","26","training","adjacent","BA","2","1","Q.jpg","N.jpg","0","0","1","",""
"","feedback","","html-keyboard-response","173","242631","0.0-1.0-240.0-0.0","0","0","71312","","null","","","null","26","","","","","","","","","","","","","","","",""
"","ITI","","html-keyboard-response","174","243633","0.0-1.0-243.0","0","0","71312","","null","","","null","26","","","","","","","","","","","","","","","NaN",""
"","S1","","html-keyboard-response","175","243885","0.0-1.0-245.0","0","0","71312","","null","","","null","27","","","","","","","","","","","","","","","",""
"","ISI","","html-keyboard-response","176","244037","0.0-1.0-246.0","0","0","71312","","null","","","null","27","NaN","","","","","","","","","","","","","","",""
"","S2","","html-keyboard-response","177","244290","0.0-1.0-247.0","0","0","71312","","null","","","null","27","","NaN","","","","","","","","","","","","","",""
"","response","","html-keyboard-response","178","244365","0.0-1.0-248.0-0.0","0","0","71312","","74","","","75","27","","","1","27","training","adjacent","BC","2","3","Q.jpg","M.jpg","0","1","0","",""
"","feedback","","html-keyboard-response","179","245369","0.0-1.0-249.0-0.0","0","0","71312","","null","","","null","27","","","","","","","","","","","","","","","",""
"","time_out","","html-keyboard-response","180","247371","0.0-1.0-251.0-0.0","0","0","71312","","null","","","null","27","","","","","","","","","","","","","","","",""
"","ITI","","html-keyboard-response","181","248373","0.0-1.0-252.0","0","0","71312","","null","","","null","27","","","","","","","","","","","","","","","NaN",""
"","S1","","html-keyboard-response","182","248626","0.0-1.0-254.0","0","0","71312","","null","","","null","28","","","","","","","","","","","","","","","",""
"","ISI","","html-keyboard-response","183","248778","0.0-1.0-255.0","0","0","71312","","null","","","null","28","NaN","","","","","","","","","","","","","","",""
"","S2","","html-keyboard-response","184","249024","0.0-1.0-256.0","0","0","71312","","245","","","68","28","","d","1","28","training","adjacent","AB","1","2","N.jpg","Q.jpg","1","1","1","",""
"","feedback","","html-keyboard-response","185","250027","0.0-1.0-258.0-0.0","0","0","71312","","null","","","null","28","","","","","","","","","","","","","","","",""
"","ITI","","html-keyboard-response","186","251029","0.0-1.0-261.0","0","0","71312","","null","","","null","28","","","","","","","","","","","","","","","NaN",""
"","S1","","html-keyboard-response","187","251281","0.0-1.0-263.0","0","0","71312","","null","","","null","29","","","","","","","","","","","","","","","",""
"","ISI","","html-keyboard-response","188","251432","0.0-1.0-264.0","0","0","71312","","null","","","null","29","NaN","","","","","","","","","","","","","","",""
"","S2","","html-keyboard-response","189","251685","0.0-1.0-265.0","0","0","71312","","null","","","null","29","","NaN","","","","","","","","","","","","","",""
"","response","","html-keyboard-response","190","251726","0.0-1.0-266.0-0.0","0","0","71312","","41","","","68","29","","","1","29","training","adjacent","ED","5","4","O.jpg","L.jpg","1","0","0","",""
"","feedback","","html-keyboard-response","191","252728","0.0-1.0-267.0-0.0","0","0","71312","","null","","","null","29","","","","","","","","","","","","","","","",""
"","time_out","","html-keyboard-response","192","254731","0.0-1.0-269.0-0.0","0","0","71312","","null","","","null","29","","","","","","","","","","","","","","","",""
"","ITI","","html-keyboard-response","193","255733","0.0-1.0-270.0","0","0","71312","","null","","","null","29","","","","","","","","","","","","","","","NaN",""
"","S1","","html-keyboard-response","194","255985","0.0-1.0-272.0","0","0","71312","","null","","","null","30","","","","","","","","","","","","","","","",""
"","ISI","","html-keyboard-response","195","256137","0.0-1.0-273.0","0","0","71312","","null","","","null","30","NaN","","","","","","","","","","","","","","",""
"","S2","","html-keyboard-response","196","256389","0.0-1.0-274.0","0","0","71312","","null","","","null","30","","NaN","","","","","","","","","","","","","",""
"","response","","html-keyboard-response","197","256423","0.0-1.0-275.0-0.0","0","0","71312","","32","","","68","30","","","1","30","training","adjacent","FG","6","7","R.jpg","P.jpg","1","1","1","",""
"","feedback","","html-keyboard-response","198","257425","0.0-1.0-276.0-0.0","0","0","71312","","null","","","null","30","","","","","","","","","","","","","","","",""
"","ITI","","html-keyboard-response","199","258428","0.0-1.0-279.0","0","0","71312","","null","","","null","30","","","","","","","","","","","","","","","NaN",""
"","S1","","html-keyboard-response","200","258680","0.0-1.0-281.0","0","0","71312","","null","","","null","31","","","","","","","","","","","","","","","",""
"","ISI","","html-keyboard-response","201","258833","0.0-1.0-282.0","0","0","71312","","null","","","null","31","NaN","","","","","","","","","","","","","","",""
"","S2","","html-keyboard-response","202","259085","0.0-1.0-283.0","0","0","71312","","null","","","null","31","","NaN","","","","","","","","","","","","","",""
"","response","","html-keyboard-response","203","259290","0.0-1.0-284.0-0.0","0","0","71312","","204","","","68","31","","","1","31","training","adjacent","CD","3","4","M.jpg","L.jpg","1","1","1","",""
"","feedback","","html-keyboard-response","204","260292","0.0-1.0-285.0-0.0","0","0","71312","","null","","","null","31","","","","","","","","","","","","","","","",""
"","ITI","","html-keyboard-response","205","261304","0.0-1.0-288.0","0","0","71312","","null","","","null","31","","","","","","","","","","","","","","","NaN",""
"","S1","","html-keyboard-response","206","261556","0.0-1.0-290.0","0","0","71312","","null","","","null","32","","","","","","","","","","","","","","","",""
"","ISI","","html-keyboard-response","207","261708","0.0-1.0-291.0","0","0","71312","","null","","","null","32","NaN","","","","","","","","","","","","","","",""
"","S2","","html-keyboard-response","208","261960","0.0-1.0-292.0","0","0","71312","","null","","","null","32","","NaN","","","","","","","","","","","","","",""
"","response","","html-keyboard-response","209","261991","0.0-1.0-293.0-0.0","0","0","71312","","31","","","68","32","","","1","32","training","adjacent","AB","1","2","N.jpg","Q.jpg","1","1","1","",""
"","feedback","","html-keyboard-response","210","262994","0.0-1.0-294.0-0.0","0","0","71312","","null","","","null","32","","","","","","","","","","","","","","","",""
"","ITI","","html-keyboard-response","211","263997","0.0-1.0-297.0","0","0","71312","","null","","","null","32","","","","","","","","","","","","","","","NaN",""
"","S1","","html-keyboard-response","212","264250","0.0-1.0-299.0","0","0","71312","","null","","","null","33","","","","","","","","","","","","","","","",""
"","ISI","","html-keyboard-response","213","264402","0.0-1.0-300.0","0","0","71312","","null","","","null","33","NaN","","","","","","","","","","","","","","",""
"","S2","","html-keyboard-response","214","264655","0.0-1.0-301.0","0","0","71312","","null","","","null","33","","NaN","","","","","","","","","","","","","",""
"","response","","html-keyboard-response","215","264744","0.0-1.0-302.0-0.0","0","0","71312","","87","","","68","33","","","1","33","training","adjacent","DE","4","5","L.jpg","O.jpg","1","1","1","",""
"","feedback","","html-keyboard-response","216","265748","0.0-1.0-303.0-0.0","0","0","71312","","null","","","null","33","","","","","","","","","","","","","","","",""
"","ITI","","html-keyboard-response","217","266750","0.0-1.0-306.0","0","0","71312","","null","","","null","33","","","","","","","","","","","","","","","NaN",""
"","S1","","html-keyboard-response","218","267003","0.0-1.0-308.0","0","0","71312","","null","","","null","34","","","","","","","","","","","","","","","",""
"","ISI","","html-keyboard-response","219","267155","0.0-1.0-309.0","0","0","71312","","null","","","null","34","NaN","","","","","","","","","","","","","","",""
"","S2","","html-keyboard-response","220","267408","0.0-1.0-310.0","0","0","71312","","null","","","null","34","","NaN","","","","","","","","","","","","","",""
"","response","","html-keyboard-response","221","267497","0.0-1.0-311.0-0.0","0","0","71312","","88","","","75","34","","","1","34","training","adjacent","DE","4","5","L.jpg","O.jpg","0","1","0","",""
"","feedback","","html-keyboard-response","222","268513","0.0-1.0-312.0-0.0","0","0","71312","","null","","","null","34","","","","","","","","","","","","","","","",""
"","time_out","","html-keyboard-response","223","270516","0.0-1.0-314.0-0.0","0","0","71312","","null","","","null","34","","","","","","","","","","","","","","","",""
"","ITI","","html-keyboard-response","224","271518","0.0-1.0-315.0","0","0","71312","","null","","","null","34","","","","","","","","","","","","","","","NaN",""
"","S1","","html-keyboard-response","225","271770","0.0-1.0-317.0","0","0","71312","","null","","","null","35","","","","","","","","","","","","","","","",""
"","ISI","","html-keyboard-response","226","271922","0.0-1.0-318.0","0","0","71312","","null","","","null","35","NaN","","","","","","","","","","","","","","",""
"","S2","","html-keyboard-response","227","272175","0.0-1.0-319.0","0","0","71312","","null","","","null","35","","NaN","","","","","","","","","","","","","",""
"","response","","html-keyboard-response","228","272243","0.0-1.0-320.0-0.0","0","0","71312","","66","","","75","35","","","1","35","training","adjacent","DC","4","3","L.jpg","M.jpg","0","0","1","",""
"","feedback","","html-keyboard-response","229","273246","0.0-1.0-321.0-0.0","0","0","71312","","null","","","null","35","","","","","","","","","","","","","","","",""
"","ITI","","html-keyboard-response","230","274249","0.0-1.0-324.0","0","0","71312","","null","","","null","35","","","","","","","","","","","","","","","NaN",""
"","S1","","html-keyboard-response","231","274501","0.0-1.0-326.0","0","0","71312","","null","","","null","36","","","","","","","","","","","","","","","",""
"","ISI","","html-keyboard-response","232","274653","0.0-1.0-327.0","0","0","71312","","null","","","null","36","NaN","","","","","","","","","","","","","","",""
"","S2","","html-keyboard-response","233","274906","0.0-1.0-328.0","0","0","71312","","null","","","null","36","","NaN","","","","","","","","","","","","","",""
"","response","","html-keyboard-response","234","275098","0.0-1.0-329.0-0.0","0","0","71312","","190","","","68","36","","","1","36","training","adjacent","EF","5","6","O.jpg","R.jpg","1","1","1","",""
"","feedback","","html-keyboard-response","235","276102","0.0-1.0-330.0-0.0","0","0","71312","","null","","","null","36","","","","","","","","","","","","","","","",""
"","ITI","","html-keyboard-response","236","277105","0.0-1.0-333.0","0","0","71312","","null","","","null","36","","","","","","","","","","","","","","","NaN",""
"","S1","","html-keyboard-response","237","277357","0.0-1.0-335.0","0","0","71312","","null","","","null","37","","","","","","","","","","","","","","","",""
"","ISI","","html-keyboard-response","238","277510","0.0-1.0-336.0","0","0","71312","","null","","","null","37","NaN","","","","","","","","","","","","","","",""
"","S2","","html-keyboard-response","239","277763","0.0-1.0-337.0","0","0","71312","","null","","","null","37","","NaN","","","","","","","","","","","","","",""
"","response","","html-keyboard-response","240","277946","0.0-1.0-338.0-0.0","0","0","71312","","182","","","68","37","","","1","37","training","adjacent","FE","6","5","R.jpg","O.jpg","1","0","0","",""
"","feedback","","html-keyboard-response","241","278949","0.0-1.0-339.0-0.0","0","0","71312","","null","","","null","37","","","","","","","","","","","","","","","",""
"","time_out","","html-keyboard-response","242","280952","0.0-1.0-341.0-0.0","0","0","71312","","null","","","null","37","","","","","","","","","","","","","","","",""
"","ITI","","html-keyboard-response","243","281955","0.0-1.0-342.0","0","0","71312","","null","","","null","37","","","","","","","","","","","","","","","NaN",""
"","S1","","html-keyboard-response","244","282208","0.0-1.0-344.0","0","0","71312","","null","","","null","38","","","","","","","","","","","","","","","",""
"","ISI","","html-keyboard-response","245","282360","0.0-1.0-345.0","0","0","71312","","null","","","null","38","NaN","","","","","","","","","","","","","","",""
"","S2","","html-keyboard-response","246","282612","0.0-1.0-346.0","0","0","71312","","null","","","null","38","","NaN","","","","","","","","","","","","","",""
"","response","","html-keyboard-response","247","282845","0.0-1.0-347.0-0.0","0","0","71312","","231","","","75","38","","","1","38","training","adjacent","GF","7","6","P.jpg","R.jpg","0","0","1","",""
"","feedback","","html-keyboard-response","248","283849","0.0-1.0-348.0-0.0","0","0","71312","","null","","","null","38","","","","","","","","","","","","","","","",""
"","ITI","","html-keyboard-response","249","284859","0.0-1.0-351.0","0","0","71312","","null","","","null","38","","","","","","","","","","","","","","","NaN",""
"","S1","","html-keyboard-response","250","285111","0.0-1.0-353.0","0","0","71312","","null","","","null","39","","","","","","","","","","","","","","","",""
"","ISI","","html-keyboard-response","251","285263","0.0-1.0-354.0","0","0","71312","","null","","","null","39","NaN","","","","","","","","","","","","","","",""
"","S2","","html-keyboard-response","252","285515","0.0-1.0-355.0","0","0","71312","","null","","","null","39","","NaN","","","","","","","","","","","","","",""
"","response","","html-keyboard-response","253","285779","0.0-1.0-356.0-0.0","0","0","71312","","262","","","75","39","","","1","39","training","adjacent","BC","2","3","Q.jpg","M.jpg","0","1","0","",""
"","feedback","","html-keyboard-response","254","286781","0.0-1.0-357.0-0.0","0","0","71312","","null","","","null","39","","","","","","","","","","","","","","","",""
"","time_out","","html-keyboard-response","255","288784","0.0-1.0-359.0-0.0","0","0","71312","","null","","","null","39","","","","","","","","","","","","","","","",""
"","ITI","","html-keyboard-response","256","289786","0.0-1.0-360.0","0","0","71312","","null","","","null","39","","","","","","","","","","","","","","","NaN",""
"","S1","","html-keyboard-response","257","290039","0.0-1.0-362.0","0","0","71312","","null","","","null","40","","","","","","","","","","","","","","","",""
"","ISI","","html-keyboard-response","258","290192","0.0-1.0-363.0","0","0","71312","","null","","","null","40","NaN","","","","","","","","","","","","","","",""
"","S2","","html-keyboard-response","259","290445","0.0-1.0-364.0","0","0","71312","","null","","","null","40","","NaN","","","","","","","","","","","","","",""
"","response","","html-keyboard-response","260","290539","0.0-1.0-365.0-0.0","0","0","71312","","93","","","68","40","","","1","40","training","adjacent","CB","3","2","M.jpg","Q.jpg","1","0","0","",""
"","feedback","","html-keyboard-response","261","291542","0.0-1.0-366.0-0.0","0","0","71312","","null","","","null","40","","","","","","","","","","","","","","","",""
"","time_out","","html-keyboard-response","262","293544","0.0-1.0-368.0-0.0","0","0","71312","","null","","","null","40","","","","","","","","","","","","","","","",""
"","ITI","","html-keyboard-response","263","294546","0.0-1.0-369.0","0","0","71312","","null","","","null","40","","","","","","","","","","","","","","","NaN",""
"","S1","","html-keyboard-response","264","294799","0.0-1.0-371.0","0","0","71312","","null","","","null","41","","","","","","","","","","","","","","","",""
"","ISI","","html-keyboard-response","265","294951","0.0-1.0-372.0","0","0","71312","","null","","","null","41","NaN","","","","","","","","","","","","","","",""
"","S2","","html-keyboard-response","266","295204","0.0-1.0-373.0","0","0","71312","","null","","","null","41","","NaN","","","","","","","","","","","","","",""
"","response","","html-keyboard-response","267","295255","0.0-1.0-374.0-0.0","0","0","71312","","49","","","75","41","","","1","41","training","adjacent","BC","2","3","Q.jpg","M.jpg","0","1","0","",""
"","feedback","","html-keyboard-response","268","296258","0.0-1.0-375.0-0.0","0","0","71312","","null","","","null","41","","","","","","","","","","","","","","","",""
"","time_out","","html-keyboard-response","269","298259","0.0-1.0-377.0-0.0","0","0","71312","","null","","","null","41","","","","","","","","","","","","","","","",""
"","ITI","","html-keyboard-response","270","299262","0.0-1.0-378.0","0","0","71312","","null","","","null","41","","","","","","","","","","","","","","","NaN",""
"","S1","","html-keyboard-response","271","299515","0.0-1.0-380.0","0","0","71312","","null","","","null","42","","","","","","","","","","","","","","","",""
"","ISI","","html-keyboard-response","272","299668","0.0-1.0-381.0","0","0","71312","","null","","","null","42","NaN","","","","","","","","","","","","","","",""
"","S2","","html-keyboard-response","273","299920","0.0-1.0-382.0","0","0","71312","","null","","","null","42","","NaN","","","","","","","","","","","","","",""
"","response","","html-keyboard-response","274","299973","0.0-1.0-383.0-0.0","0","0","71312","","53","","","75","42","","","1","42","training","adjacent","FG","6","7","R.jpg","P.jpg","0","1","0","",""
"","feedback","","html-keyboard-response","275","300976","0.0-1.0-384.0-0.0","0","0","71312","","null","","","null","42","","","","","","","","","","","","","","","",""
"","time_out","","html-keyboard-response","276","302979","0.0-1.0-386.0-0.0","0","0","71312","","null","","","null","42","","","","","","","","","","","","","","","",""
"","ITI","","html-keyboard-response","277","303982","0.0-1.0-387.0","0","0","71312","","null","","","null","42","","","","","","","","","","","","","","","NaN",""
"","S1","","html-keyboard-response","278","304234","0.0-1.0-389.0","0","0","71312","","null","","","null","43","","","","","","","","","","","","","","","",""
"","ISI","","html-keyboard-response","279","304388","0.0-1.0-390.0","0","0","71312","","null","","","null","43","NaN","","","","","","","","","","","","","","",""
"","S2","","html-keyboard-response","280","304640","0.0-1.0-391.0","0","0","71312","","null","","","null","43","","NaN","","","","","","","","","","","","","",""
"","response","","html-keyboard-response","281","304695","0.0-1.0-392.0-0.0","0","0","71312","","53","","","68","43","","","1","43","training","adjacent","ED","5","4","O.jpg","L.jpg","1","0","0","",""
"","feedback","","html-keyboard-response","282","305697","0.0-1.0-393.0-0.0","0","0","71312","","null","","","null","43","","","","","","","","","","","","","","","",""
"","time_out","","html-keyboard-response","283","307700","0.0-1.0-395.0-0.0","0","0","71312","","null","","","null","43","","","","","","","","","","","","","","","",""
"","ITI","","html-keyboard-response","284","308703","0.0-1.0-396.0","0","0","71312","","null","","","null","43","","","","","","","","","","","","","","","NaN",""
"","S1","","html-keyboard-response","285","308955","0.0-1.0-398.0","0","0","71312","","null","","","null","44","","","","","","","","","","","","","","","",""
"","ISI","","html-keyboard-response","286","309108","0.0-1.0-399.0","0","0","71312","","null","","","null","44","NaN","","","","","","","","","","","","","","",""
"","S2","","html-keyboard-response","287","309360","0.0-1.0-400.0","0","0","71312","","null","","","null","44","","NaN","","","","","","","","","","","","","",""
"","response","","html-keyboard-response","288","309423","0.0-1.0-401.0-0.0","0","0","71312","","61","","","68","44","","","1","44","training","adjacent","CD","3","4","M.jpg","L.jpg","1","1","1","",""
"","feedback","","html-keyboard-response","289","310427","0.0-1.0-402.0-0.0","0","0","71312","","null","","","null","44","","","","","","","","","","","","","","","",""
"","ITI","","html-keyboard-response","290","311441","0.0-1.0-405.0","0","0","71312","","null","","","null","44","","","","","","","","","","","","","","","NaN",""
"","S1","","html-keyboard-response","291","311694","0.0-1.0-407.0","0","0","71312","","null","","","null","45","","","","","","","","","","","","","","","",""
"","ISI","","html-keyboard-response","292","311845","0.0-1.0-408.0","0","0","71312","","null","","","null","45","NaN","","","","","","","","","","","","","","",""
"","S2","","html-keyboard-response","293","312098","0.0-1.0-409.0","0","0","71312","","null","","","null","45","","NaN","","","","","","","","","","","","","",""
"","response","","html-keyboard-response","294","312224","0.0-1.0-410.0-0.0","0","0","71312","","124","","","68","45","","","1","45","training","adjacent","FG","6","7","R.jpg","P.jpg","1","1","1","",""
"","feedback","","html-keyboard-response","295","313227","0.0-1.0-411.0-0.0","0","0","71312","","null","","","null","45","","","","","","","","","","","","","","","",""
"","ITI","","html-keyboard-response","296","314228","0.0-1.0-414.0","0","0","71312","","null","","","null","45","","","","","","","","","","","","","","","NaN",""
"","S1","","html-keyboard-response","297","314481","0.0-1.0-416.0","0","0","71312","","null","","","null","46","","","","","","","","","","","","","","","",""
"","ISI","","html-keyboard-response","298","314633","0.0-1.0-417.0","0","0","71312","","null","","","null","46","NaN","","","","","","","","","","","","","","",""
"","S2","","html-keyboard-response","299","314885","0.0-1.0-418.0","0","0","71312","","null","","","null","46","","NaN","","","","","","","","","","","","","",""
"","response","","html-keyboard-response","300","315024","0.0-1.0-419.0-0.0","0","0","71312","","138","","","75","46","","","1","46","training","adjacent","AB","1","2","N.jpg","Q.jpg","0","1","0","",""
"","feedback","","html-keyboard-response","301","316026","0.0-1.0-420.0-0.0","0","0","71312","","null","","","null","46","","","","","","","","","","","","","","","",""
"","time_out","","html-keyboard-response","302","318027","0.0-1.0-422.0-0.0","0","0","71312","","null","","","null","46","","","","","","","","","","","","","","","",""
"","ITI","","html-keyboard-response","303","319029","0.0-1.0-423.0","0","0","71312","","null","","","null","46","","","","","","","","","","","","","","","NaN",""
"","S1","","html-keyboard-response","304","319282","0.0-1.0-425.0","0","0","71312","","null","","","null","47","","","","","","","","","","","","","","","",""
"","ISI","","html-keyboard-response","305","319433","0.0-1.0-426.0","0","0","71312","","null","","","null","47","NaN","","","","","","","","","","","","","","",""
"","S2","","html-keyboard-response","306","319686","0.0-1.0-427.0","0","0","71312","","null","","","null","47","","NaN","","","","","","","","","","","","","",""
"","response","","html-keyboard-response","307","319745","0.0-1.0-428.0-0.0","0","0","71312","","59","","","68","47","","","1","47","training","adjacent","CB","3","2","M.jpg","Q.jpg","1","0","0","",""
"","feedback","","html-keyboard-response","308","320748","0.0-1.0-429.0-0.0","0","0","71312","","null","","","null","47","","","","","","","","","","","","","","","",""
"","time_out","","html-keyboard-response","309","322750","0.0-1.0-431.0-0.0","0","0","71312","","null","","","null","47","","","","","","","","","","","","","","","",""
"","ITI","","html-keyboard-response","310","323753","0.0-1.0-432.0","0","0","71312","","null","","","null","47","","","","","","","","","","","","","","","NaN",""
"","block_over","","html-keyboard-response","311","337701","0.0-1.0-433.0-0.0","0","0","71312","","13946","","","32","47","","","","","","","","","","","","","","","",""
"","S1","","html-keyboard-response","312","337953","0.0-1.0-434.0","0","0","71312","","null","","","null","48","","","","","","","","","","","","","","","",""
"","ISI","","html-keyboard-response","313","338104","0.0-1.0-435.0","0","0","71312","","null","","","null","48","NaN","","","","","","","","","","","","","","",""
"","S2","","html-keyboard-response","314","338356","0.0-1.0-436.0","0","0","71312","","null","","","null","48","","NaN","","","","","","","","","","","","","",""
"","response","","html-keyboard-response","315","338628","0.0-1.0-437.0-0.0","0","0","71312","","271","","","68","48","","","2","48","training","adjacent","BA","2","1","Q.jpg","N.jpg","1","0","0","",""
"","feedback","","html-keyboard-response","316","339630","0.0-1.0-438.0-0.0","0","0","71312","","null","","","null","48","","","","","","","","","","","","","","","",""
"","time_out","","html-keyboard-response","317","341632","0.0-1.0-440.0-0.0","0","0","71312","","null","","","null","48","","","","","","","","","","","","","","","",""
"","ITI","","html-keyboard-response","318","342635","0.0-1.0-441.0","0","0","71312","","null","","","null","48","","","","","","","","","","","","","","","NaN",""
"","S1","","html-keyboard-response","319","342886","0.0-1.0-443.0","0","0","71312","","null","","","null","49","","","","","","","","","","","","","","","",""
"","ISI","","html-keyboard-response","320","343038","0.0-1.0-444.0","0","0","71312","","null","","","null","49","NaN","","","","","","","","","","","","","","",""
"","S2","","html-keyboard-response","321","343290","0.0-1.0-445.0","0","0","71312","","null","","","null","49","","NaN","","","","","","","","","","","","","",""
"","response","","html-keyboard-response","322","343365","0.0-1.0-446.0-0.0","0","0","71312","","74","","","68","49","","","2","49","training","adjacent","CD","3","4","M.jpg","L.jpg","1","1","1","",""
"","feedback","","html-keyboard-response","323","344368","0.0-1.0-447.0-0.0","0","0","71312","","null","","","null","49","","","","","","","","","","","","","","","",""
"","ITI","","html-keyboard-response","324","345370","0.0-1.0-450.0","0","0","71312","","null","","","null","49","","","","","","","","","","","","","","","NaN",""
"","S1","","html-keyboard-response","325","345623","0.0-1.0-452.0","0","0","71312","","null","","","null","50","","","","","","","","","","","","","","","",""
"","ISI","","html-keyboard-response","326","345776","0.0-1.0-453.0","0","0","71312","","null","","","null","50","NaN","","","","","","","","","","","","","","",""
"","S2","","html-keyboard-response","327","346029","0.0-1.0-454.0","0","0","71312","","null","","","null","50","","NaN","","","","","","","","","","","","","",""
"","response","","html-keyboard-response","328","346230","0.0-1.0-455.0-0.0","0","0","71312","","198","","","68","50","","","2","50","training","adjacent","CB","3","2","M.jpg","Q.jpg","1","0","0","",""
"","feedback","","html-keyboard-response","329","347233","0.0-1.0-456.0-0.0","0","0","71312","","null","","","null","50","","","","","","","","","","","","","","","",""
"","time_out","","html-keyboard-response","330","349235","0.0-1.0-458.0-0.0","0","0","71312","","null","","","null","50","","","","","","","","","","","","","","","",""
"","ITI","","html-keyboard-response","331","350237","0.0-1.0-459.0","0","0","71312","","null","","","null","50","","","","","","","","","","","","","","","NaN",""
"","S1","","html-keyboard-response","332","350490","0.0-1.0-461.0","0","0","71312","","null","","","null","51","","","","","","","","","","","","","","","",""
"","ISI","","html-keyboard-response","333","350643","0.0-1.0-462.0","0","0","71312","","null","","","null","51","NaN","","","","","","","","","","","","","","",""
"","S2","","html-keyboard-response","334","350896","0.0-1.0-463.0","0","0","71312","","null","","","null","51","","NaN","","","","","","","","","","","","","",""
"","response","","html-keyboard-response","335","350998","0.0-1.0-464.0-0.0","0","0","71312","","101","","","68","51","","","2","51","training","adjacent","ED","5","4","O.jpg","L.jpg","1","0","0","",""
"","feedback","","html-keyboard-response","336","352000","0.0-1.0-465.0-0.0","0","0","71312","","null","","","null","51","","","","","","","","","","","","","","","",""
"","time_out","","html-keyboard-response","337","354008","0.0-1.0-467.0-0.0","0","0","71312","","null","","","null","51","","","","","","","","","","","","","","","",""
"","ITI","","html-keyboard-response","338","355011","0.0-1.0-468.0","0","0","71312","","null","","","null","51","","","","","","","","","","","","","","","NaN",""
"","S1","","html-keyboard-response","339","355263","0.0-1.0-470.0","0","0","71312","","null","","","null","52","","","","","","","","","","","","","","","",""
"","ISI","","html-keyboard-response","340","355415","0.0-1.0-471.0","0","0","71312","","null","","","null","52","NaN","","","","","","","","","","","","","","",""
"","S2","","html-keyboard-response","341","355663","0.0-1.0-472.0","0","0","71312","","246","","","75","52","","k","2","52","training","adjacent","GF","7","6","P.jpg","R.jpg","0","0","1","",""
"","feedback","","html-keyboard-response","342","356665","0.0-1.0-474.0-0.0","0","0","71312","","null","","","null","52","","","","","","","","","","","","","","","",""
"","ITI","","html-keyboard-response","343","357667","0.0-1.0-477.0","0","0","71312","","null","","","null","52","","","","","","","","","","","","","","","NaN",""
"","S1","","html-keyboard-response","344","357919","0.0-1.0-479.0","0","0","71312","","null","","","null","53","","","","","","","","","","","","","","","",""
"","ISI","","html-keyboard-response","345","358079","0.0-1.0-480.0","0","0","71312","","null","","","null","53","NaN","","","","","","","","","","","","","","",""
"","S2","","html-keyboard-response","346","358332","0.0-1.0-481.0","0","0","71312","","null","","","null","53","","NaN","","","","","","","","","","","","","",""
"","response","","html-keyboard-response","347","358494","0.0-1.0-482.0-0.0","0","0","71312","","162","","","75","53","","","2","53","training","adjacent","DC","4","3","L.jpg","M.jpg","0","0","1","",""
"","feedback","","html-keyboard-response","348","359505","0.0-1.0-483.0-0.0","0","0","71312","","null","","","null","53","","","","","","","","","","","","","","","",""
"","ITI","","html-keyboard-response","349","360508","0.0-1.0-486.0","0","0","71312","","null","","","null","53","","","","","","","","","","","","","","","NaN",""
"","S1","","html-keyboard-response","350","360760","0.0-1.0-488.0","0","0","71312","","null","","","null","54","","","","","","","","","","","","","","","",""
"","ISI","","html-keyboard-response","351","360913","0.0-1.0-489.0","0","0","71312","","null","","","null","54","NaN","","","","","","","","","","","","","","",""
"","S2","","html-keyboard-response","352","361165","0.0-1.0-490.0","0","0","71312","","null","","","null","54","","NaN","","","","","","","","","","","","","",""
"","response","","html-keyboard-response","353","361272","0.0-1.0-491.0-0.0","0","0","71312","","106","","","75","54","","","2","54","training","adjacent","BA","2","1","Q.jpg","N.jpg","0","0","1","",""
"","feedback","","html-keyboard-response","354","362275","0.0-1.0-492.0-0.0","0","0","71312","","null","","","null","54","","","","","","","","","","","","","","","",""
"","ITI","","html-keyboard-response","355","363277","0.0-1.0-495.0","0","0","71312","","null","","","null","54","","","","","","","","","","","","","","","NaN",""
"","S1","","html-keyboard-response","356","363531","0.0-1.0-497.0","0","0","71312","","null","","","null","55","","","","","","","","","","","","","","","",""
"","ISI","","html-keyboard-response","357","363683","0.0-1.0-498.0","0","0","71312","","null","","","null","55","NaN","","","","","","","","","","","","","","",""
"","S2","","html-keyboard-response","358","363936","0.0-1.0-499.0","0","0","71312","","null","","","null","55","","NaN","","","","","","","","","","","","","",""
"","response","","html-keyboard-response","359","364087","0.0-1.0-500.0-0.0","0","0","71312","","150","","","75","55","","","2","55","training","adjacent","BC","2","3","Q.jpg","M.jpg","0","1","0","",""
"","feedback","","html-keyboard-response","360","365091","0.0-1.0-501.0-0.0","0","0","71312","","null","","","null","55","","","","","","","","","","","","","","","",""
"","time_out","","html-keyboard-response","361","367093","0.0-1.0-503.0-0.0","0","0","71312","","null","","","null","55","","","","","","","","","","","","","","","",""
"","ITI","","html-keyboard-response","362","368095","0.0-1.0-504.0","0","0","71312","","null","","","null","55","","","","","","","","","","","","","","","NaN",""
"","S1","","html-keyboard-response","363","368348","0.0-1.0-506.0","0","0","71312","","null","","","null","56","","","","","","","","","","","","","","","",""
"","ISI","","html-keyboard-response","364","368500","0.0-1.0-507.0","0","0","71312","","null","","","null","56","NaN","","","","","","","","","","","","","","",""
"","S2","","html-keyboard-response","365","368752","0.0-1.0-508.0","0","0","71312","","null","","","null","56","","NaN","","","","","","","","","","","","","",""
"","response","","html-keyboard-response","366","369104","0.0-1.0-509.0-0.0","0","0","71312","","350","","","68","56","","","2","56","training","adjacent","DC","4","3","L.jpg","M.jpg","1","0","0","",""
"","feedback","","html-keyboard-response","367","370107","0.0-1.0-510.0-0.0","0","0","71312","","null","","","null","56","","","","","","","","","","","","","","","",""
"","time_out","","html-keyboard-response","368","372109","0.0-1.0-512.0-0.0","0","0","71312","","null","","","null","56","","","","","","","","","","","","","","","",""
"","ITI","","html-keyboard-response","369","373111","0.0-1.0-513.0","0","0","71312","","null","","","null","56","","","","","","","","","","","","","","","NaN",""
"","S1","","html-keyboard-response","370","373364","0.0-1.0-515.0","0","0","71312","","null","","","null","57","","","","","","","","","","","","","","","",""
"","ISI","","html-keyboard-response","371","373516","0.0-1.0-516.0","0","0","71312","","null","","","null","57","NaN","","","","","","","","","","","","","","",""
"","S2","","html-keyboard-response","372","373769","0.0-1.0-517.0","0","0","71312","","null","","","null","57","","NaN","","","","","","","","","","","","","",""
"","response","","html-keyboard-response","373","373899","0.0-1.0-518.0-0.0","0","0","71312","","129","","","75","57","","","2","57","training","adjacent","AB","1","2","N.jpg","Q.jpg","0","1","0","",""
"","feedback","","html-keyboard-response","374","374901","0.0-1.0-519.0-0.0","0","0","71312","","null","","","null","57","","","","","","","","","","","","","","","",""
"","time_out","","html-keyboard-response","375","376903","0.0-1.0-521.0-0.0","0","0","71312","","null","","","null","57","","","","","","","","","","","","","","","",""
"","ITI","","html-keyboard-response","376","377907","0.0-1.0-522.0","0","0","71312","","null","","","null","57","","","","","","","","","","","","","","","NaN",""
"","S1","","html-keyboard-response","377","378159","0.0-1.0-524.0","0","0","71312","","null","","","null","58","","","","","","","","","","","","","","","",""
"","ISI","","html-keyboard-response","378","378311","0.0-1.0-525.0","0","0","71312","","null","","","null","58","NaN","","","","","","","","","","","","","","",""
"","S2","","html-keyboard-response","379","378563","0.0-1.0-526.0","0","0","71312","","null","","","null","58","","NaN","","","","","","","","","","","","","",""
"","response","","html-keyboard-response","380","378826","0.0-1.0-527.0-0.0","0","0","71312","","261","","","68","58","","","2","58","training","adjacent","CD","3","4","M.jpg","L.jpg","1","1","1","",""
"","feedback","","html-keyboard-response","381","379830","0.0-1.0-528.0-0.0","0","0","71312","","null","","","null","58","","","","","","","","","","","","","","","",""
"","ITI","","html-keyboard-response","382","380832","0.0-1.0-531.0","0","0","71312","","null","","","null","58","","","","","","","","","","","","","","","NaN",""
"","S1","","html-keyboard-response","383","381084","0.0-1.0-533.0","0","0","71312","","null","","","null","59","","","","","","","","","","","","","","","",""
"","ISI","","html-keyboard-response","384","381237","0.0-1.0-534.0","0","0","71312","","null","","","null","59","NaN","","","","","","","","","","","","","","",""
"","S2","","html-keyboard-response","385","381489","0.0-1.0-535.0","0","0","71312","","null","","","null","59","","NaN","","","","","","","","","","","","","",""
"","response","","html-keyboard-response","386","382042","0.0-1.0-536.0-0.0","0","0","71312","","551","","","68","59","","","2","59","training","adjacent","AB","1","2","N.jpg","Q.jpg","1","1","1","",""
"","feedback","","html-keyboard-response","387","383044","0.0-1.0-537.0-0.0","0","0","71312","","null","","","null","59","","","","","","","","","","","","","","","",""
"","ITI","","html-keyboard-response","388","384047","0.0-1.0-540.0","0","0","71312","","null","","","null","59","","","","","","","","","","","","","","","NaN",""
"","S1","","html-keyboard-response","389","384300","0.0-1.0-542.0","0","0","71312","","null","","","null","60","","","","","","","","","","","","","","","",""
"","ISI","","html-keyboard-response","390","384452","0.0-1.0-543.0","0","0","71312","","null","","","null","60","NaN","","","","","","","","","","","","","","",""
"","S2","","html-keyboard-response","391","384705","0.0-1.0-544.0","0","0","71312","","null","","","null","60","","NaN","","","","","","","","","","","","","",""
"","response","","html-keyboard-response","392","385499","0.0-1.0-545.0-0.0","0","0","71312","","794","","","68","60","","","2","60","training","adjacent","CD","3","4","M.jpg","L.jpg","1","1","1","",""
"","feedback","","html-keyboard-response","393","386501","0.0-1.0-546.0-0.0","0","0","71312","","null","","","null","60","","","","","","","","","","","","","","","",""
"","ITI","","html-keyboard-response","394","387504","0.0-1.0-549.0","0","0","71312","","null","","","null","60","","","","","","","","","","","","","","","NaN",""
"","S1","","html-keyboard-response","395","387757","0.0-1.0-551.0","0","0","71312","","null","","","null","61","","","","","","","","","","","","","","","",""
"","ISI","","html-keyboard-response","396","387909","0.0-1.0-552.0","0","0","71312","","null","","","null","61","NaN","","","","","","","","","","","","","","",""
"","S2","","html-keyboard-response","397","388161","0.0-1.0-553.0","0","0","71312","","null","","","null","61","","NaN","","","","","","","","","","","","","",""
"","response","","html-keyboard-response","398","388931","0.0-1.0-554.0-0.0","0","0","71312","","768","","","75","61","","","2","61","training","adjacent","DE","4","5","L.jpg","O.jpg","0","1","0","",""
"","feedback","","html-keyboard-response","399","389934","0.0-1.0-555.0-0.0","0","0","71312","","null","","","null","61","","","","","","","","","","","","","","","",""
"","time_out","","html-keyboard-response","400","391936","0.0-1.0-557.0-0.0","0","0","71312","","null","","","null","61","","","","","","","","","","","","","","","",""
"","ITI","","html-keyboard-response","401","392938","0.0-1.0-558.0","0","0","71312","","null","","","null","61","","","","","","","","","","","","","","","NaN",""
"","S1","","html-keyboard-response","402","393189","0.0-1.0-560.0","0","0","71312","","null","","","null","62","","","","","","","","","","","","","","","",""
"","ISI","","html-keyboard-response","403","393341","0.0-1.0-561.0","0","0","71312","","null","","","null","62","NaN","","","","","","","","","","","","","","",""
"","S2","","html-keyboard-response","404","393593","0.0-1.0-562.0","0","0","71312","","null","","","null","62","","NaN","","","","","","","","","","","","","",""
"","response","","html-keyboard-response","405","393988","0.0-1.0-563.0-0.0","0","0","71312","","393","","","68","62","","","2","62","training","adjacent","AB","1","2","N.jpg","Q.jpg","1","1","1","",""
"","feedback","","html-keyboard-response","406","394990","0.0-1.0-564.0-0.0","0","0","71312","","null","","","null","62","","","","","","","","","","","","","","","",""
"","ITI","","html-keyboard-response","407","395992","0.0-1.0-567.0","0","0","71312","","null","","","null","62","","","","","","","","","","","","","","","NaN",""
"","S1","","html-keyboard-response","408","396244","0.0-1.0-569.0","0","0","71312","","null","","","null","63","","","","","","","","","","","","","","","",""
"","ISI","","html-keyboard-response","409","396397","0.0-1.0-570.0","0","0","71312","","null","","","null","63","NaN","","","","","","","","","","","","","","",""
"","S2","","html-keyboard-response","410","396649","0.0-1.0-571.0","0","0","71312","","null","","","null","63","","NaN","","","","","","","","","","","","","",""
"","response","","html-keyboard-response","411","396757","0.0-1.0-572.0-0.0","0","0","71312","","107","","","68","63","","","2","63","training","adjacent","ED","5","4","O.jpg","L.jpg","1","0","0","",""
"","feedback","","html-keyboard-response","412","397759","0.0-1.0-573.0-0.0","0","0","71312","","null","","","null","63","","","","","","","","","","","","","","","",""
"","time_out","","html-keyboard-response","413","399762","0.0-1.0-575.0-0.0","0","0","71312","","null","","","null","63","","","","","","","","","","","","","","","",""
"","ITI","","html-keyboard-response","414","400764","0.0-1.0-576.0","0","0","71312","","null","","","null","63","","","","","","","","","","","","","","","NaN",""
"","S1","","html-keyboard-response","415","401017","0.0-1.0-578.0","0","0","71312","","null","","","null","64","","","","","","","","","","","","","","","",""
"","ISI","","html-keyboard-response","416","401168","0.0-1.0-579.0","0","0","71312","","null","","","null","64","NaN","","","","","","","","","","","","","","",""
"","S2","","html-keyboard-response","417","401421","0.0-1.0-580.0","0","0","71312","","null","","","null","64","","NaN","","","","","","","","","","","","","",""
"","response","","html-keyboard-response","418","401726","0.0-1.0-581.0-0.0","0","0","71312","","304","","","75","64","","","2","64","training","adjacent","GF","7","6","P.jpg","R.jpg","0","0","1","",""
"","feedback","","html-keyboard-response","419","402729","0.0-1.0-582.0-0.0","0","0","71312","","null","","","null","64","","","","","","","","","","","","","","","",""
"","ITI","","html-keyboard-response","420","403731","0.0-1.0-585.0","0","0","71312","","null","","","null","64","","","","","","","","","","","","","","","NaN",""
"","S1","","html-keyboard-response","421","403984","0.0-1.0-587.0","0","0","71312","","null","","","null","65","","","","","","","","","","","","","","","",""
"","ISI","","html-keyboard-response","422","404137","0.0-1.0-588.0","0","0","71312","","null","","","null","65","NaN","","","","","","","","","","","","","","",""
"","S2","","html-keyboard-response","423","404389","0.0-1.0-589.0","0","0","71312","","null","","","null","65","","NaN","","","","","","","","","","","","","",""
"","response","","html-keyboard-response","424","404589","0.0-1.0-590.0-0.0","0","0","71312","","198","","","68","65","","","2","65","training","adjacent","ED","5","4","O.jpg","L.jpg","1","0","0","",""
"","feedback","","html-keyboard-response","425","405592","0.0-1.0-591.0-0.0","0","0","71312","","null","","","null","65","","","","","","","","","","","","","","","",""
"","time_out","","html-keyboard-response","426","407594","0.0-1.0-593.0-0.0","0","0","71312","","null","","","null","65","","","","","","","","","","","","","","","",""
"","ITI","","html-keyboard-response","427","408596","0.0-1.0-594.0","0","0","71312","","null","","","null","65","","","","","","","","","","","","","","","NaN",""
"","S1","","html-keyboard-response","428","408849","0.0-1.0-596.0","0","0","71312","","null","","","null","66","","","","","","","","","","","","","","","",""
"","ISI","","html-keyboard-response","429","409001","0.0-1.0-597.0","0","0","71312","","null","","","null","66","NaN","","","","","","","","","","","","","","",""
"","S2","","html-keyboard-response","430","409253","0.0-1.0-598.0","0","0","71312","","null","","","null","66","","NaN","","","","","","","","","","","","","",""
"","response","","html-keyboard-response","431","409375","0.0-1.0-599.0-0.0","0","0","71312","","121","","","75","66","","","2","66","training","adjacent","BC","2","3","Q.jpg","M.jpg","0","1","0","",""
"","feedback","","html-keyboard-response","432","410378","0.0-1.0-600.0-0.0","0","0","71312","","null","","","null","66","","","","","","","","","","","","","","","",""
"","time_out","","html-keyboard-response","433","412381","0.0-1.0-602.0-0.0","0","0","71312","","null","","","null","66","","","","","","","","","","","","","","","",""
"","ITI","","html-keyboard-response","434","413384","0.0-1.0-603.0","0","0","71312","","null","","","null","66","","","","","","","","","","","","","","","NaN",""
"","S1","","html-keyboard-response","435","413636","0.0-1.0-605.0","0","0","71312","","null","","","null","67","","","","","","","","","","","","","","","",""
"","ISI","","html-keyboard-response","436","413788","0.0-1.0-606.0","0","0","71312","","null","","","null","67","NaN","","","","","","","","","","","","","","",""
"","S2","","html-keyboard-response","437","414015","0.0-1.0-607.0","0","0","71312","","225","","","75","67","","k","2","67","training","adjacent","FE","6","5","R.jpg","O.jpg","0","0","1","",""
"","feedback","","html-keyboard-response","438","415017","0.0-1.0-609.0-0.0","0","0","71312","","null","","","null","67","","","","","","","","","","","","","","","",""
"","ITI","","html-keyboard-response","439","416019","0.0-1.0-612.0","0","0","71312","","null","","","null","67","","","","","","","","","","","","","","","NaN",""
"","S1","","html-keyboard-response","440","416272","0.0-1.0-614.0","0","0","71312","","null","","","null","68","","","","","","","","","","","","","","","",""
"","ISI","","html-keyboard-response","441","416424","0.0-1.0-615.0","0","0","71312","","null","","","null","68","NaN","","","","","","","","","","","","","","",""
"","S2","","html-keyboard-response","442","416647","0.0-1.0-616.0","0","0","71312","","222","","","75","68","","k","2","68","training","adjacent","FG","6","7","R.jpg","P.jpg","0","1","0","",""
"","feedback","","html-keyboard-response","443","417649","0.0-1.0-618.0-0.0","0","0","71312","","null","","","null","68","","","","","","","","","","","","","","","",""
"","time_out","","html-keyboard-response","444","419652","0.0-1.0-620.0-0.0","0","0","71312","","null","","","null","68","","","","","","","","","","","","","","","",""
"","ITI","","html-keyboard-response","445","420654","0.0-1.0-621.0","0","0","71312","","null","","","null","68","","","","","","","","","","","","","","","NaN",""
"","S1","","html-keyboard-response","446","420907","0.0-1.0-623.0","0","0","71312","","null","","","null","69","","","","","","","","","","","","","","","",""
"","ISI","","html-keyboard-response","447","421059","0.0-1.0-624.0","0","0","71312","","null","","","null","69","NaN","","","","","","","","","","","","","","",""
"","S2","","html-keyboard-response","448","421313","0.0-1.0-625.0","0","0","71312","","null","","","null","69","","NaN","","","","","","","","","","","","","",""
"","response","","html-keyboard-response","449","421386","0.0-1.0-626.0-0.0","0","0","71312","","70","","","68","69","","","2","69","training","adjacent","DC","4","3","L.jpg","M.jpg","1","0","0","",""
"","feedback","","html-keyboard-response","450","422389","0.0-1.0-627.0-0.0","0","0","71312","","null","","","null","69","","","","","","","","","","","","","","","",""
"","time_out","","html-keyboard-response","451","424392","0.0-1.0-629.0-0.0","0","0","71312","","null","","","null","69","","","","","","","","","","","","","","","",""
"","ITI","","html-keyboard-response","452","425395","0.0-1.0-630.0","0","0","71312","","null","","","null","69","","","","","","","","","","","","","","","NaN",""
"","S1","","html-keyboard-response","453","425648","0.0-1.0-632.0","0","0","71312","","null","","","null","70","","","","","","","","","","","","","","","",""
"","ISI","","html-keyboard-response","454","425801","0.0-1.0-633.0","0","0","71312","","null","","","null","70","NaN","","","","","","","","","","","","","","",""
"","S2","","html-keyboard-response","455","426054","0.0-1.0-634.0","0","0","71312","","null","","","null","70","","NaN","","","","","","","","","","","","","",""
"","response","","html-keyboard-response","456","426088","0.0-1.0-635.0-0.0","0","0","71312","","34","","","75","70","","","2","70","training","adjacent","ED","5","4","O.jpg","L.jpg","0","0","1","",""
"","feedback","","html-keyboard-response","457","427090","0.0-1.0-636.0-0.0","0","0","71312","","null","","","null","70","","","","","","","","","","","","","","","",""
"","ITI","","html-keyboard-response","458","428093","0.0-1.0-639.0","0","0","71312","","null","","","null","70","","","","","","","","","","","","","","","NaN",""
"","S1","","html-keyboard-response","459","428346","0.0-1.0-641.0","0","0","71312","","null","","","null","71","","","","","","","","","","","","","","","",""
"","ISI","","html-keyboard-response","460","428499","0.0-1.0-642.0","0","0","71312","","null","","","null","71","NaN","","","","","","","","","","","","","","",""
"","S2","","html-keyboard-response","461","428752","0.0-1.0-643.0","0","0","71312","","null","","","null","71","","NaN","","","","","","","","","","","","","",""
"","response","","html-keyboard-response","462","428899","0.0-1.0-644.0-0.0","0","0","71312","","144","","","75","71","","","2","71","training","adjacent","EF","5","6","O.jpg","R.jpg","0","1","0","",""
"","feedback","","html-keyboard-response","463","429902","0.0-1.0-645.0-0.0","0","0","71312","","null","","","null","71","","","","","","","","","","","","","","","",""
"","time_out","","html-keyboard-response","464","431904","0.0-1.0-647.0-0.0","0","0","71312","","null","","","null","71","","","","","","","","","","","","","","","",""
"","ITI","","html-keyboard-response","465","432907","0.0-1.0-648.0","0","0","71312","","null","","","null","71","","","","","","","","","","","","","","","NaN",""
"","S1","","html-keyboard-response","466","433158","0.0-1.0-650.0","0","0","71312","","null","","","null","72","","","","","","","","","","","","","","","",""
"","ISI","","html-keyboard-response","467","433311","0.0-1.0-651.0","0","0","71312","","null","","","null","72","NaN","","","","","","","","","","","","","","",""
"","S2","","html-keyboard-response","468","433563","0.0-1.0-652.0","0","0","71312","","null","","","null","72","","NaN","","","","","","","","","","","","","",""
"","response","","html-keyboard-response","469","433675","0.0-1.0-653.0-0.0","0","0","71312","","110","","","75","72","","","2","72","training","adjacent","BC","2","3","Q.jpg","M.jpg","0","1","0","",""
"","feedback","","html-keyboard-response","470","434677","0.0-1.0-654.0-0.0","0","0","71312","","null","","","null","72","","","","","","","","","","","","","","","",""
"","time_out","","html-keyboard-response","471","436679","0.0-1.0-656.0-0.0","0","0","71312","","null","","","null","72","","","","","","","","","","","","","","","",""
"","ITI","","html-keyboard-response","472","437682","0.0-1.0-657.0","0","0","71312","","null","","","null","72","","","","","","","","","","","","","","","NaN",""
"","S1","","html-keyboard-response","473","437935","0.0-1.0-659.0","0","0","71312","","null","","","null","73","","","","","","","","","","","","","","","",""
"","ISI","","html-keyboard-response","474","438086","0.0-1.0-660.0","0","0","71312","","null","","","null","73","NaN","","","","","","","","","","","","","","",""
"","S2","","html-keyboard-response","475","438338","0.0-1.0-661.0","0","0","71312","","null","","","null","73","","NaN","","","","","","","","","","","","","",""
"","response","","html-keyboard-response","476","438396","0.0-1.0-662.0-0.0","0","0","71312","","55","","","75","73","","","2","73","training","adjacent","GF","7","6","P.jpg","R.jpg","0","0","1","",""
"","feedback","","html-keyboard-response","477","439398","0.0-1.0-663.0-0.0","0","0","71312","","null","","","null","73","","","","","","","","","","","","","","","",""
"","ITI","","html-keyboard-response","478","440400","0.0-1.0-666.0","0","0","71312","","null","","","null","73","","","","","","","","","","","","","","","NaN",""
"","S1","","html-keyboard-response","479","440653","0.0-1.0-668.0","0","0","71312","","null","","","null","74","","","","","","","","","","","","","","","",""
"","ISI","","html-keyboard-response","480","440805","0.0-1.0-669.0","0","0","71312","","null","","","null","74","NaN","","","","","","","","","","","","","","",""
"","S2","","html-keyboard-response","481","441058","0.0-1.0-670.0","0","0","71312","","null","","","null","74","","NaN","","","","","","","","","","","","","",""
"","response","","html-keyboard-response","482","441300","0.0-1.0-671.0-0.0","0","0","71312","","240","","","68","74","","","2","74","training","adjacent","CB","3","2","M.jpg","Q.jpg","1","0","0","",""
"","feedback","","html-keyboard-response","483","442303","0.0-1.0-672.0-0.0","0","0","71312","","null","","","null","74","","","","","","","","","","","","","","","",""
"","time_out","","html-keyboard-response","484","444306","0.0-1.0-674.0-0.0","0","0","71312","","null","","","null","74","","","","","","","","","","","","","","","",""
"","ITI","","html-keyboard-response","485","445309","0.0-1.0-675.0","0","0","71312","","null","","","null","74","","","","","","","","","","","","","","","NaN",""
"","S1","","html-keyboard-response","486","445561","0.0-1.0-677.0","0","0","71312","","null","","","null","75","","","","","","","","","","","","","","","",""
"","ISI","","html-keyboard-response","487","445713","0.0-1.0-678.0","0","0","71312","","null","","","null","75","NaN","","","","","","","","","","","","","","",""
"","S2","","html-keyboard-response","488","445902","0.0-1.0-679.0","0","0","71312","","188","","","75","75","","k","2","75","training","adjacent","BA","2","1","Q.jpg","N.jpg","0","0","1","",""
"","feedback","","html-keyboard-response","489","446904","0.0-1.0-681.0-0.0","0","0","71312","","null","","","null","75","","","","","","","","","","","","","","","",""
"","ITI","","html-keyboard-response","490","447907","0.0-1.0-684.0","0","0","71312","","null","","","null","75","","","","","","","","","","","","","","","NaN",""
"","S1","","html-keyboard-response","491","448159","0.0-1.0-686.0","0","0","71312","","null","","","null","76","","","","","","","","","","","","","","","",""
"","ISI","","html-keyboard-response","492","448311","0.0-1.0-687.0","0","0","71312","","null","","","null","76","NaN","","","","","","","","","","","","","","",""
"","S2","","html-keyboard-response","493","448564","0.0-1.0-688.0","0","0","71312","","null","","","null","76","","NaN","","","","","","","","","","","","","",""
"","response","","html-keyboard-response","494","448643","0.0-1.0-689.0-0.0","0","0","71312","","79","","","75","76","","","2","76","training","adjacent","EF","5","6","O.jpg","R.jpg","0","1","0","",""
"","feedback","","html-keyboard-response","495","449645","0.0-1.0-690.0-0.0","0","0","71312","","null","","","null","76","","","","","","","","","","","","","","","",""
"","time_out","","html-keyboard-response","496","451648","0.0-1.0-692.0-0.0","0","0","71312","","null","","","null","76","","","","","","","","","","","","","","","",""
"","ITI","","html-keyboard-response","497","452650","0.0-1.0-693.0","0","0","71312","","null","","","null","76","","","","","","","","","","","","","","","NaN",""
"","S1","","html-keyboard-response","498","452902","0.0-1.0-695.0","0","0","71312","","null","","","null","77","","","","","","","","","","","","","","","",""
"","ISI","","html-keyboard-response","499","453054","0.0-1.0-696.0","0","0","71312","","null","","","null","77","NaN","","","","","","","","","","","","","","",""
"","S2","","html-keyboard-response","500","453307","0.0-1.0-697.0","0","0","71312","","null","","","null","77","","NaN","","","","","","","","","","","","","",""
"","response","","html-keyboard-response","501","453565","0.0-1.0-698.0-0.0","0","0","71312","","256","","","68","77","","","2","77","training","adjacent","FE","6","5","R.jpg","O.jpg","1","0","0","",""
"","feedback","","html-keyboard-response","502","454568","0.0-1.0-699.0-0.0","0","0","71312","","null","","","null","77","","","","","","","","","","","","","","","",""
"","time_out","","html-keyboard-response","503","456570","0.0-1.0-701.0-0.0","0","0","71312","","null","","","null","77","","","","","","","","","","","","","","","",""
"","ITI","","html-keyboard-response","504","457573","0.0-1.0-702.0","0","0","71312","","null","","","null","77","","","","","","","","","","","","","","","NaN",""
"","S1","","html-keyboard-response","505","457825","0.0-1.0-704.0","0","0","71312","","null","","","null","78","","","","","","","","","","","","","","","",""
"","ISI","","html-keyboard-response","506","457978","0.0-1.0-705.0","0","0","71312","","null","","","null","78","NaN","","","","","","","","","","","","","","",""
"","S2","","html-keyboard-response","507","458231","0.0-1.0-706.0","0","0","71312","","null","","","null","78","","NaN","","","","","","","","","","","","","",""
"","response","","html-keyboard-response","508","458246","0.0-1.0-707.0-0.0","0","0","71312","","14","","","75","78","","","2","78","training","adjacent","BC","2","3","Q.jpg","M.jpg","0","1","0","",""
"","feedback","","html-keyboard-response","509","459249","0.0-1.0-708.0-0.0","0","0","71312","","null","","","null","78","","","","","","","","","","","","","","","",""
"","time_out","","html-keyboard-response","510","461251","0.0-1.0-710.0-0.0","0","0","71312","","null","","","null","78","","","","","","","","","","","","","","","",""
"","ITI","","html-keyboard-response","511","462253","0.0-1.0-711.0","0","0","71312","","null","","","null","78","","","","","","","","","","","","","","","NaN",""
"","S1","","html-keyboard-response","512","462506","0.0-1.0-713.0","0","0","71312","","null","","","null","79","","","","","","","","","","","","","","","",""
"","ISI","","html-keyboard-response","513","462662","0.0-1.0-714.0","0","0","71312","","155","","","68","79","d","","","","","","","","","","","","","","",""
"","S2","","html-keyboard-response","514","462915","0.0-1.0-715.0","0","0","71312","","null","","","null","79","","NaN","","","","","","","","","","","","","",""
"","response","","html-keyboard-response","515","464151","0.0-1.0-716.0-0.0","0","0","71312","","1235","","","68","79","","","2","79","training","adjacent","FG","6","7","R.jpg","P.jpg","1","1","1","",""
"","feedback","","html-keyboard-response","516","465153","0.0-1.0-717.0-0.0","0","0","71312","","null","","","null","79","","","","","","","","","","","","","","","",""
"","ITI","","html-keyboard-response","517","466156","0.0-1.0-720.0","0","0","71312","","null","","","null","79","","","","","","","","","","","","","","","NaN",""
"","S1","","html-keyboard-response","518","466409","0.0-1.0-722.0","0","0","71312","","null","","","null","80","","","","","","","","","","","","","","","",""
"","ISI","","html-keyboard-response","519","466561","0.0-1.0-723.0","0","0","71312","","null","","","null","80","NaN","","","","","","","","","","","","","","",""
"","S2","","html-keyboard-response","520","466814","0.0-1.0-724.0","0","0","71312","","null","","","null","80","","NaN","","","","","","","","","","","","","",""
"","response","","html-keyboard-response","521","467160","0.0-1.0-725.0-0.0","0","0","71312","","344","","","75","80","","","2","80","training","adjacent","AB","1","2","N.jpg","Q.jpg","0","1","0","",""
"","feedback","","html-keyboard-response","522","468176","0.0-1.0-726.0-0.0","0","0","71312","","null","","","null","80","","","","","","","","","","","","","","","",""
"","time_out","","html-keyboard-response","523","470180","0.0-1.0-728.0-0.0","0","0","71312","","null","","","null","80","","","","","","","","","","","","","","","",""
"","ITI","","html-keyboard-response","524","471183","0.0-1.0-729.0","0","0","71312","","null","","","null","80","","","","","","","","","","","","","","","NaN",""
"","S1","","html-keyboard-response","525","471435","0.0-1.0-731.0","0","0","71312","","null","","","null","81","","","","","","","","","","","","","","","",""
"","ISI","","html-keyboard-response","526","471600","0.0-1.0-732.0","0","0","71312","","null","","","null","81","NaN","","","","","","","","","","","","","","",""
"","S2","","html-keyboard-response","527","471853","0.0-1.0-733.0","0","0","71312","","null","","","null","81","","NaN","","","","","","","","","","","","","",""
"","response","","html-keyboard-response","528","471968","0.0-1.0-734.0-0.0","0","0","71312","","115","","","68","81","","","2","81","training","adjacent","CD","3","4","M.jpg","L.jpg","1","1","1","",""
"","feedback","","html-keyboard-response","529","472971","0.0-1.0-735.0-0.0","0","0","71312","","null","","","null","81","","","","","","","","","","","","","","","",""
"","ITI","","html-keyboard-response","530","473974","0.0-1.0-738.0","0","0","71312","","null","","","null","81","","","","","","","","","","","","","","","NaN",""
"","S1","","html-keyboard-response","531","474227","0.0-1.0-740.0","0","0","71312","","null","","","null","82","","","","","","","","","","","","","","","",""
"","ISI","","html-keyboard-response","532","474380","0.0-1.0-741.0","0","0","71312","","null","","","null","82","NaN","","","","","","","","","","","","","","",""
"","S2","","html-keyboard-response","533","474632","0.0-1.0-742.0","0","0","71312","","null","","","null","82","","NaN","","","","","","","","","","","","","",""
"","response","","html-keyboard-response","534","474952","0.0-1.0-743.0-0.0","0","0","71312","","318","","","68","82","","","2","82","training","adjacent","FG","6","7","R.jpg","P.jpg","1","1","1","",""
"","feedback","","html-keyboard-response","535","475954","0.0-1.0-744.0-0.0","0","0","71312","","null","","","null","82","","","","","","","","","","","","","","","",""
"","ITI","","html-keyboard-response","536","476956","0.0-1.0-747.0","0","0","71312","","null","","","null","82","","","","","","","","","","","","","","","NaN",""
"","S1","","html-keyboard-response","537","477209","0.0-1.0-749.0","0","0","71312","","null","","","null","83","","","","","","","","","","","","","","","",""
"","ISI","","html-keyboard-response","538","477362","0.0-1.0-750.0","0","0","71312","","null","","","null","83","NaN","","","","","","","","","","","","","","",""
"","S2","","html-keyboard-response","539","477614","0.0-1.0-751.0","0","0","71312","","null","","","null","83","","NaN","","","","","","","","","","","","","",""
"","response","","html-keyboard-response","540","478024","0.0-1.0-752.0-0.0","0","0","71312","","409","","","75","83","","","2","83","training","adjacent","GF","7","6","P.jpg","R.jpg","0","0","1","",""
"","feedback","","html-keyboard-response","541","479028","0.0-1.0-753.0-0.0","0","0","71312","","null","","","null","83","","","","","","","","","","","","","","","",""
"","ITI","","html-keyboard-response","542","480030","0.0-1.0-756.0","0","0","71312","","null","","","null","83","","","","","","","","","","","","","","","NaN",""
"","S1","","html-keyboard-response","543","480283","0.0-1.0-758.0","0","0","71312","","null","","","null","84","","","","","","","","","","","","","","","",""
"","ISI","","html-keyboard-response","544","480436","0.0-1.0-759.0","0","0","71312","","null","","","null","84","NaN","","","","","","","","","","","","","","",""
"","S2","","html-keyboard-response","545","480689","0.0-1.0-760.0","0","0","71312","","null","","","null","84","","NaN","","","","","","","","","","","","","",""
"","response","","html-keyboard-response","546","481033","0.0-1.0-761.0-0.0","0","0","71312","","343","","","68","84","","","2","84","training","adjacent","CB","3","2","M.jpg","Q.jpg","1","0","0","",""
"","feedback","","html-keyboard-response","547","482037","0.0-1.0-762.0-0.0","0","0","71312","","null","","","null","84","","","","","","","","","","","","","","","",""
"","time_out","","html-keyboard-response","548","484053","0.0-1.0-764.0-0.0","0","0","71312","","null","","","null","84","","","","","","","","","","","","","","","",""
"","ITI","","html-keyboard-response","549","485056","0.0-1.0-765.0","0","0","71312","","null","","","null","84","","","","","","","","","","","","","","","NaN",""
"","S1","","html-keyboard-response","550","485308","0.0-1.0-767.0","0","0","71312","","null","","","null","85","","","","","","","","","","","","","","","",""
"","ISI","","html-keyboard-response","551","485460","0.0-1.0-768.0","0","0","71312","","null","","","null","85","NaN","","","","","","","","","","","","","","",""
"","S2","","html-keyboard-response","552","485713","0.0-1.0-769.0","0","0","71312","","null","","","null","85","","NaN","","","","","","","","","","","","","",""
"","response","","html-keyboard-response","553","485946","0.0-1.0-770.0-0.0","0","0","71312","","233","","","68","85","","","2","85","training","adjacent","DC","4","3","L.jpg","M.jpg","1","0","0","",""
"","feedback","","html-keyboard-response","554","486959","0.0-1.0-771.0-0.0","0","0","71312","","null","","","null","85","","","","","","","","","","","","","","","",""
"","time_out","","html-keyboard-response","555","488963","0.0-1.0-773.0-0.0","0","0","71312","","null","","","null","85","","","","","","","","","","","","","","","",""
"","ITI","","html-keyboard-response","556","489964","0.0-1.0-774.0","0","0","71312","","null","","","null","85","","","","","","","","","","","","","","","NaN",""
"","S1","","html-keyboard-response","557","490229","0.0-1.0-776.0","0","0","71312","","null","","","null","86","","","","","","","","","","","","","","","",""
"","ISI","","html-keyboard-response","558","490381","0.0-1.0-777.0","0","0","71312","","null","","","null","86","NaN","","","","","","","","","","","","","","",""
"","S2","","html-keyboard-response","559","490634","0.0-1.0-778.0","0","0","71312","","null","","","null","86","","NaN","","","","","","","","","","","","","",""
"","response","","html-keyboard-response","560","490778","0.0-1.0-779.0-0.0","0","0","71312","","143","","","68","86","","","2","86","training","adjacent","DE","4","5","L.jpg","O.jpg","1","1","1","",""
"","feedback","","html-keyboard-response","561","491780","0.0-1.0-780.0-0.0","0","0","71312","","null","","","null","86","","","","","","","","","","","","","","","",""
"","ITI","","html-keyboard-response","562","492782","0.0-1.0-783.0","0","0","71312","","null","","","null","86","","","","","","","","","","","","","","","NaN",""
"","S1","","html-keyboard-response","563","493035","0.0-1.0-785.0","0","0","71312","","null","","","null","87","","","","","","","","","","","","","","","",""
"","ISI","","html-keyboard-response","564","493187","0.0-1.0-786.0","0","0","71312","","null","","","null","87","NaN","","","","","","","","","","","","","","",""
"","S2","","html-keyboard-response","565","493439","0.0-1.0-787.0","0","0","71312","","null","","","null","87","","NaN","","","","","","","","","","","","","",""
"","response","","html-keyboard-response","566","493987","0.0-1.0-788.0-0.0","0","0","71312","","546","","","75","87","","","2","87","training","adjacent","FE","6","5","R.jpg","O.jpg","0","0","1","",""
"","feedback","","html-keyboard-response","567","494989","0.0-1.0-789.0-0.0","0","0","71312","","null","","","null","87","","","","","","","","","","","","","","","",""
"","ITI","","html-keyboard-response","568","495991","0.0-1.0-792.0","0","0","71312","","null","","","null","87","","","","","","","","","","","","","","","NaN",""
"","S1","","html-keyboard-response","569","496244","0.0-1.0-794.0","0","0","71312","","null","","","null","88","","","","","","","","","","","","","","","",""
"","ISI","","html-keyboard-response","570","496399","0.0-1.0-795.0","0","0","71312","","null","","","null","88","NaN","","","","","","","","","","","","","","",""
"","S2","","html-keyboard-response","571","496652","0.0-1.0-796.0","0","0","71312","","null","","","null","88","","NaN","","","","","","","","","","","","","",""
"","response","","html-keyboard-response","572","497037","0.0-1.0-797.0-0.0","0","0","71312","","384","","","68","88","","","2","88","training","adjacent","DE","4","5","L.jpg","O.jpg","1","1","1","",""
"","feedback","","html-keyboard-response","573","498042","0.0-1.0-798.0-0.0","0","0","71312","","null","","","null","88","","","","","","","","","","","","","","","",""
"","ITI","","html-keyboard-response","574","499049","0.0-1.0-801.0","0","0","71312","","null","","","null","88","","","","","","","","","","","","","","","NaN",""
"","S1","","html-keyboard-response","575","499301","0.0-1.0-803.0","0","0","71312","","null","","","null","89","","","","","","","","","","","","","","","",""
"","ISI","","html-keyboard-response","576","499453","0.0-1.0-804.0","0","0","71312","","null","","","null","89","NaN","","","","","","","","","","","","","","",""
"","S2","","html-keyboard-response","577","499706","0.0-1.0-805.0","0","0","71312","","null","","","null","89","","NaN","","","","","","","","","","","","","",""
"","response","","html-keyboard-response","578","499892","0.0-1.0-806.0-0.0","0","0","71312","","184","","","75","89","","","2","89","training","adjacent","BA","2","1","Q.jpg","N.jpg","0","0","1","",""
"","feedback","","html-keyboard-response","579","500895","0.0-1.0-807.0-0.0","0","0","71312","","null","","","null","89","","","","","","","","","","","","","","","",""
"","ITI","","html-keyboard-response","580","501898","0.0-1.0-810.0","0","0","71312","","null","","","null","89","","","","","","","","","","","","","","","NaN",""
"","S1","","html-keyboard-response","581","502150","0.0-1.0-812.0","0","0","71312","","null","","","null","90","","","","","","","","","","","","","","","",""
"","ISI","","html-keyboard-response","582","502301","0.0-1.0-813.0","0","0","71312","","null","","","null","90","NaN","","","","","","","","","","","","","","",""
"","S2","","html-keyboard-response","583","502554","0.0-1.0-814.0","0","0","71312","","null","","","null","90","","NaN","","","","","","","","","","","","","",""
