"success","ttype","start_time","trial_type","trial_index","time_elapsed","internal_node_id","warning","missed_checkup","PID","view_history","rt","responses","repeat_instructions","key_press","index","keypress_isi","keypress_S2","block","trial_num","phase","group_type","pair_type","S1_stim","S2_stim","S1_img","S2_img","S1_chosen","S1_higher","accuracy","keypress_iti","total_bonus_tally"
"true","full_screen","d08012022hr1633","fullscreen","0","23692","0.0-0.0","0","0","48950","","","","","","","","","","","","","","","","","","","","","",""
"","instructions","","instructions","1","93972","0.0-1.0-0.0-0.0","0","0","48950","[{""page_index"":0,""viewing_time"":10893},{""page_index"":1,""viewing_time"":25567},{""page_index"":2,""viewing_time"":24743},{""page_index"":3,""viewing_time"":3727},{""page_index"":2,""viewing_time"":2888},{""page_index"":3,""viewing_time"":2460}]","70278","","","","","","","","","","","","","","","","","","","",""
"","comprehension_check","","survey-multi-choice","2","116134","0.0-1.0-0.0-1.0","0","0","48950","","22159","{""Q0"":""True"",""Q1"":""D"",""Q2"":""When you see the prompt 'MAKE A CHOICE' after the second image was presented"",""Q3"":""Green mark"",""Q4"":""either D or K""}","0","","","","","","","","","","","","","","","","","",""
"","start_exp","","html-keyboard-response","3","126248","0.0-1.0-1.0","0","0","48950","","10111","","","32","","","","","","","","","","","","","","","","",""
"","S1","","html-keyboard-response","4","126500","0.0-1.0-2.0","0","0","48950","","null","","","null","0","","","","","","","","","","","","","","","",""
"","ISI","","html-keyboard-response","5","128502","0.0-1.0-3.0","0","0","48950","","null","","","null","0","NaN","","","","","","","","","","","","","","",""
"","S2","","html-keyboard-response","6","128754","0.0-1.0-4.0","0","0","48950","","null","","","null","0","","NaN","","","","","","","","","","","","","",""
"","response","","html-keyboard-response","7","129281","0.0-1.0-5.0","0","0","48950","","526","","","75","0","","","1","0","training","adjacent","EF","5","6","P.jpg","R.jpg","0","1","0","",""
"","feedback","","html-keyboard-response","8","130287","0.0-1.0-6.0-0.0","0","0","48950","","null","","","null","0","","","","","","","","","","","","","","","",""
"","time_out","","html-keyboard-response","9","132288","0.0-1.0-8.0-0.0","0","0","48950","","null","","","null","0","","","","","","","","","","","","","","","",""
"","ITI","","html-keyboard-response","10","133290","0.0-1.0-9.0","0","0","48950","","null","","","null","0","","","","","","","","","","","","","","","NaN",""
"","S1","","html-keyboard-response","11","133541","0.0-1.0-11.0","0","0","48950","","null","","","null","1","","","","","","","","","","","","","","","",""
"","ISI","","html-keyboard-response","12","135543","0.0-1.0-12.0","0","0","48950","","null","","","null","1","NaN","","","","","","","","","","","","","","",""
"","S2","","html-keyboard-response","13","135795","0.0-1.0-13.0","0","0","48950","","null","","","null","1","","NaN","","","","","","","","","","","","","",""
"","response","","html-keyboard-response","14","136309","0.0-1.0-14.0","0","0","48950","","514","","","68","1","","","1","1","training","adjacent","DC","4","3","M.jpg","L.jpg","1","0","0","",""
"","feedback","","html-keyboard-response","15","137312","0.0-1.0-15.0-0.0","0","0","48950","","null","","","null","1","","","","","","","","","","","","","","","",""
"","time_out","","html-keyboard-response","16","139313","0.0-1.0-17.0-0.0","0","0","48950","","null","","","null","1","","","","","","","","","","","","","","","",""
"","ITI","","html-keyboard-response","17","140315","0.0-1.0-18.0","0","0","48950","","null","","","null","1","","","","","","","","","","","","","","","NaN",""
"","S1","","html-keyboard-response","18","140569","0.0-1.0-20.0","0","0","48950","","null","","","null","2","","","","","","","","","","","","","","","",""
"","ISI","","html-keyboard-response","19","142576","0.0-1.0-21.0","0","0","48950","","null","","","null","2","NaN","","","","","","","","","","","","","","",""
"","S2","","html-keyboard-response","20","142828","0.0-1.0-22.0","0","0","48950","","null","","","null","2","","NaN","","","","","","","","","","","","","",""
"","response","","html-keyboard-response","21","143153","0.0-1.0-23.0","0","0","48950","","324","","","68","2","","","1","2","training","adjacent","AB","1","2","Q.jpg","N.jpg","1","1","1","",""
"","feedback","","html-keyboard-response","22","144155","0.0-1.0-24.0-0.0","0","0","48950","","null","","","null","2","","","","","","","","","","","","","","","",""
"","ITI","","html-keyboard-response","23","145157","0.0-1.0-27.0","0","0","48950","","null","","","null","2","","","","","","","","","","","","","","","NaN",""
"","S1","","html-keyboard-response","24","145409","0.0-1.0-29.0","0","0","48950","","null","","","null","3","","","","","","","","","","","","","","","",""
"","ISI","","html-keyboard-response","25","147410","0.0-1.0-30.0","0","0","48950","","null","","","null","3","NaN","","","","","","","","","","","","","","",""
"","S2","","html-keyboard-response","26","147664","0.0-1.0-31.0","0","0","48950","","null","","","null","3","","NaN","","","","","","","","","","","","","",""
"","response","","html-keyboard-response","27","148121","0.0-1.0-32.0","0","0","48950","","457","","","75","3","","","1","3","training","adjacent","FE","6","5","R.jpg","P.jpg","0","0","1","",""
"","feedback","","html-keyboard-response","28","149123","0.0-1.0-33.0-0.0","0","0","48950","","null","","","null","3","","","","","","","","","","","","","","","",""
"","ITI","","html-keyboard-response","29","150124","0.0-1.0-36.0","0","0","48950","","null","","","null","3","","","","","","","","","","","","","","","NaN",""
"","S1","","html-keyboard-response","30","150376","0.0-1.0-38.0","0","0","48950","","null","","","null","4","","","","","","","","","","","","","","","",""
"","ISI","","html-keyboard-response","31","152378","0.0-1.0-39.0","0","0","48950","","null","","","null","4","NaN","","","","","","","","","","","","","","",""
"","S2","","html-keyboard-response","32","152633","0.0-1.0-40.0","0","0","48950","","null","","","null","4","","NaN","","","","","","","","","","","","","",""
"","response","","html-keyboard-response","33","152925","0.0-1.0-41.0","0","0","48950","","292","","","68","4","","","1","4","training","adjacent","AB","1","2","Q.jpg","N.jpg","1","1","1","",""
"","feedback","","html-keyboard-response","34","153927","0.0-1.0-42.0-0.0","0","0","48950","","null","","","null","4","","","","","","","","","","","","","","","",""
"","ITI","","html-keyboard-response","35","154928","0.0-1.0-45.0","0","0","48950","","null","","","null","4","","","","","","","","","","","","","","","NaN",""
"","S1","","html-keyboard-response","36","155179","0.0-1.0-47.0","0","0","48950","","null","","","null","5","","","","","","","","","","","","","","","",""
"","ISI","","html-keyboard-response","37","157292","0.0-1.0-48.0","0","0","48950","","null","","","null","5","NaN","","","","","","","","","","","","","","",""
"","S2","","html-keyboard-response","38","157544","0.0-1.0-49.0","0","0","48950","","null","","","null","5","","NaN","","","","","","","","","","","","","",""
"","response","","html-keyboard-response","39","158109","0.0-1.0-50.0","0","0","48950","","564","","","68","5","","","1","5","training","adjacent","CB","3","2","L.jpg","N.jpg","1","0","0","",""
"","feedback","","html-keyboard-response","40","159112","0.0-1.0-51.0-0.0","0","0","48950","","null","","","null","5","","","","","","","","","","","","","","","",""
"","time_out","","html-keyboard-response","41","161113","0.0-1.0-53.0-0.0","0","0","48950","","null","","","null","5","","","","","","","","","","","","","","","",""
"","ITI","","html-keyboard-response","42","162120","0.0-1.0-54.0","0","0","48950","","null","","","null","5","","","","","","","","","","","","","","","NaN",""
"","S1","","html-keyboard-response","43","162376","0.0-1.0-56.0","0","0","48950","","null","","","null","6","","","","","","","","","","","","","","","",""
"","ISI","","html-keyboard-response","44","164377","0.0-1.0-57.0","0","0","48950","","null","","","null","6","NaN","","","","","","","","","","","","","","",""
"","S2","","html-keyboard-response","45","164629","0.0-1.0-58.0","0","0","48950","","null","","","null","6","","NaN","","","","","","","","","","","","","",""
"","response","","html-keyboard-response","46","165221","0.0-1.0-59.0","0","0","48950","","592","","","75","6","","","1","6","training","adjacent","BA","2","1","N.jpg","Q.jpg","0","0","1","",""
"","feedback","","html-keyboard-response","47","166223","0.0-1.0-60.0-0.0","0","0","48950","","null","","","null","6","","","","","","","","","","","","","","","",""
"","ITI","","html-keyboard-response","48","167224","0.0-1.0-63.0","0","0","48950","","null","","","null","6","","","","","","","","","","","","","","","NaN",""
"","S1","","html-keyboard-response","49","167476","0.0-1.0-65.0","0","0","48950","","null","","","null","7","","","","","","","","","","","","","","","",""
"","ISI","","html-keyboard-response","50","169479","0.0-1.0-66.0","0","0","48950","","null","","","null","7","NaN","","","","","","","","","","","","","","",""
"","S2","","html-keyboard-response","51","169731","0.0-1.0-67.0","0","0","48950","","null","","","null","7","","NaN","","","","","","","","","","","","","",""
"","response","","html-keyboard-response","52","170251","0.0-1.0-68.0","0","0","48950","","519","","","68","7","","","1","7","training","adjacent","FG","6","7","R.jpg","O.jpg","1","1","1","",""
"","feedback","","html-keyboard-response","53","171253","0.0-1.0-69.0-0.0","0","0","48950","","null","","","null","7","","","","","","","","","","","","","","","",""
"","ITI","","html-keyboard-response","54","172255","0.0-1.0-72.0","0","0","48950","","null","","","null","7","","","","","","","","","","","","","","","NaN",""
"","S1","","html-keyboard-response","55","172507","0.0-1.0-74.0","0","0","48950","","null","","","null","8","","","","","","","","","","","","","","","",""
"","ISI","","html-keyboard-response","56","174509","0.0-1.0-75.0","0","0","48950","","null","","","null","8","NaN","","","","","","","","","","","","","","",""
"","S2","","html-keyboard-response","57","174764","0.0-1.0-76.0","0","0","48950","","null","","","null","8","","NaN","","","","","","","","","","","","","",""
"","response","","html-keyboard-response","58","175386","0.0-1.0-77.0","0","0","48950","","621","","","75","8","","","1","8","training","adjacent","BA","2","1","N.jpg","Q.jpg","0","0","1","",""
"","feedback","","html-keyboard-response","59","176387","0.0-1.0-78.0-0.0","0","0","48950","","null","","","null","8","","","","","","","","","","","","","","","",""
"","ITI","","html-keyboard-response","60","177389","0.0-1.0-81.0","0","0","48950","","null","","","null","8","","","","","","","","","","","","","","","NaN",""
"","S1","","html-keyboard-response","61","177647","0.0-1.0-83.0","0","0","48950","","null","","","null","9","","","","","","","","","","","","","","","",""
"","ISI","","html-keyboard-response","62","179651","0.0-1.0-84.0","0","0","48950","","null","","","null","9","NaN","","","","","","","","","","","","","","",""
"","S2","","html-keyboard-response","63","179907","0.0-1.0-85.0","0","0","48950","","null","","","null","9","","NaN","","","","","","","","","","","","","",""
"","response","","html-keyboard-response","64","180307","0.0-1.0-86.0","0","0","48950","","400","","","75","9","","","1","9","training","adjacent","CB","3","2","L.jpg","N.jpg","0","0","1","",""
"","feedback","","html-keyboard-response","65","181315","0.0-1.0-87.0-0.0","0","0","48950","","null","","","null","9","","","","","","","","","","","","","","","",""
"","ITI","","html-keyboard-response","66","182317","0.0-1.0-90.0","0","0","48950","","null","","","null","9","","","","","","","","","","","","","","","NaN",""
"","S1","","html-keyboard-response","67","182569","0.0-1.0-92.0","0","0","48950","","null","","","null","10","","","","","","","","","","","","","","","",""
"","ISI","","html-keyboard-response","68","184574","0.0-1.0-93.0","0","0","48950","","null","","","null","10","NaN","","","","","","","","","","","","","","",""
"","S2","","html-keyboard-response","69","184826","0.0-1.0-94.0","0","0","48950","","null","","","null","10","","NaN","","","","","","","","","","","","","",""
"","response","","html-keyboard-response","70","185495","0.0-1.0-95.0","0","0","48950","","668","","","68","10","","","1","10","training","adjacent","BC","2","3","N.jpg","L.jpg","1","1","1","",""
"","feedback","","html-keyboard-response","71","186497","0.0-1.0-96.0-0.0","0","0","48950","","null","","","null","10","","","","","","","","","","","","","","","",""
"","ITI","","html-keyboard-response","72","187501","0.0-1.0-99.0","0","0","48950","","null","","","null","10","","","","","","","","","","","","","","","NaN",""
"","S1","","html-keyboard-response","73","187757","0.0-1.0-101.0","0","0","48950","","null","","","null","11","","","","","","","","","","","","","","","",""
"","ISI","","html-keyboard-response","74","189764","0.0-1.0-102.0","0","0","48950","","null","","","null","11","NaN","","","","","","","","","","","","","","",""
"","S2","","html-keyboard-response","75","190017","0.0-1.0-103.0","0","0","48950","","null","","","null","11","","NaN","","","","","","","","","","","","","",""
"","response","","html-keyboard-response","76","190545","0.0-1.0-104.0","0","0","48950","","528","","","75","11","","","1","11","training","adjacent","BA","2","1","N.jpg","Q.jpg","0","0","1","",""
"","feedback","","html-keyboard-response","77","191550","0.0-1.0-105.0-0.0","0","0","48950","","null","","","null","11","","","","","","","","","","","","","","","",""
"","ITI","","html-keyboard-response","78","192551","0.0-1.0-108.0","0","0","48950","","null","","","null","11","","","","","","","","","","","","","","","NaN",""
"","S1","","html-keyboard-response","79","192803","0.0-1.0-110.0","0","0","48950","","null","","","null","12","","","","","","","","","","","","","","","",""
"","ISI","","html-keyboard-response","80","194806","0.0-1.0-111.0","0","0","48950","","null","","","null","12","NaN","","","","","","","","","","","","","","",""
"","S2","","html-keyboard-response","81","195058","0.0-1.0-112.0","0","0","48950","","null","","","null","12","","NaN","","","","","","","","","","","","","",""
"","response","","html-keyboard-response","82","195627","0.0-1.0-113.0","0","0","48950","","569","","","75","12","","","1","12","training","adjacent","ED","5","4","P.jpg","M.jpg","0","0","1","",""
"","feedback","","html-keyboard-response","83","196629","0.0-1.0-114.0-0.0","0","0","48950","","null","","","null","12","","","","","","","","","","","","","","","",""
"","ITI","","html-keyboard-response","84","197631","0.0-1.0-117.0","0","0","48950","","null","","","null","12","","","","","","","","","","","","","","","NaN",""
"","S1","","html-keyboard-response","85","197884","0.0-1.0-119.0","0","0","48950","","null","","","null","13","","","","","","","","","","","","","","","",""
"","ISI","","html-keyboard-response","86","199886","0.0-1.0-120.0","0","0","48950","","null","","","null","13","NaN","","","","","","","","","","","","","","",""
"","S2","","html-keyboard-response","87","200139","0.0-1.0-121.0","0","0","48950","","null","","","null","13","","NaN","","","","","","","","","","","","","",""
"","response","","html-keyboard-response","88","200547","0.0-1.0-122.0","0","0","48950","","407","","","68","13","","","1","13","training","adjacent","GF","7","6","O.jpg","R.jpg","1","0","0","",""
"","feedback","","html-keyboard-response","89","201549","0.0-1.0-123.0-0.0","0","0","48950","","null","","","null","13","","","","","","","","","","","","","","","",""
"","time_out","","html-keyboard-response","90","203554","0.0-1.0-125.0-0.0","0","0","48950","","null","","","null","13","","","","","","","","","","","","","","","",""
"","ITI","","html-keyboard-response","91","204556","0.0-1.0-126.0","0","0","48950","","null","","","null","13","","","","","","","","","","","","","","","NaN",""
"","S1","","html-keyboard-response","92","204808","0.0-1.0-128.0","0","0","48950","","null","","","null","14","","","","","","","","","","","","","","","",""
"","ISI","","html-keyboard-response","93","206810","0.0-1.0-129.0","0","0","48950","","null","","","null","14","NaN","","","","","","","","","","","","","","",""
"","S2","","html-keyboard-response","94","207062","0.0-1.0-130.0","0","0","48950","","null","","","null","14","","NaN","","","","","","","","","","","","","",""
"","response","","html-keyboard-response","95","207907","0.0-1.0-131.0","0","0","48950","","845","","","68","14","","","1","14","training","adjacent","FG","6","7","R.jpg","O.jpg","1","1","1","",""
"","feedback","","html-keyboard-response","96","208909","0.0-1.0-132.0-0.0","0","0","48950","","null","","","null","14","","","","","","","","","","","","","","","",""
"","ITI","","html-keyboard-response","97","209911","0.0-1.0-135.0","0","0","48950","","null","","","null","14","","","","","","","","","","","","","","","NaN",""
"","S1","","html-keyboard-response","98","210162","0.0-1.0-137.0","0","0","48950","","null","","","null","15","","","","","","","","","","","","","","","",""
"","ISI","","html-keyboard-response","99","212164","0.0-1.0-138.0","0","0","48950","","null","","","null","15","NaN","","","","","","","","","","","","","","",""
"","S2","","html-keyboard-response","100","212416","0.0-1.0-139.0","0","0","48950","","null","","","null","15","","NaN","","","","","","","","","","","","","",""
"","response","","html-keyboard-response","101","213247","0.0-1.0-140.0","0","0","48950","","830","","","68","15","","","1","15","training","adjacent","GF","7","6","O.jpg","R.jpg","1","0","0","",""
"","feedback","","html-keyboard-response","102","214248","0.0-1.0-141.0-0.0","0","0","48950","","null","","","null","15","","","","","","","","","","","","","","","",""
"","time_out","","html-keyboard-response","103","216250","0.0-1.0-143.0-0.0","0","0","48950","","null","","","null","15","","","","","","","","","","","","","","","",""
"","ITI","","html-keyboard-response","104","217252","0.0-1.0-144.0","0","0","48950","","null","","","null","15","","","","","","","","","","","","","","","NaN",""
"","S1","","html-keyboard-response","105","217505","0.0-1.0-146.0","0","0","48950","","null","","","null","16","","","","","","","","","","","","","","","",""
"","ISI","","html-keyboard-response","106","219509","0.0-1.0-147.0","0","0","48950","","null","","","null","16","NaN","","","","","","","","","","","","","","",""
"","S2","","html-keyboard-response","107","219762","0.0-1.0-148.0","0","0","48950","","null","","","null","16","","NaN","","","","","","","","","","","","","",""
"","response","","html-keyboard-response","108","220377","0.0-1.0-149.0","0","0","48950","","614","","","75","16","","","1","16","training","adjacent","BA","2","1","N.jpg","Q.jpg","0","0","1","",""
"","feedback","","html-keyboard-response","109","221381","0.0-1.0-150.0-0.0","0","0","48950","","null","","","null","16","","","","","","","","","","","","","","","",""
"","ITI","","html-keyboard-response","110","222383","0.0-1.0-153.0","0","0","48950","","null","","","null","16","","","","","","","","","","","","","","","NaN",""
"","S1","","html-keyboard-response","111","222635","0.0-1.0-155.0","0","0","48950","","null","","","null","17","","","","","","","","","","","","","","","",""
"","ISI","","html-keyboard-response","112","224636","0.0-1.0-156.0","0","0","48950","","null","","","null","17","NaN","","","","","","","","","","","","","","",""
"","S2","","html-keyboard-response","113","224891","0.0-1.0-157.0","0","0","48950","","null","","","null","17","","NaN","","","","","","","","","","","","","",""
"","response","","html-keyboard-response","114","225477","0.0-1.0-158.0","0","0","48950","","585","","","68","17","","","1","17","training","adjacent","DC","4","3","M.jpg","L.jpg","1","0","0","",""
"","feedback","","html-keyboard-response","115","226479","0.0-1.0-159.0-0.0","0","0","48950","","null","","","null","17","","","","","","","","","","","","","","","",""
"","time_out","","html-keyboard-response","116","228481","0.0-1.0-161.0-0.0","0","0","48950","","null","","","null","17","","","","","","","","","","","","","","","",""
"","ITI","","html-keyboard-response","117","229483","0.0-1.0-162.0","0","0","48950","","null","","","null","17","","","","","","","","","","","","","","","NaN",""
"","S1","","html-keyboard-response","118","229735","0.0-1.0-164.0","0","0","48950","","null","","","null","18","","","","","","","","","","","","","","","",""
"","ISI","","html-keyboard-response","119","231737","0.0-1.0-165.0","0","0","48950","","null","","","null","18","NaN","","","","","","","","","","","","","","",""
"","S2","","html-keyboard-response","120","231989","0.0-1.0-166.0","0","0","48950","","null","","","null","18","","NaN","","","","","","","","","","","","","",""
"","response","","html-keyboard-response","121","232577","0.0-1.0-167.0","0","0","48950","","587","","","68","18","","","1","18","training","adjacent","FE","6","5","R.jpg","P.jpg","1","0","0","",""
"","feedback","","html-keyboard-response","122","233580","0.0-1.0-168.0-0.0","0","0","48950","","null","","","null","18","","","","","","","","","","","","","","","",""
"","time_out","","html-keyboard-response","123","235583","0.0-1.0-170.0-0.0","0","0","48950","","null","","","null","18","","","","","","","","","","","","","","","",""
"","ITI","","html-keyboard-response","124","236588","0.0-1.0-171.0","0","0","48950","","null","","","null","18","","","","","","","","","","","","","","","NaN",""
"","S1","","html-keyboard-response","125","236840","0.0-1.0-173.0","0","0","48950","","null","","","null","19","","","","","","","","","","","","","","","",""
"","ISI","","html-keyboard-response","126","238842","0.0-1.0-174.0","0","0","48950","","null","","","null","19","NaN","","","","","","","","","","","","","","",""
"","S2","","html-keyboard-response","127","239094","0.0-1.0-175.0","0","0","48950","","null","","","null","19","","NaN","","","","","","","","","","","","","",""
"","response","","html-keyboard-response","128","239769","0.0-1.0-176.0","0","0","48950","","674","","","68","19","","","1","19","training","adjacent","DE","4","5","M.jpg","P.jpg","1","1","1","",""
"","feedback","","html-keyboard-response","129","240771","0.0-1.0-177.0-0.0","0","0","48950","","null","","","null","19","","","","","","","","","","","","","","","",""
"","ITI","","html-keyboard-response","130","241773","0.0-1.0-180.0","0","0","48950","","null","","","null","19","","","","","","","","","","","","","","","NaN",""
"","S1","","html-keyboard-response","131","242025","0.0-1.0-182.0","0","0","48950","","null","","","null","20","","","","","","","","","","","","","","","",""
"","ISI","","html-keyboard-response","132","244027","0.0-1.0-183.0","0","0","48950","","null","","","null","20","NaN","","","","","","","","","","","","","","",""
"","S2","","html-keyboard-response","133","244278","0.0-1.0-184.0","0","0","48950","","null","","","null","20","","NaN","","","","","","","","","","","","","",""
"","response","","html-keyboard-response","134","244865","0.0-1.0-185.0","0","0","48950","","587","","","75","20","","","1","20","training","adjacent","CD","3","4","L.jpg","M.jpg","0","1","0","",""
"","feedback","","html-keyboard-response","135","245868","0.0-1.0-186.0-0.0","0","0","48950","","null","","","null","20","","","","","","","","","","","","","","","",""
"","time_out","","html-keyboard-response","136","247869","0.0-1.0-188.0-0.0","0","0","48950","","null","","","null","20","","","","","","","","","","","","","","","",""
"","ITI","","html-keyboard-response","137","248871","0.0-1.0-189.0","0","0","48950","","null","","","null","20","","","","","","","","","","","","","","","NaN",""
"","S1","","html-keyboard-response","138","249124","0.0-1.0-191.0","0","0","48950","","null","","","null","21","","","","","","","","","","","","","","","",""
"","ISI","","html-keyboard-response","139","251125","0.0-1.0-192.0","0","0","48950","","null","","","null","21","NaN","","","","","","","","","","","","","","",""
"","S2","","html-keyboard-response","140","251378","0.0-1.0-193.0","0","0","48950","","null","","","null","21","","NaN","","","","","","","","","","","","","",""
"","response","","html-keyboard-response","141","251951","0.0-1.0-194.0","0","0","48950","","572","","","75","21","","","1","21","training","adjacent","EF","5","6","P.jpg","R.jpg","0","1","0","",""
"","feedback","","html-keyboard-response","142","252956","0.0-1.0-195.0-0.0","0","0","48950","","null","","","null","21","","","","","","","","","","","","","","","",""
"","time_out","","html-keyboard-response","143","254959","0.0-1.0-197.0-0.0","0","0","48950","","null","","","null","21","","","","","","","","","","","","","","","",""
"","ITI","","html-keyboard-response","144","255961","0.0-1.0-198.0","0","0","48950","","null","","","null","21","","","","","","","","","","","","","","","NaN",""
"","S1","","html-keyboard-response","145","256215","0.0-1.0-200.0","0","0","48950","","null","","","null","22","","","","","","","","","","","","","","","",""
"","ISI","","html-keyboard-response","146","258217","0.0-1.0-201.0","0","0","48950","","null","","","null","22","NaN","","","","","","","","","","","","","","",""
"","S2","","html-keyboard-response","147","258469","0.0-1.0-202.0","0","0","48950","","null","","","null","22","","NaN","","","","","","","","","","","","","",""
"","response","","html-keyboard-response","148","258995","0.0-1.0-203.0","0","0","48950","","525","","","75","22","","","1","22","training","adjacent","CB","3","2","L.jpg","N.jpg","0","0","1","",""
"","feedback","","html-keyboard-response","149","259997","0.0-1.0-204.0-0.0","0","0","48950","","null","","","null","22","","","","","","","","","","","","","","","",""
"","ITI","","html-keyboard-response","150","260999","0.0-1.0-207.0","0","0","48950","","null","","","null","22","","","","","","","","","","","","","","","NaN",""
"","S1","","html-keyboard-response","151","261250","0.0-1.0-209.0","0","0","48950","","null","","","null","23","","","","","","","","","","","","","","","",""
"","ISI","","html-keyboard-response","152","263254","0.0-1.0-210.0","0","0","48950","","null","","","null","23","NaN","","","","","","","","","","","","","","",""
"","S2","","html-keyboard-response","153","263506","0.0-1.0-211.0","0","0","48950","","null","","","null","23","","NaN","","","","","","","","","","","","","",""
"","response","","html-keyboard-response","154","263911","0.0-1.0-212.0","0","0","48950","","404","","","68","23","","","1","23","training","adjacent","FE","6","5","R.jpg","P.jpg","1","0","0","",""
"","feedback","","html-keyboard-response","155","264914","0.0-1.0-213.0-0.0","0","0","48950","","null","","","null","23","","","","","","","","","","","","","","","",""
"","time_out","","html-keyboard-response","156","266915","0.0-1.0-215.0-0.0","0","0","48950","","null","","","null","23","","","","","","","","","","","","","","","",""
"","ITI","","html-keyboard-response","157","267923","0.0-1.0-216.0","0","0","48950","","null","","","null","23","","","","","","","","","","","","","","","NaN",""
"","S1","","html-keyboard-response","158","268180","0.0-1.0-218.0","0","0","48950","","null","","","null","24","","","","","","","","","","","","","","","",""
"","ISI","","html-keyboard-response","159","270182","0.0-1.0-219.0","0","0","48950","","null","","","null","24","NaN","","","","","","","","","","","","","","",""
"","S2","","html-keyboard-response","160","270433","0.0-1.0-220.0","0","0","48950","","null","","","null","24","","NaN","","","","","","","","","","","","","",""
"","response","","html-keyboard-response","161","270931","0.0-1.0-221.0","0","0","48950","","497","","","68","24","","","1","24","training","adjacent","EF","5","6","P.jpg","R.jpg","1","1","1","",""
"","feedback","","html-keyboard-response","162","271933","0.0-1.0-222.0-0.0","0","0","48950","","null","","","null","24","","","","","","","","","","","","","","","",""
"","ITI","","html-keyboard-response","163","272939","0.0-1.0-225.0","0","0","48950","","null","","","null","24","","","","","","","","","","","","","","","NaN",""
"","S1","","html-keyboard-response","164","273190","0.0-1.0-227.0","0","0","48950","","null","","","null","25","","","","","","","","","","","","","","","",""
"","ISI","","html-keyboard-response","165","275192","0.0-1.0-228.0","0","0","48950","","null","","","null","25","NaN","","","","","","","","","","","","","","",""
"","S2","","html-keyboard-response","166","275446","0.0-1.0-229.0","0","0","48950","","null","","","null","25","","NaN","","","","","","","","","","","","","",""
"","response","","html-keyboard-response","167","275917","0.0-1.0-230.0","0","0","48950","","469","","","68","25","","","1","25","training","adjacent","AB","1","2","Q.jpg","N.jpg","1","1","1","",""
"","feedback","","html-keyboard-response","168","276919","0.0-1.0-231.0-0.0","0","0","48950","","null","","","null","25","","","","","","","","","","","","","","","",""
"","ITI","","html-keyboard-response","169","277921","0.0-1.0-234.0","0","0","48950","","null","","","null","25","","","","","","","","","","","","","","","NaN",""
"","S1","","html-keyboard-response","170","278173","0.0-1.0-236.0","0","0","48950","","null","","","null","26","","","","","","","","","","","","","","","",""
"","ISI","","html-keyboard-response","171","280176","0.0-1.0-237.0","0","0","48950","","null","","","null","26","NaN","","","","","","","","","","","","","","",""
"","S2","","html-keyboard-response","172","280428","0.0-1.0-238.0","0","0","48950","","null","","","null","26","","NaN","","","","","","","","","","","","","",""
"","response","","html-keyboard-response","173","280995","0.0-1.0-239.0","0","0","48950","","565","","","68","26","","","1","26","training","adjacent","BC","2","3","N.jpg","L.jpg","1","1","1","",""
"","feedback","","html-keyboard-response","174","281997","0.0-1.0-240.0-0.0","0","0","48950","","null","","","null","26","","","","","","","","","","","","","","","",""
"","ITI","","html-keyboard-response","175","282998","0.0-1.0-243.0","0","0","48950","","null","","","null","26","","","","","","","","","","","","","","","NaN",""
"","S1","","html-keyboard-response","176","283251","0.0-1.0-245.0","0","0","48950","","null","","","null","27","","","","","","","","","","","","","","","",""
"","ISI","","html-keyboard-response","177","285256","0.0-1.0-246.0","0","0","48950","","null","","","null","27","NaN","","","","","","","","","","","","","","",""
"","S2","","html-keyboard-response","178","285512","0.0-1.0-247.0","0","0","48950","","null","","","null","27","","NaN","","","","","","","","","","","","","",""
"","response","","html-keyboard-response","179","286065","0.0-1.0-248.0","0","0","48950","","551","","","68","27","","","1","27","training","adjacent","ED","5","4","P.jpg","M.jpg","1","0","0","",""
"","feedback","","html-keyboard-response","180","287068","0.0-1.0-249.0-0.0","0","0","48950","","null","","","null","27","","","","","","","","","","","","","","","",""
"","time_out","","html-keyboard-response","181","289069","0.0-1.0-251.0-0.0","0","0","48950","","null","","","null","27","","","","","","","","","","","","","","","",""
"","ITI","","html-keyboard-response","182","290071","0.0-1.0-252.0","0","0","48950","","null","","","null","27","","","","","","","","","","","","","","","NaN",""
"","S1","","html-keyboard-response","183","290324","0.0-1.0-254.0","0","0","48950","","null","","","null","28","","","","","","","","","","","","","","","",""
"","ISI","","html-keyboard-response","184","292326","0.0-1.0-255.0","0","0","48950","","null","","","null","28","NaN","","","","","","","","","","","","","","",""
"","S2","","html-keyboard-response","185","292577","0.0-1.0-256.0","0","0","48950","","null","","","null","28","","NaN","","","","","","","","","","","","","",""
"","response","","html-keyboard-response","186","293223","0.0-1.0-257.0","0","0","48950","","644","","","75","28","","","1","28","training","adjacent","FE","6","5","R.jpg","P.jpg","0","0","1","",""
"","feedback","","html-keyboard-response","187","294225","0.0-1.0-258.0-0.0","0","0","48950","","null","","","null","28","","","","","","","","","","","","","","","",""
"","ITI","","html-keyboard-response","188","295227","0.0-1.0-261.0","0","0","48950","","null","","","null","28","","","","","","","","","","","","","","","NaN",""
"","S1","","html-keyboard-response","189","295479","0.0-1.0-263.0","0","0","48950","","null","","","null","29","","","","","","","","","","","","","","","",""
"","ISI","","html-keyboard-response","190","297482","0.0-1.0-264.0","0","0","48950","","null","","","null","29","NaN","","","","","","","","","","","","","","",""
"","S2","","html-keyboard-response","191","297734","0.0-1.0-265.0","0","0","48950","","null","","","null","29","","NaN","","","","","","","","","","","","","",""
"","response","","html-keyboard-response","192","298109","0.0-1.0-266.0","0","0","48950","","374","","","68","29","","","1","29","training","adjacent","BC","2","3","N.jpg","L.jpg","1","1","1","",""
"","feedback","","html-keyboard-response","193","299111","0.0-1.0-267.0-0.0","0","0","48950","","null","","","null","29","","","","","","","","","","","","","","","",""
"","ITI","","html-keyboard-response","194","300113","0.0-1.0-270.0","0","0","48950","","null","","","null","29","","","","","","","","","","","","","","","NaN",""
"","S1","","html-keyboard-response","195","300366","0.0-1.0-272.0","0","0","48950","","null","","","null","30","","","","","","","","","","","","","","","",""
"","ISI","","html-keyboard-response","196","302370","0.0-1.0-273.0","0","0","48950","","null","","","null","30","NaN","","","","","","","","","","","","","","",""
"","S2","","html-keyboard-response","197","302623","0.0-1.0-274.0","0","0","48950","","null","","","null","30","","NaN","","","","","","","","","","","","","",""
"","response","","html-keyboard-response","198","303339","0.0-1.0-275.0","0","0","48950","","716","","","75","30","","","1","30","training","adjacent","FG","6","7","R.jpg","O.jpg","0","1","0","",""
"","feedback","","html-keyboard-response","199","304346","0.0-1.0-276.0-0.0","0","0","48950","","null","","","null","30","","","","","","","","","","","","","","","",""
"","time_out","","html-keyboard-response","200","306357","0.0-1.0-278.0-0.0","0","0","48950","","null","","","null","30","","","","","","","","","","","","","","","",""
"","ITI","","html-keyboard-response","201","307362","0.0-1.0-279.0","0","0","48950","","null","","","null","30","","","","","","","","","","","","","","","NaN",""
"","S1","","html-keyboard-response","202","307614","0.0-1.0-281.0","0","0","48950","","null","","","null","31","","","","","","","","","","","","","","","",""
"","ISI","","html-keyboard-response","203","309617","0.0-1.0-282.0","0","0","48950","","null","","","null","31","NaN","","","","","","","","","","","","","","",""
"","S2","","html-keyboard-response","204","309869","0.0-1.0-283.0","0","0","48950","","null","","","null","31","","NaN","","","","","","","","","","","","","",""
"","response","","html-keyboard-response","205","310419","0.0-1.0-284.0","0","0","48950","","548","","","68","31","","","1","31","training","adjacent","BC","2","3","N.jpg","L.jpg","1","1","1","",""
"","feedback","","html-keyboard-response","206","311421","0.0-1.0-285.0-0.0","0","0","48950","","null","","","null","31","","","","","","","","","","","","","","","",""
"","ITI","","html-keyboard-response","207","312424","0.0-1.0-288.0","0","0","48950","","null","","","null","31","","","","","","","","","","","","","","","NaN",""
"","S1","","html-keyboard-response","208","312677","0.0-1.0-290.0","0","0","48950","","null","","","null","32","","","","","","","","","","","","","","","",""
"","ISI","","html-keyboard-response","209","314682","0.0-1.0-291.0","0","0","48950","","null","","","null","32","NaN","","","","","","","","","","","","","","",""
"","S2","","html-keyboard-response","210","314934","0.0-1.0-292.0","0","0","48950","","null","","","null","32","","NaN","","","","","","","","","","","","","",""
"","response","","html-keyboard-response","211","315783","0.0-1.0-293.0","0","0","48950","","848","","","75","32","","","1","32","training","adjacent","DE","4","5","M.jpg","P.jpg","0","1","0","",""
"","feedback","","html-keyboard-response","212","316785","0.0-1.0-294.0-0.0","0","0","48950","","null","","","null","32","","","","","","","","","","","","","","","",""
"","time_out","","html-keyboard-response","213","318786","0.0-1.0-296.0-0.0","0","0","48950","","null","","","null","32","","","","","","","","","","","","","","","",""
"","ITI","","html-keyboard-response","214","319788","0.0-1.0-297.0","0","0","48950","","null","","","null","32","","","","","","","","","","","","","","","NaN",""
"","S1","","html-keyboard-response","215","320040","0.0-1.0-299.0","0","0","48950","","null","","","null","33","","","","","","","","","","","","","","","",""
"","ISI","","html-keyboard-response","216","322041","0.0-1.0-300.0","0","0","48950","","null","","","null","33","NaN","","","","","","","","","","","","","","",""
"","S2","","html-keyboard-response","217","322293","0.0-1.0-301.0","0","0","48950","","null","","","null","33","","NaN","","","","","","","","","","","","","",""
"","response","","html-keyboard-response","218","322979","0.0-1.0-302.0","0","0","48950","","685","","","75","33","","","1","33","training","adjacent","CD","3","4","L.jpg","M.jpg","0","1","0","",""
"","feedback","","html-keyboard-response","219","323987","0.0-1.0-303.0-0.0","0","0","48950","","null","","","null","33","","","","","","","","","","","","","","","",""
"","time_out","","html-keyboard-response","220","325989","0.0-1.0-305.0-0.0","0","0","48950","","null","","","null","33","","","","","","","","","","","","","","","",""
"","ITI","","html-keyboard-response","221","326990","0.0-1.0-306.0","0","0","48950","","null","","","null","33","","","","","","","","","","","","","","","NaN",""
"","S1","","html-keyboard-response","222","327242","0.0-1.0-308.0","0","0","48950","","null","","","null","34","","","","","","","","","","","","","","","",""
"","ISI","","html-keyboard-response","223","329243","0.0-1.0-309.0","0","0","48950","","null","","","null","34","NaN","","","","","","","","","","","","","","",""
"","S2","","html-keyboard-response","224","329495","0.0-1.0-310.0","0","0","48950","","null","","","null","34","","NaN","","","","","","","","","","","","","",""
"","response","","html-keyboard-response","225","329975","0.0-1.0-311.0","0","0","48950","","479","","","68","34","","","1","34","training","adjacent","AB","1","2","Q.jpg","N.jpg","1","1","1","",""
"","feedback","","html-keyboard-response","226","330978","0.0-1.0-312.0-0.0","0","0","48950","","null","","","null","34","","","","","","","","","","","","","","","",""
"","ITI","","html-keyboard-response","227","331980","0.0-1.0-315.0","0","0","48950","","null","","","null","34","","","","","","","","","","","","","","","NaN",""
"","S1","","html-keyboard-response","228","332232","0.0-1.0-317.0","0","0","48950","","null","","","null","35","","","","","","","","","","","","","","","",""
"","ISI","","html-keyboard-response","229","334233","0.0-1.0-318.0","0","0","48950","","null","","","null","35","NaN","","","","","","","","","","","","","","",""
"","S2","","html-keyboard-response","230","334485","0.0-1.0-319.0","0","0","48950","","null","","","null","35","","NaN","","","","","","","","","","","","","",""
"","response","","html-keyboard-response","231","335223","0.0-1.0-320.0","0","0","48950","","737","","","75","35","","","1","35","training","adjacent","ED","5","4","P.jpg","M.jpg","0","0","1","",""
"","feedback","","html-keyboard-response","232","336224","0.0-1.0-321.0-0.0","0","0","48950","","null","","","null","35","","","","","","","","","","","","","","","",""
"","ITI","","html-keyboard-response","233","337227","0.0-1.0-324.0","0","0","48950","","null","","","null","35","","","","","","","","","","","","","","","NaN",""
"","S1","","html-keyboard-response","234","337478","0.0-1.0-326.0","0","0","48950","","null","","","null","36","","","","","","","","","","","","","","","",""
"","ISI","","html-keyboard-response","235","339480","0.0-1.0-327.0","0","0","48950","","null","","","null","36","NaN","","","","","","","","","","","","","","",""
"","S2","","html-keyboard-response","236","339732","0.0-1.0-328.0","0","0","48950","","null","","","null","36","","NaN","","","","","","","","","","","","","",""
"","response","","html-keyboard-response","237","340573","0.0-1.0-329.0","0","0","48950","","839","","","68","36","","","1","36","training","adjacent","DE","4","5","M.jpg","P.jpg","1","1","1","",""
"","feedback","","html-keyboard-response","238","341576","0.0-1.0-330.0-0.0","0","0","48950","","null","","","null","36","","","","","","","","","","","","","","","",""
"","ITI","","html-keyboard-response","239","342577","0.0-1.0-333.0","0","0","48950","","null","","","null","36","","","","","","","","","","","","","","","NaN",""
"","S1","","html-keyboard-response","240","342829","0.0-1.0-335.0","0","0","48950","","null","","","null","37","","","","","","","","","","","","","","","",""
"","ISI","","html-keyboard-response","241","344830","0.0-1.0-336.0","0","0","48950","","null","","","null","37","NaN","","","","","","","","","","","","","","",""
"","S2","","html-keyboard-response","242","345082","0.0-1.0-337.0","0","0","48950","","null","","","null","37","","NaN","","","","","","","","","","","","","",""
"","response","","html-keyboard-response","243","345383","0.0-1.0-338.0","0","0","48950","","300","","","75","37","","","1","37","training","adjacent","DC","4","3","M.jpg","L.jpg","0","0","1","",""
"","feedback","","html-keyboard-response","244","346385","0.0-1.0-339.0-0.0","0","0","48950","","null","","","null","37","","","","","","","","","","","","","","","",""
"","ITI","","html-keyboard-response","245","347387","0.0-1.0-342.0","0","0","48950","","null","","","null","37","","","","","","","","","","","","","","","NaN",""
"","S1","","html-keyboard-response","246","347640","0.0-1.0-344.0","0","0","48950","","null","","","null","38","","","","","","","","","","","","","","","",""
"","ISI","","html-keyboard-response","247","349643","0.0-1.0-345.0","0","0","48950","","null","","","null","38","NaN","","","","","","","","","","","","","","",""
"","S2","","html-keyboard-response","248","349896","0.0-1.0-346.0","0","0","48950","","null","","","null","38","","NaN","","","","","","","","","","","","","",""
"","response","","html-keyboard-response","249","350769","0.0-1.0-347.0","0","0","48950","","872","","","68","38","","","1","38","training","adjacent","ED","5","4","P.jpg","M.jpg","1","0","0","",""
"","feedback","","html-keyboard-response","250","351774","0.0-1.0-348.0-0.0","0","0","48950","","null","","","null","38","","","","","","","","","","","","","","","",""
"","time_out","","html-keyboard-response","251","353776","0.0-1.0-350.0-0.0","0","0","48950","","null","","","null","38","","","","","","","","","","","","","","","",""
"","ITI","","html-keyboard-response","252","354778","0.0-1.0-351.0","0","0","48950","","null","","","null","38","","","","","","","","","","","","","","","NaN",""
"","S1","","html-keyboard-response","253","355029","0.0-1.0-353.0","0","0","48950","","null","","","null","39","","","","","","","","","","","","","","","",""
"","ISI","","html-keyboard-response","254","357032","0.0-1.0-354.0","0","0","48950","","null","","","null","39","NaN","","","","","","","","","","","","","","",""
"","S2","","html-keyboard-response","255","357284","0.0-1.0-355.0","0","0","48950","","null","","","null","39","","NaN","","","","","","","","","","","","","",""
"","response","","html-keyboard-response","256","358059","0.0-1.0-356.0","0","0","48950","","773","","","75","39","","","1","39","training","adjacent","GF","7","6","O.jpg","R.jpg","0","0","1","",""
"","feedback","","html-keyboard-response","257","359061","0.0-1.0-357.0-0.0","0","0","48950","","null","","","null","39","","","","","","","","","","","","","","","",""
"","ITI","","html-keyboard-response","258","360121","0.0-1.0-360.0","0","0","48950","","null","","","null","39","","","","","","","","","","","","","","","NaN",""
"","S1","","html-keyboard-response","259","360372","0.0-1.0-362.0","0","0","48950","","null","","","null","40","","","","","","","","","","","","","","","",""
"","ISI","","html-keyboard-response","260","362380","0.0-1.0-363.0","0","0","48950","","null","","","null","40","NaN","","","","","","","","","","","","","","",""
"","S2","","html-keyboard-response","261","362637","0.0-1.0-364.0","0","0","48950","","null","","","null","40","","NaN","","","","","","","","","","","","","",""
"","response","","html-keyboard-response","262","363629","0.0-1.0-365.0","0","0","48950","","991","","","68","40","","","1","40","training","adjacent","CD","3","4","L.jpg","M.jpg","1","1","1","",""
"","feedback","","html-keyboard-response","263","364630","0.0-1.0-366.0-0.0","0","0","48950","","null","","","null","40","","","","","","","","","","","","","","","",""
"","ITI","","html-keyboard-response","264","365632","0.0-1.0-369.0","0","0","48950","","null","","","null","40","","","","","","","","","","","","","","","NaN",""
"","S1","","html-keyboard-response","265","365885","0.0-1.0-371.0","0","0","48950","","null","","","null","41","","","","","","","","","","","","","","","",""
"","ISI","","html-keyboard-response","266","367886","0.0-1.0-372.0","0","0","48950","","null","","","null","41","NaN","","","","","","","","","","","","","","",""
"","S2","","html-keyboard-response","267","368138","0.0-1.0-373.0","0","0","48950","","null","","","null","41","","NaN","","","","","","","","","","","","","",""
"","response","","html-keyboard-response","268","369269","0.0-1.0-374.0","0","0","48950","","1130","","","68","41","","","1","41","training","adjacent","CD","3","4","L.jpg","M.jpg","1","1","1","",""
"","feedback","","html-keyboard-response","269","370276","0.0-1.0-375.0-0.0","0","0","48950","","null","","","null","41","","","","","","","","","","","","","","","",""
"","ITI","","html-keyboard-response","270","371278","0.0-1.0-378.0","0","0","48950","","null","","","null","41","","","","","","","","","","","","","","","NaN",""
"","S1","","html-keyboard-response","271","371529","0.0-1.0-380.0","0","0","48950","","null","","","null","42","","","","","","","","","","","","","","","",""
"","ISI","","html-keyboard-response","272","373531","0.0-1.0-381.0","0","0","48950","","null","","","null","42","NaN","","","","","","","","","","","","","","",""
"","S2","","html-keyboard-response","273","373783","0.0-1.0-382.0","0","0","48950","","null","","","null","42","","NaN","","","","","","","","","","","","","",""
"","response","","html-keyboard-response","274","374871","0.0-1.0-383.0","0","0","48950","","1087","","","75","42","","","1","42","training","adjacent","DC","4","3","M.jpg","L.jpg","0","0","1","",""
"","feedback","","html-keyboard-response","275","375873","0.0-1.0-384.0-0.0","0","0","48950","","null","","","null","42","","","","","","","","","","","","","","","",""
"","ITI","","html-keyboard-response","276","376877","0.0-1.0-387.0","0","0","48950","","null","","","null","42","","","","","","","","","","","","","","","NaN",""
"","S1","","html-keyboard-response","277","377130","0.0-1.0-389.0","0","0","48950","","null","","","null","43","","","","","","","","","","","","","","","",""
"","ISI","","html-keyboard-response","278","379132","0.0-1.0-390.0","0","0","48950","","null","","","null","43","NaN","","","","","","","","","","","","","","",""
"","S2","","html-keyboard-response","279","379383","0.0-1.0-391.0","0","0","48950","","null","","","null","43","","NaN","","","","","","","","","","","","","",""
"","response","","html-keyboard-response","280","380073","0.0-1.0-392.0","0","0","48950","","688","","","75","43","","","1","43","training","adjacent","GF","7","6","O.jpg","R.jpg","0","0","1","",""
"","feedback","","html-keyboard-response","281","381074","0.0-1.0-393.0-0.0","0","0","48950","","null","","","null","43","","","","","","","","","","","","","","","",""
"","ITI","","html-keyboard-response","282","382076","0.0-1.0-396.0","0","0","48950","","null","","","null","43","","","","","","","","","","","","","","","NaN",""
"","S1","","html-keyboard-response","283","382331","0.0-1.0-398.0","0","0","48950","","null","","","null","44","","","","","","","","","","","","","","","",""
"","ISI","","html-keyboard-response","284","384332","0.0-1.0-399.0","0","0","48950","","null","","","null","44","NaN","","","","","","","","","","","","","","",""
"","S2","","html-keyboard-response","285","384591","0.0-1.0-400.0","0","0","48950","","null","","","null","44","","NaN","","","","","","","","","","","","","",""
"","response","","html-keyboard-response","286","385537","0.0-1.0-401.0","0","0","48950","","944","","","75","44","","","1","44","training","adjacent","DE","4","5","M.jpg","P.jpg","0","1","0","",""
"","feedback","","html-keyboard-response","287","386542","0.0-1.0-402.0-0.0","0","0","48950","","null","","","null","44","","","","","","","","","","","","","","","",""
"","time_out","","html-keyboard-response","288","388546","0.0-1.0-404.0-0.0","0","0","48950","","null","","","null","44","","","","","","","","","","","","","","","",""
"","ITI","","html-keyboard-response","289","389548","0.0-1.0-405.0","0","0","48950","","null","","","null","44","","","","","","","","","","","","","","","NaN",""
"","S1","","html-keyboard-response","290","389802","0.0-1.0-407.0","0","0","48950","","null","","","null","45","","","","","","","","","","","","","","","",""
"","ISI","","html-keyboard-response","291","391804","0.0-1.0-408.0","0","0","48950","","null","","","null","45","NaN","","","","","","","","","","","","","","",""
"","S2","","html-keyboard-response","292","392055","0.0-1.0-409.0","0","0","48950","","null","","","null","45","","NaN","","","","","","","","","","","","","",""
"","response","","html-keyboard-response","293","392607","0.0-1.0-410.0","0","0","48950","","550","","","75","45","","","1","45","training","adjacent","CB","3","2","L.jpg","N.jpg","0","0","1","",""
"","feedback","","html-keyboard-response","294","393609","0.0-1.0-411.0-0.0","0","0","48950","","null","","","null","45","","","","","","","","","","","","","","","",""
"","ITI","","html-keyboard-response","295","394610","0.0-1.0-414.0","0","0","48950","","null","","","null","45","","","","","","","","","","","","","","","NaN",""
"","S1","","html-keyboard-response","296","394862","0.0-1.0-416.0","0","0","48950","","null","","","null","46","","","","","","","","","","","","","","","",""
"","ISI","","html-keyboard-response","297","396867","0.0-1.0-417.0","0","0","48950","","null","","","null","46","NaN","","","","","","","","","","","","","","",""
"","S2","","html-keyboard-response","298","397119","0.0-1.0-418.0","0","0","48950","","null","","","null","46","","NaN","","","","","","","","","","","","","",""
"","response","","html-keyboard-response","299","397969","0.0-1.0-419.0","0","0","48950","","849","","","68","46","","","1","46","training","adjacent","FG","6","7","R.jpg","O.jpg","1","1","1","",""
"","feedback","","html-keyboard-response","300","398971","0.0-1.0-420.0-0.0","0","0","48950","","null","","","null","46","","","","","","","","","","","","","","","",""
"","ITI","","html-keyboard-response","301","399973","0.0-1.0-423.0","0","0","48950","","null","","","null","46","","","","","","","","","","","","","","","NaN",""
"","S1","","html-keyboard-response","302","400226","0.0-1.0-425.0","0","0","48950","","null","","","null","47","","","","","","","","","","","","","","","",""
"","ISI","","html-keyboard-response","303","402230","0.0-1.0-426.0","0","0","48950","","null","","","null","47","NaN","","","","","","","","","","","","","","",""
"","S2","","html-keyboard-response","304","402482","0.0-1.0-427.0","0","0","48950","","null","","","null","47","","NaN","","","","","","","","","","","","","",""
"","response","","html-keyboard-response","305","403533","0.0-1.0-428.0","0","0","48950","","1049","","","68","47","","","1","47","training","adjacent","EF","5","6","P.jpg","R.jpg","1","1","1","",""
"","feedback","","html-keyboard-response","306","404539","0.0-1.0-429.0-0.0","0","0","48950","","null","","","null","47","","","","","","","","","","","","","","","",""
"","ITI","","html-keyboard-response","307","405541","0.0-1.0-432.0","0","0","48950","","null","","","null","47","","","","","","","","","","","","","","","NaN",""
"","block_over","","html-keyboard-response","308","440325","0.0-1.0-433.0-0.0","0","0","48950","","34782","","","32","47","","","","","","","","","","","","","","","",""
"","S1","","html-keyboard-response","309","440579","0.0-1.0-434.0","0","0","48950","","null","","","null","48","","","","","","","","","","","","","","","",""
"","ISI","","html-keyboard-response","310","442580","0.0-1.0-435.0","0","0","48950","","null","","","null","48","NaN","","","","","","","","","","","","","","",""
"","S2","","html-keyboard-response","311","442832","0.0-1.0-436.0","0","0","48950","","null","","","null","48","","NaN","","","","","","","","","","","","","",""
"","response","","html-keyboard-response","312","443357","0.0-1.0-437.0","0","0","48950","","524","","","75","48","","","2","48","training","adjacent","EF","5","6","P.jpg","R.jpg","0","1","0","",""
"","feedback","","html-keyboard-response","313","444360","0.0-1.0-438.0-0.0","0","0","48950","","null","","","null","48","","","","","","","","","","","","","","","",""
"","time_out","","html-keyboard-response","314","446363","0.0-1.0-440.0-0.0","0","0","48950","","null","","","null","48","","","","","","","","","","","","","","","",""
"","ITI","","html-keyboard-response","315","447364","0.0-1.0-441.0","0","0","48950","","null","","","null","48","","","","","","","","","","","","","","","NaN",""
"","S1","","html-keyboard-response","316","447617","0.0-1.0-443.0","0","0","48950","","null","","","null","49","","","","","","","","","","","","","","","",""
"","ISI","","html-keyboard-response","317","449624","0.0-1.0-444.0","0","0","48950","","null","","","null","49","NaN","","","","","","","","","","","","","","",""
"","S2","","html-keyboard-response","318","449881","0.0-1.0-445.0","0","0","48950","","null","","","null","49","","NaN","","","","","","","","","","","","","",""
"","response","","html-keyboard-response","319","450549","0.0-1.0-446.0","0","0","48950","","667","","","75","49","","","2","49","training","adjacent","ED","5","4","P.jpg","M.jpg","0","0","1","",""
"","feedback","","html-keyboard-response","320","451552","0.0-1.0-447.0-0.0","0","0","48950","","null","","","null","49","","","","","","","","","","","","","","","",""
"","ITI","","html-keyboard-response","321","452556","0.0-1.0-450.0","0","0","48950","","null","","","null","49","","","","","","","","","","","","","","","NaN",""
"","S1","","html-keyboard-response","322","452808","0.0-1.0-452.0","0","0","48950","","null","","","null","50","","","","","","","","","","","","","","","",""
"","ISI","","html-keyboard-response","323","454809","0.0-1.0-453.0","0","0","48950","","null","","","null","50","NaN","","","","","","","","","","","","","","",""
"","S2","","html-keyboard-response","324","455067","0.0-1.0-454.0","0","0","48950","","null","","","null","50","","NaN","","","","","","","","","","","","","",""
"","response","","html-keyboard-response","325","455547","0.0-1.0-455.0","0","0","48950","","479","","","75","50","","","2","50","training","adjacent","CB","3","2","L.jpg","N.jpg","0","0","1","",""
"","feedback","","html-keyboard-response","326","456549","0.0-1.0-456.0-0.0","0","0","48950","","null","","","null","50","","","","","","","","","","","","","","","",""
"","ITI","","html-keyboard-response","327","457551","0.0-1.0-459.0","0","0","48950","","null","","","null","50","","","","","","","","","","","","","","","NaN",""
"","S1","","html-keyboard-response","328","457803","0.0-1.0-461.0","0","0","48950","","null","","","null","51","","","","","","","","","","","","","","","",""
"","ISI","","html-keyboard-response","329","459811","0.0-1.0-462.0","0","0","48950","","null","","","null","51","NaN","","","","","","","","","","","","","","",""
"","S2","","html-keyboard-response","330","460063","0.0-1.0-463.0","0","0","48950","","null","","","null","51","","NaN","","","","","","","","","","","","","",""
"","response","","html-keyboard-response","331","460791","0.0-1.0-464.0","0","0","48950","","727","","","68","51","","","2","51","training","adjacent","DE","4","5","M.jpg","P.jpg","1","1","1","",""
"","feedback","","html-keyboard-response","332","461794","0.0-1.0-465.0-0.0","0","0","48950","","null","","","null","51","","","","","","","","","","","","","","","",""
"","ITI","","html-keyboard-response","333","462796","0.0-1.0-468.0","0","0","48950","","null","","","null","51","","","","","","","","","","","","","","","NaN",""
"","S1","","html-keyboard-response","334","463049","0.0-1.0-470.0","0","0","48950","","null","","","null","52","","","","","","","","","","","","","","","",""
"","ISI","","html-keyboard-response","335","465054","0.0-1.0-471.0","0","0","48950","","null","","","null","52","NaN","","","","","","","","","","","","","","",""
"","S2","","html-keyboard-response","336","465306","0.0-1.0-472.0","0","0","48950","","null","","","null","52","","NaN","","","","","","","","","","","","","",""
"","response","","html-keyboard-response","337","465851","0.0-1.0-473.0","0","0","48950","","543","","","75","52","","","2","52","training","adjacent","CB","3","2","L.jpg","N.jpg","0","0","1","",""
"","feedback","","html-keyboard-response","338","466852","0.0-1.0-474.0-0.0","0","0","48950","","null","","","null","52","","","","","","","","","","","","","","","",""
"","ITI","","html-keyboard-response","339","467855","0.0-1.0-477.0","0","0","48950","","null","","","null","52","","","","","","","","","","","","","","","NaN",""
"","S1","","html-keyboard-response","340","468107","0.0-1.0-479.0","0","0","48950","","null","","","null","53","","","","","","","","","","","","","","","",""
"","ISI","","html-keyboard-response","341","470112","0.0-1.0-480.0","0","0","48950","","null","","","null","53","NaN","","","","","","","","","","","","","","",""
"","S2","","html-keyboard-response","342","470366","0.0-1.0-481.0","0","0","48950","","null","","","null","53","","NaN","","","","","","","","","","","","","",""
"","response","","html-keyboard-response","343","471049","0.0-1.0-482.0","0","0","48950","","682","","","68","53","","","2","53","training","adjacent","FG","6","7","R.jpg","O.jpg","1","1","1","",""
"","feedback","","html-keyboard-response","344","472051","0.0-1.0-483.0-0.0","0","0","48950","","null","","","null","53","","","","","","","","","","","","","","","",""
"","ITI","","html-keyboard-response","345","473052","0.0-1.0-486.0","0","0","48950","","null","","","null","53","","","","","","","","","","","","","","","NaN",""
"","S1","","html-keyboard-response","346","473304","0.0-1.0-488.0","0","0","48950","","null","","","null","54","","","","","","","","","","","","","","","",""
"","ISI","","html-keyboard-response","347","475311","0.0-1.0-489.0","0","0","48950","","null","","","null","54","NaN","","","","","","","","","","","","","","",""
"","S2","","html-keyboard-response","348","475563","0.0-1.0-490.0","0","0","48950","","null","","","null","54","","NaN","","","","","","","","","","","","","",""
"","response","","html-keyboard-response","349","476425","0.0-1.0-491.0","0","0","48950","","861","","","68","54","","","2","54","training","adjacent","ED","5","4","P.jpg","M.jpg","1","0","0","",""
"","feedback","","html-keyboard-response","350","477427","0.0-1.0-492.0-0.0","0","0","48950","","null","","","null","54","","","","","","","","","","","","","","","",""
"","time_out","","html-keyboard-response","351","479438","0.0-1.0-494.0-0.0","0","0","48950","","null","","","null","54","","","","","","","","","","","","","","","",""
"","ITI","","html-keyboard-response","352","480440","0.0-1.0-495.0","0","0","48950","","null","","","null","54","","","","","","","","","","","","","","","NaN",""
"","S1","","html-keyboard-response","353","480694","0.0-1.0-497.0","0","0","48950","","null","","","null","55","","","","","","","","","","","","","","","",""
"","ISI","","html-keyboard-response","354","482695","0.0-1.0-498.0","0","0","48950","","null","","","null","55","NaN","","","","","","","","","","","","","","",""
"","S2","","html-keyboard-response","355","482950","0.0-1.0-499.0","0","0","48950","","null","","","null","55","","NaN","","","","","","","","","","","","","",""
"","response","","html-keyboard-response","356","483175","0.0-1.0-500.0","0","0","48950","","223","","","68","55","","","2","55","training","adjacent","AB","1","2","Q.jpg","N.jpg","1","1","1","",""
"","feedback","","html-keyboard-response","357","484177","0.0-1.0-501.0-0.0","0","0","48950","","null","","","null","55","","","","","","","","","","","","","","","",""
"","ITI","","html-keyboard-response","358","485179","0.0-1.0-504.0","0","0","48950","","null","","","null","55","","","","","","","","","","","","","","","NaN",""
"","S1","","html-keyboard-response","359","485431","0.0-1.0-506.0","0","0","48950","","null","","","null","56","","","","","","","","","","","","","","","",""
"","ISI","","html-keyboard-response","360","487435","0.0-1.0-507.0","0","0","48950","","null","","","null","56","NaN","","","","","","","","","","","","","","",""
"","S2","","html-keyboard-response","361","487686","0.0-1.0-508.0","0","0","48950","","null","","","null","56","","NaN","","","","","","","","","","","","","",""
"","response","","html-keyboard-response","362","488047","0.0-1.0-509.0","0","0","48950","","359","","","75","56","","","2","56","training","adjacent","DC","4","3","M.jpg","L.jpg","0","0","1","",""
"","feedback","","html-keyboard-response","363","489048","0.0-1.0-510.0-0.0","0","0","48950","","null","","","null","56","","","","","","","","","","","","","","","",""
"","ITI","","html-keyboard-response","364","490050","0.0-1.0-513.0","0","0","48950","","null","","","null","56","","","","","","","","","","","","","","","NaN",""
"","S1","","html-keyboard-response","365","490302","0.0-1.0-515.0","0","0","48950","","null","","","null","57","","","","","","","","","","","","","","","",""
"","ISI","","html-keyboard-response","366","492304","0.0-1.0-516.0","0","0","48950","","null","","","null","57","NaN","","","","","","","","","","","","","","",""
"","S2","","html-keyboard-response","367","492556","0.0-1.0-517.0","0","0","48950","","null","","","null","57","","NaN","","","","","","","","","","","","","",""
"","response","","html-keyboard-response","368","492841","0.0-1.0-518.0","0","0","48950","","283","","","68","57","","","2","57","training","adjacent","DE","4","5","M.jpg","P.jpg","1","1","1","",""
"","feedback","","html-keyboard-response","369","493844","0.0-1.0-519.0-0.0","0","0","48950","","null","","","null","57","","","","","","","","","","","","","","","",""
"","ITI","","html-keyboard-response","370","494846","0.0-1.0-522.0","0","0","48950","","null","","","null","57","","","","","","","","","","","","","","","NaN",""
"","S1","","html-keyboard-response","371","495097","0.0-1.0-524.0","0","0","48950","","null","","","null","58","","","","","","","","","","","","","","","",""
"","ISI","","html-keyboard-response","372","497099","0.0-1.0-525.0","0","0","48950","","null","","","null","58","NaN","","","","","","","","","","","","","","",""
"","S2","","html-keyboard-response","373","497352","0.0-1.0-526.0","0","0","48950","","null","","","null","58","","NaN","","","","","","","","","","","","","",""
"","response","","html-keyboard-response","374","497613","0.0-1.0-527.0","0","0","48950","","260","","","68","58","","","2","58","training","adjacent","AB","1","2","Q.jpg","N.jpg","1","1","1","",""
"","feedback","","html-keyboard-response","375","498617","0.0-1.0-528.0-0.0","0","0","48950","","null","","","null","58","","","","","","","","","","","","","","","",""
"","ITI","","html-keyboard-response","376","499621","0.0-1.0-531.0","0","0","48950","","null","","","null","58","","","","","","","","","","","","","","","NaN",""
"","S1","","html-keyboard-response","377","499878","0.0-1.0-533.0","0","0","48950","","null","","","null","59","","","","","","","","","","","","","","","",""
"","ISI","","html-keyboard-response","378","501880","0.0-1.0-534.0","0","0","48950","","null","","","null","59","NaN","","","","","","","","","","","","","","",""
"","S2","","html-keyboard-response","379","502132","0.0-1.0-535.0","0","0","48950","","null","","","null","59","","NaN","","","","","","","","","","","","","",""
"","response","","html-keyboard-response","380","502451","0.0-1.0-536.0","0","0","48950","","317","","","75","59","","","2","59","training","adjacent","BC","2","3","N.jpg","L.jpg","0","1","0","",""
"","feedback","","html-keyboard-response","381","503454","0.0-1.0-537.0-0.0","0","0","48950","","null","","","null","59","","","","","","","","","","","","","","","",""
"","time_out","","html-keyboard-response","382","505455","0.0-1.0-539.0-0.0","0","0","48950","","null","","","null","59","","","","","","","","","","","","","","","",""
"","ITI","","html-keyboard-response","383","506457","0.0-1.0-540.0","0","0","48950","","null","","","null","59","","","","","","","","","","","","","","","NaN",""
"","S1","","html-keyboard-response","384","506709","0.0-1.0-542.0","0","0","48950","","null","","","null","60","","","","","","","","","","","","","","","",""
"","ISI","","html-keyboard-response","385","508710","0.0-1.0-543.0","0","0","48950","","null","","","null","60","NaN","","","","","","","","","","","","","","",""
"","S2","","html-keyboard-response","386","508961","0.0-1.0-544.0","0","0","48950","","null","","","null","60","","NaN","","","","","","","","","","","","","",""
"","response","","html-keyboard-response","387","509431","0.0-1.0-545.0","0","0","48950","","468","","","75","60","","","2","60","training","adjacent","BA","2","1","N.jpg","Q.jpg","0","0","1","",""
"","feedback","","html-keyboard-response","388","510439","0.0-1.0-546.0-0.0","0","0","48950","","null","","","null","60","","","","","","","","","","","","","","","",""
"","ITI","","html-keyboard-response","389","511444","0.0-1.0-549.0","0","0","48950","","null","","","null","60","","","","","","","","","","","","","","","NaN",""
"","S1","","html-keyboard-response","390","511698","0.0-1.0-551.0","0","0","48950","","null","","","null","61","","","","","","","","","","","","","","","",""
"","ISI","","html-keyboard-response","391","513699","0.0-1.0-552.0","0","0","48950","","null","","","null","61","NaN","","","","","","","","","","","","","","",""
"","S2","","html-keyboard-response","392","513957","0.0-1.0-553.0","0","0","48950","","null","","","null","61","","NaN","","","","","","","","","","","","","",""
"","response","","html-keyboard-response","393","514313","0.0-1.0-554.0","0","0","48950","","354","","","68","61","","","2","61","training","adjacent","DE","4","5","M.jpg","P.jpg","1","1","1","",""
"","feedback","","html-keyboard-response","394","515314","0.0-1.0-555.0-0.0","0","0","48950","","null","","","null","61","","","","","","","","","","","","","","","",""
"","ITI","","html-keyboard-response","395","516316","0.0-1.0-558.0","0","0","48950","","null","","","null","61","","","","","","","","","","","","","","","NaN",""
"","S1","","html-keyboard-response","396","516575","0.0-1.0-560.0","0","0","48950","","null","","","null","62","","","","","","","","","","","","","","","",""
"","ISI","","html-keyboard-response","397","518579","0.0-1.0-561.0","0","0","48950","","null","","","null","62","NaN","","","","","","","","","","","","","","",""
"","S2","","html-keyboard-response","398","518832","0.0-1.0-562.0","0","0","48950","","null","","","null","62","","NaN","","","","","","","","","","","","","",""
"","response","","html-keyboard-response","399","519163","0.0-1.0-563.0","0","0","48950","","330","","","68","62","","","2","62","training","adjacent","FE","6","5","R.jpg","P.jpg","1","0","0","",""
"","feedback","","html-keyboard-response","400","520165","0.0-1.0-564.0-0.0","0","0","48950","","null","","","null","62","","","","","","","","","","","","","","","",""
"","time_out","","html-keyboard-response","401","522166","0.0-1.0-566.0-0.0","0","0","48950","","null","","","null","62","","","","","","","","","","","","","","","",""
"","ITI","","html-keyboard-response","402","523168","0.0-1.0-567.0","0","0","48950","","null","","","null","62","","","","","","","","","","","","","","","NaN",""
"","S1","","html-keyboard-response","403","523426","0.0-1.0-569.0","0","0","48950","","null","","","null","63","","","","","","","","","","","","","","","",""
"","ISI","","html-keyboard-response","404","525428","0.0-1.0-570.0","0","0","48950","","null","","","null","63","NaN","","","","","","","","","","","","","","",""
"","S2","","html-keyboard-response","405","525681","0.0-1.0-571.0","0","0","48950","","null","","","null","63","","NaN","","","","","","","","","","","","","",""
"","response","","html-keyboard-response","406","526511","0.0-1.0-572.0","0","0","48950","","828","","","68","63","","","2","63","training","adjacent","CD","3","4","L.jpg","M.jpg","1","1","1","",""
"","feedback","","html-keyboard-response","407","527513","0.0-1.0-573.0-0.0","0","0","48950","","null","","","null","63","","","","","","","","","","","","","","","",""
"","ITI","","html-keyboard-response","408","528515","0.0-1.0-576.0","0","0","48950","","null","","","null","63","","","","","","","","","","","","","","","NaN",""
"","S1","","html-keyboard-response","409","528770","0.0-1.0-578.0","0","0","48950","","null","","","null","64","","","","","","","","","","","","","","","",""
"","ISI","","html-keyboard-response","410","530772","0.0-1.0-579.0","0","0","48950","","null","","","null","64","NaN","","","","","","","","","","","","","","",""
"","S2","","html-keyboard-response","411","531023","0.0-1.0-580.0","0","0","48950","","null","","","null","64","","NaN","","","","","","","","","","","","","",""
"","response","","html-keyboard-response","412","531873","0.0-1.0-581.0","0","0","48950","","848","","","68","64","","","2","64","training","adjacent","FE","6","5","R.jpg","P.jpg","1","0","0","",""
"","feedback","","html-keyboard-response","413","532875","0.0-1.0-582.0-0.0","0","0","48950","","null","","","null","64","","","","","","","","","","","","","","","",""
"","time_out","","html-keyboard-response","414","534876","0.0-1.0-584.0-0.0","0","0","48950","","null","","","null","64","","","","","","","","","","","","","","","",""
"","ITI","","html-keyboard-response","415","535883","0.0-1.0-585.0","0","0","48950","","null","","","null","64","","","","","","","","","","","","","","","NaN",""
"","S1","","html-keyboard-response","416","536135","0.0-1.0-587.0","0","0","48950","","null","","","null","65","","","","","","","","","","","","","","","",""
"","ISI","","html-keyboard-response","417","538137","0.0-1.0-588.0","0","0","48950","","null","","","null","65","NaN","","","","","","","","","","","","","","",""
"","S2","","html-keyboard-response","418","538389","0.0-1.0-589.0","0","0","48950","","null","","","null","65","","NaN","","","","","","","","","","","","","",""
"","response","","html-keyboard-response","419","539081","0.0-1.0-590.0","0","0","48950","","691","","","68","65","","","2","65","training","adjacent","CD","3","4","L.jpg","M.jpg","1","1","1","",""
"","feedback","","html-keyboard-response","420","540083","0.0-1.0-591.0-0.0","0","0","48950","","null","","","null","65","","","","","","","","","","","","","","","",""
"","ITI","","html-keyboard-response","421","541085","0.0-1.0-594.0","0","0","48950","","null","","","null","65","","","","","","","","","","","","","","","NaN",""
"","S1","","html-keyboard-response","422","541347","0.0-1.0-596.0","0","0","48950","","null","","","null","66","","","","","","","","","","","","","","","",""
"","ISI","","html-keyboard-response","423","543349","0.0-1.0-597.0","0","0","48950","","null","","","null","66","NaN","","","","","","","","","","","","","","",""
"","S2","","html-keyboard-response","424","543601","0.0-1.0-598.0","0","0","48950","","null","","","null","66","","NaN","","","","","","","","","","","","","",""
"","response","","html-keyboard-response","425","544289","0.0-1.0-599.0","0","0","48950","","687","","","75","66","","","2","66","training","adjacent","EF","5","6","P.jpg","R.jpg","0","1","0","",""
"","feedback","","html-keyboard-response","426","545293","0.0-1.0-600.0-0.0","0","0","48950","","null","","","null","66","","","","","","","","","","","","","","","",""
"","time_out","","html-keyboard-response","427","547298","0.0-1.0-602.0-0.0","0","0","48950","","null","","","null","66","","","","","","","","","","","","","","","",""
"","ITI","","html-keyboard-response","428","548303","0.0-1.0-603.0","0","0","48950","","null","","","null","66","","","","","","","","","","","","","","","NaN",""
"","S1","","html-keyboard-response","429","548555","0.0-1.0-605.0","0","0","48950","","null","","","null","67","","","","","","","","","","","","","","","",""
"","ISI","","html-keyboard-response","430","550556","0.0-1.0-606.0","0","0","48950","","null","","","null","67","NaN","","","","","","","","","","","","","","",""
"","S2","","html-keyboard-response","431","550809","0.0-1.0-607.0","0","0","48950","","null","","","null","67","","NaN","","","","","","","","","","","","","",""
"","response","","html-keyboard-response","432","551069","0.0-1.0-608.0","0","0","48950","","258","","","68","67","","","2","67","training","adjacent","BC","2","3","N.jpg","L.jpg","1","1","1","",""
"","feedback","","html-keyboard-response","433","552071","0.0-1.0-609.0-0.0","0","0","48950","","null","","","null","67","","","","","","","","","","","","","","","",""
"","ITI","","html-keyboard-response","434","553074","0.0-1.0-612.0","0","0","48950","","null","","","null","67","","","","","","","","","","","","","","","NaN",""
"","S1","","html-keyboard-response","435","553326","0.0-1.0-614.0","0","0","48950","","null","","","null","68","","","","","","","","","","","","","","","",""
"","ISI","","html-keyboard-response","436","555329","0.0-1.0-615.0","0","0","48950","","null","","","null","68","NaN","","","","","","","","","","","","","","",""
"","S2","","html-keyboard-response","437","555582","0.0-1.0-616.0","0","0","48950","","null","","","null","68","","NaN","","","","","","","","","","","","","",""
"","response","","html-keyboard-response","438","556239","0.0-1.0-617.0","0","0","48950","","655","","","68","68","","","2","68","training","adjacent","AB","1","2","Q.jpg","N.jpg","1","1","1","",""
"","feedback","","html-keyboard-response","439","557244","0.0-1.0-618.0-0.0","0","0","48950","","null","","","null","68","","","","","","","","","","","","","","","",""
"","ITI","","html-keyboard-response","440","558247","0.0-1.0-621.0","0","0","48950","","null","","","null","68","","","","","","","","","","","","","","","NaN",""
"","S1","","html-keyboard-response","441","558500","0.0-1.0-623.0","0","0","48950","","null","","","null","69","","","","","","","","","","","","","","","",""
"","ISI","","html-keyboard-response","442","560502","0.0-1.0-624.0","0","0","48950","","null","","","null","69","NaN","","","","","","","","","","","","","","",""
"","S2","","html-keyboard-response","443","560754","0.0-1.0-625.0","0","0","48950","","null","","","null","69","","NaN","","","","","","","","","","","","","",""
"","response","","html-keyboard-response","444","561293","0.0-1.0-626.0","0","0","48950","","537","","","75","69","","","2","69","training","adjacent","BA","2","1","N.jpg","Q.jpg","0","0","1","",""
"","feedback","","html-keyboard-response","445","562296","0.0-1.0-627.0-0.0","0","0","48950","","null","","","null","69","","","","","","","","","","","","","","","",""
"","ITI","","html-keyboard-response","446","563298","0.0-1.0-630.0","0","0","48950","","null","","","null","69","","","","","","","","","","","","","","","NaN",""
"","S1","","html-keyboard-response","447","563553","0.0-1.0-632.0","0","0","48950","","null","","","null","70","","","","","","","","","","","","","","","",""
"","ISI","","html-keyboard-response","448","565554","0.0-1.0-633.0","0","0","48950","","null","","","null","70","NaN","","","","","","","","","","","","","","",""
"","S2","","html-keyboard-response","449","565808","0.0-1.0-634.0","0","0","48950","","null","","","null","70","","NaN","","","","","","","","","","","","","",""
"","response","","html-keyboard-response","450","566577","0.0-1.0-635.0","0","0","48950","","768","","","68","70","","","2","70","training","adjacent","FE","6","5","R.jpg","P.jpg","1","0","0","",""
"","feedback","","html-keyboard-response","451","567578","0.0-1.0-636.0-0.0","0","0","48950","","null","","","null","70","","","","","","","","","","","","","","","",""
"","time_out","","html-keyboard-response","452","569582","0.0-1.0-638.0-0.0","0","0","48950","","null","","","null","70","","","","","","","","","","","","","","","",""
"","ITI","","html-keyboard-response","453","570585","0.0-1.0-639.0","0","0","48950","","null","","","null","70","","","","","","","","","","","","","","","NaN",""
"","S1","","html-keyboard-response","454","570836","0.0-1.0-641.0","0","0","48950","","null","","","null","71","","","","","","","","","","","","","","","",""
"","ISI","","html-keyboard-response","455","572838","0.0-1.0-642.0","0","0","48950","","null","","","null","71","NaN","","","","","","","","","","","","","","",""
"","S2","","html-keyboard-response","456","573089","0.0-1.0-643.0","0","0","48950","","null","","","null","71","","NaN","","","","","","","","","","","","","",""
"","response","","html-keyboard-response","457","573579","0.0-1.0-644.0","0","0","48950","","489","","","68","71","","","2","71","training","adjacent","EF","5","6","P.jpg","R.jpg","1","1","1","",""
"","feedback","","html-keyboard-response","458","574583","0.0-1.0-645.0-0.0","0","0","48950","","null","","","null","71","","","","","","","","","","","","","","","",""
"","ITI","","html-keyboard-response","459","575584","0.0-1.0-648.0","0","0","48950","","null","","","null","71","","","","","","","","","","","","","","","NaN",""
"","S1","","html-keyboard-response","460","575836","0.0-1.0-650.0","0","0","48950","","null","","","null","72","","","","","","","","","","","","","","","",""
"","ISI","","html-keyboard-response","461","577837","0.0-1.0-651.0","0","0","48950","","null","","","null","72","NaN","","","","","","","","","","","","","","",""
"","S2","","html-keyboard-response","462","578089","0.0-1.0-652.0","0","0","48950","","null","","","null","72","","NaN","","","","","","","","","","","","","",""
"","response","","html-keyboard-response","463","578733","0.0-1.0-653.0","0","0","48950","","642","","","75","72","","","2","72","training","adjacent","DC","4","3","M.jpg","L.jpg","0","0","1","",""
"","feedback","","html-keyboard-response","464","579735","0.0-1.0-654.0-0.0","0","0","48950","","null","","","null","72","","","","","","","","","","","","","","","",""
"","ITI","","html-keyboard-response","465","580737","0.0-1.0-657.0","0","0","48950","","null","","","null","72","","","","","","","","","","","","","","","NaN",""
"","S1","","html-keyboard-response","466","580990","0.0-1.0-659.0","0","0","48950","","null","","","null","73","","","","","","","","","","","","","","","",""
"","ISI","","html-keyboard-response","467","582996","0.0-1.0-660.0","0","0","48950","","null","","","null","73","NaN","","","","","","","","","","","","","","",""
"","S2","","html-keyboard-response","468","583251","0.0-1.0-661.0","0","0","48950","","null","","","null","73","","NaN","","","","","","","","","","","","","",""
"","response","","html-keyboard-response","469","584159","0.0-1.0-662.0","0","0","48950","","907","","","75","73","","","2","73","training","adjacent","FG","6","7","R.jpg","O.jpg","0","1","0","",""
"","feedback","","html-keyboard-response","470","585161","0.0-1.0-663.0-0.0","0","0","48950","","null","","","null","73","","","","","","","","","","","","","","","",""
"","time_out","","html-keyboard-response","471","587163","0.0-1.0-665.0-0.0","0","0","48950","","null","","","null","73","","","","","","","","","","","","","","","",""
"","ITI","","html-keyboard-response","472","588165","0.0-1.0-666.0","0","0","48950","","null","","","null","73","","","","","","","","","","","","","","","NaN",""
"","S1","","html-keyboard-response","473","588416","0.0-1.0-668.0","0","0","48950","","null","","","null","74","","","","","","","","","","","","","","","",""
"","ISI","","html-keyboard-response","474","590419","0.0-1.0-669.0","0","0","48950","","null","","","null","74","NaN","","","","","","","","","","","","","","",""
"","S2","","html-keyboard-response","475","590670","0.0-1.0-670.0","0","0","48950","","null","","","null","74","","NaN","","","","","","","","","","","","","",""
"","response","","html-keyboard-response","476","591185","0.0-1.0-671.0","0","0","48950","","513","","","68","74","","","2","74","training","adjacent","EF","5","6","P.jpg","R.jpg","1","1","1","",""
"","feedback","","html-keyboard-response","477","592186","0.0-1.0-672.0-0.0","0","0","48950","","null","","","null","74","","","","","","","","","","","","","","","",""
"","ITI","","html-keyboard-response","478","593188","0.0-1.0-675.0","0","0","48950","","null","","","null","74","","","","","","","","","","","","","","","NaN",""
"","S1","","html-keyboard-response","479","593441","0.0-1.0-677.0","0","0","48950","","null","","","null","75","","","","","","","","","","","","","","","",""
"","ISI","","html-keyboard-response","480","595443","0.0-1.0-678.0","0","0","48950","","null","","","null","75","NaN","","","","","","","","","","","","","","",""
"","S2","","html-keyboard-response","481","595695","0.0-1.0-679.0","0","0","48950","","null","","","null","75","","NaN","","","","","","","","","","","","","",""
"","response","","html-keyboard-response","482","596643","0.0-1.0-680.0","0","0","48950","","947","","","75","75","","","2","75","training","adjacent","FE","6","5","R.jpg","P.jpg","0","0","1","",""
"","feedback","","html-keyboard-response","483","597644","0.0-1.0-681.0-0.0","0","0","48950","","null","","","null","75","","","","","","","","","","","","","","","",""
"","ITI","","html-keyboard-response","484","598647","0.0-1.0-684.0","0","0","48950","","null","","","null","75","","","","","","","","","","","","","","","NaN",""
"","S1","","html-keyboard-response","485","598900","0.0-1.0-686.0","0","0","48950","","null","","","null","76","","","","","","","","","","","","","","","",""
"","ISI","","html-keyboard-response","486","600902","0.0-1.0-687.0","0","0","48950","","null","","","null","76","NaN","","","","","","","","","","","","","","",""
"","S2","","html-keyboard-response","487","601153","0.0-1.0-688.0","0","0","48950","","null","","","null","76","","NaN","","","","","","","","","","","","","",""
"","response","","html-keyboard-response","488","601913","0.0-1.0-689.0","0","0","48950","","759","","","75","76","","","2","76","training","adjacent","BC","2","3","N.jpg","L.jpg","0","1","0","",""
"","feedback","","html-keyboard-response","489","602914","0.0-1.0-690.0-0.0","0","0","48950","","null","","","null","76","","","","","","","","","","","","","","","",""
"","time_out","","html-keyboard-response","490","604917","0.0-1.0-692.0-0.0","0","0","48950","","null","","","null","76","","","","","","","","","","","","","","","",""
"","ITI","","html-keyboard-response","491","605919","0.0-1.0-693.0","0","0","48950","","null","","","null","76","","","","","","","","","","","","","","","NaN",""
"","S1","","html-keyboard-response","492","606171","0.0-1.0-695.0","0","0","48950","","null","","","null","77","","","","","","","","","","","","","","","",""
"","ISI","","html-keyboard-response","493","608172","0.0-1.0-696.0","0","0","48950","","null","","","null","77","NaN","","","","","","","","","","","","","","",""
"","S2","","html-keyboard-response","494","608424","0.0-1.0-697.0","0","0","48950","","null","","","null","77","","NaN","","","","","","","","","","","","","",""
"","response","","html-keyboard-response","495","608995","0.0-1.0-698.0","0","0","48950","","570","","","75","77","","","2","77","training","adjacent","BA","2","1","N.jpg","Q.jpg","0","0","1","",""
"","feedback","","html-keyboard-response","496","609996","0.0-1.0-699.0-0.0","0","0","48950","","null","","","null","77","","","","","","","","","","","","","","","",""
"","ITI","","html-keyboard-response","497","610998","0.0-1.0-702.0","0","0","48950","","null","","","null","77","","","","","","","","","","","","","","","NaN",""
"","S1","","html-keyboard-response","498","611249","0.0-1.0-704.0","0","0","48950","","null","","","null","78","","","","","","","","","","","","","","","",""
"","ISI","","html-keyboard-response","499","613251","0.0-1.0-705.0","0","0","48950","","null","","","null","78","NaN","","","","","","","","","","","","","","",""
"","S2","","html-keyboard-response","500","613508","0.0-1.0-706.0","0","0","48950","","null","","","null","78","","NaN","","","","","","","","","","","","","",""
"","response","","html-keyboard-response","501","614109","0.0-1.0-707.0","0","0","48950","","600","","","68","78","","","2","78","training","adjacent","FG","6","7","R.jpg","O.jpg","1","1","1","",""
"","feedback","","html-keyboard-response","502","615111","0.0-1.0-708.0-0.0","0","0","48950","","null","","","null","78","","","","","","","","","","","","","","","",""
"","ITI","","html-keyboard-response","503","616112","0.0-1.0-711.0","0","0","48950","","null","","","null","78","","","","","","","","","","","","","","","NaN",""
"","S1","","html-keyboard-response","504","616375","0.0-1.0-713.0","0","0","48950","","null","","","null","79","","","","","","","","","","","","","","","",""
"","ISI","","html-keyboard-response","505","618377","0.0-1.0-714.0","0","0","48950","","null","","","null","79","NaN","","","","","","","","","","","","","","",""
"","S2","","html-keyboard-response","506","618628","0.0-1.0-715.0","0","0","48950","","null","","","null","79","","NaN","","","","","","","","","","","","","",""
"","response","","html-keyboard-response","507","618799","0.0-1.0-716.0","0","0","48950","","169","","","75","79","","","2","79","training","adjacent","GF","7","6","O.jpg","R.jpg","0","0","1","",""
"","feedback","","html-keyboard-response","508","619801","0.0-1.0-717.0-0.0","0","0","48950","","null","","","null","79","","","","","","","","","","","","","","","",""
"","ITI","","html-keyboard-response","509","620803","0.0-1.0-720.0","0","0","48950","","null","","","null","79","","","","","","","","","","","","","","","NaN",""
"","S1","","html-keyboard-response","510","621054","0.0-1.0-722.0","0","0","48950","","null","","","null","80","","","","","","","","","","","","","","","",""
"","ISI","","html-keyboard-response","511","623056","0.0-1.0-723.0","0","0","48950","","null","","","null","80","NaN","","","","","","","","","","","","","","",""
"","S2","","html-keyboard-response","512","623307","0.0-1.0-724.0","0","0","48950","","null","","","null","80","","NaN","","","","","","","","","","","","","",""
"","response","","html-keyboard-response","513","623895","0.0-1.0-725.0","0","0","48950","","586","","","75","80","","","2","80","training","adjacent","GF","7","6","O.jpg","R.jpg","0","0","1","",""
"","feedback","","html-keyboard-response","514","624897","0.0-1.0-726.0-0.0","0","0","48950","","null","","","null","80","","","","","","","","","","","","","","","",""
"","ITI","","html-keyboard-response","515","625899","0.0-1.0-729.0","0","0","48950","","null","","","null","80","","","","","","","","","","","","","","","NaN",""
"","S1","","html-keyboard-response","516","626152","0.0-1.0-731.0","0","0","48950","","null","","","null","81","","","","","","","","","","","","","","","",""
"","ISI","","html-keyboard-response","517","628153","0.0-1.0-732.0","0","0","48950","","null","","","null","81","NaN","","","","","","","","","","","","","","",""
"","S2","","html-keyboard-response","518","628405","0.0-1.0-733.0","0","0","48950","","null","","","null","81","","NaN","","","","","","","","","","","","","",""
"","response","","html-keyboard-response","519","628739","0.0-1.0-734.0","0","0","48950","","333","","","75","81","","","2","81","training","adjacent","GF","7","6","O.jpg","R.jpg","0","0","1","",""
"","feedback","","html-keyboard-response","520","629748","0.0-1.0-735.0-0.0","0","0","48950","","null","","","null","81","","","","","","","","","","","","","","","",""
"","ITI","","html-keyboard-response","521","630749","0.0-1.0-738.0","0","0","48950","","null","","","null","81","","","","","","","","","","","","","","","NaN",""
"","S1","","html-keyboard-response","522","631001","0.0-1.0-740.0","0","0","48950","","null","","","null","82","","","","","","","","","","","","","","","",""
"","ISI","","html-keyboard-response","523","633003","0.0-1.0-741.0","0","0","48950","","null","","","null","82","NaN","","","","","","","","","","","","","","",""
"","S2","","html-keyboard-response","524","633254","0.0-1.0-742.0","0","0","48950","","null","","","null","82","","NaN","","","","","","","","","","","","","",""
"","response","","html-keyboard-response","525","633831","0.0-1.0-743.0","0","0","48950","","576","","","68","82","","","2","82","training","adjacent","ED","5","4","P.jpg","M.jpg","1","0","0","",""
"","feedback","","html-keyboard-response","526","634832","0.0-1.0-744.0-0.0","0","0","48950","","null","","","null","82","","","","","","","","","","","","","","","",""
"","time_out","","html-keyboard-response","527","636841","0.0-1.0-746.0-0.0","0","0","48950","","null","","","null","82","","","","","","","","","","","","","","","",""
"","ITI","","html-keyboard-response","528","637848","0.0-1.0-747.0","0","0","48950","","null","","","null","82","","","","","","","","","","","","","","","NaN",""
"","S1","","html-keyboard-response","529","638100","0.0-1.0-749.0","0","0","48950","","null","","","null","83","","","","","","","","","","","","","","","",""
"","ISI","","html-keyboard-response","530","640102","0.0-1.0-750.0","0","0","48950","","null","","","null","83","NaN","","","","","","","","","","","","","","",""
"","S2","","html-keyboard-response","531","640355","0.0-1.0-751.0","0","0","48950","","null","","","null","83","","NaN","","","","","","","","","","","","","",""
"","response","","html-keyboard-response","532","640947","0.0-1.0-752.0","0","0","48950","","590","","","75","83","","","2","83","training","adjacent","CB","3","2","L.jpg","N.jpg","0","0","1","",""
"","feedback","","html-keyboard-response","533","641949","0.0-1.0-753.0-0.0","0","0","48950","","null","","","null","83","","","","","","","","","","","","","","","",""
"","ITI","","html-keyboard-response","534","642952","0.0-1.0-756.0","0","0","48950","","null","","","null","83","","","","","","","","","","","","","","","NaN",""
"","S1","","html-keyboard-response","535","643203","0.0-1.0-758.0","0","0","48950","","null","","","null","84","","","","","","","","","","","","","","","",""
"","ISI","","html-keyboard-response","536","645206","0.0-1.0-759.0","0","0","48950","","null","","","null","84","NaN","","","","","","","","","","","","","","",""
"","S2","","html-keyboard-response","537","645458","0.0-1.0-760.0","0","0","48950","","null","","","null","84","","NaN","","","","","","","","","","","","","",""
"","response","","html-keyboard-response","538","646087","0.0-1.0-761.0","0","0","48950","","628","","","75","84","","","2","84","training","adjacent","CB","3","2","L.jpg","N.jpg","0","0","1","",""
"","feedback","","html-keyboard-response","539","647089","0.0-1.0-762.0-0.0","0","0","48950","","null","","","null","84","","","","","","","","","","","","","","","",""
"","ITI","","html-keyboard-response","540","648090","0.0-1.0-765.0","0","0","48950","","null","","","null","84","","","","","","","","","","","","","","","NaN",""
"","S1","","html-keyboard-response","541","648342","0.0-1.0-767.0","0","0","48950","","null","","","null","85","","","","","","","","","","","","","","","",""
"","ISI","","html-keyboard-response","542","650344","0.0-1.0-768.0","0","0","48950","","null","","","null","85","NaN","","","","","","","","","","","","","","",""
"","S2","","html-keyboard-response","543","650596","0.0-1.0-769.0","0","0","48950","","null","","","null","85","","NaN","","","","","","","","","","","","","",""
"","response","","html-keyboard-response","544","651047","0.0-1.0-770.0","0","0","48950","","450","","","75","85","","","2","85","training","adjacent","DE","4","5","M.jpg","P.jpg","0","1","0","",""
"","feedback","","html-keyboard-response","545","652049","0.0-1.0-771.0-0.0","0","0","48950","","null","","","null","85","","","","","","","","","","","","","","","",""
"","time_out","","html-keyboard-response","546","654051","0.0-1.0-773.0-0.0","0","0","48950","","null","","","null","85","","","","","","","","","","","","","","","",""
"","ITI","","html-keyboard-response","547","655052","0.0-1.0-774.0","0","0","48950","","null","","","null","85","","","","","","","","","","","","","","","NaN",""
"","S1","","html-keyboard-response","548","655304","0.0-1.0-776.0","0","0","48950","","null","","","null","86","","","","","","","","","","","","","","","",""
"","ISI","","html-keyboard-response","549","657305","0.0-1.0-777.0","0","0","48950","","null","","","null","86","NaN","","","","","","","","","","","","","","",""
"","S2","","html-keyboard-response","550","657557","0.0-1.0-778.0","0","0","48950","","null","","","null","86","","NaN","","","","","","","","","","","","","",""
"","response","","html-keyboard-response","551","657855","0.0-1.0-779.0","0","0","48950","","297","","","68","86","","","2","86","training","adjacent","AB","1","2","Q.jpg","N.jpg","1","1","1","",""
"","feedback","","html-keyboard-response","552","658857","0.0-1.0-780.0-0.0","0","0","48950","","null","","","null","86","","","","","","","","","","","","","","","",""
"","ITI","","html-keyboard-response","553","659863","0.0-1.0-783.0","0","0","48950","","null","","","null","86","","","","","","","","","","","","","","","NaN",""
"","S1","","html-keyboard-response","554","660114","0.0-1.0-785.0","0","0","48950","","null","","","null","87","","","","","","","","","","","","","","","",""
"","ISI","","html-keyboard-response","555","662116","0.0-1.0-786.0","0","0","48950","","null","","","null","87","NaN","","","","","","","","","","","","","","",""
"","S2","","html-keyboard-response","556","662367","0.0-1.0-787.0","0","0","48950","","null","","","null","87","","NaN","","","","","","","","","","","","","",""
"","response","","html-keyboard-response","557","662681","0.0-1.0-788.0","0","0","48950","","312","","","75","87","","","2","87","training","adjacent","GF","7","6","O.jpg","R.jpg","0","0","1","",""
"","feedback","","html-keyboard-response","558","663684","0.0-1.0-789.0-0.0","0","0","48950","","null","","","null","87","","","","","","","","","","","","","","","",""
"","ITI","","html-keyboard-response","559","664686","0.0-1.0-792.0","0","0","48950","","null","","","null","87","","","","","","","","","","","","","","","NaN",""
"","S1","","html-keyboard-response","560","664938","0.0-1.0-794.0","0","0","48950","","null","","","null","88","","","","","","","","","","","","","","","",""
"","ISI","","html-keyboard-response","561","666947","0.0-1.0-795.0","0","0","48950","","null","","","null","88","NaN","","","","","","","","","","","","","","",""
"","S2","","html-keyboard-response","562","667199","0.0-1.0-796.0","0","0","48950","","null","","","null","88","","NaN","","","","","","","","","","","","","",""
"","response","","html-keyboard-response","563","668043","0.0-1.0-797.0","0","0","48950","","843","","","75","88","","","2","88","training","adjacent","ED","5","4","P.jpg","M.jpg","0","0","1","",""
"","feedback","","html-keyboard-response","564","669049","0.0-1.0-798.0-0.0","0","0","48950","","null","","","null","88","","","","","","","","","","","","","","","",""
"","ITI","","html-keyboard-response","565","670054","0.0-1.0-801.0","0","0","48950","","null","","","null","88","","","","","","","","","","","","","","","NaN",""
"","S1","","html-keyboard-response","566","670306","0.0-1.0-803.0","0","0","48950","","null","","","null","89","","","","","","","","","","","","","","","",""
"","ISI","","html-keyboard-response","567","672307","0.0-1.0-804.0","0","0","48950","","null","","","null","89","NaN","","","","","","","","","","","","","","",""
"","S2","","html-keyboard-response","568","672559","0.0-1.0-805.0","0","0","48950","","null","","","null","89","","NaN","","","","","","","","","","","","","",""
"","response","","html-keyboard-response","569","673311","0.0-1.0-806.0","0","0","48950","","750","","","68","89","","","2","89","training","adjacent","FG","6","7","R.jpg","O.jpg","1","1","1","",""
"","feedback","","html-keyboard-response","570","674312","0.0-1.0-807.0-0.0","0","0","48950","","null","","","null","89","","","","","","","","","","","","","","","",""
"","ITI","","html-keyboard-response","571","675315","0.0-1.0-810.0","0","0","48950","","null","","","null","89","","","","","","","","","","","","","","","NaN",""
"","S1","","html-keyboard-response","572","675568","0.0-1.0-812.0","0","0","48950","","null","","","null","90","","","","","","","","","","","","","","","",""
"","ISI","","html-keyboard-response","573","677570","0.0-1.0-813.0","0","0","48950","","null","","","null","90","NaN","","","","","","","","","","","","","","",""
"","S2","","html-keyboard-response","574","677821","0.0-1.0-814.0","0","0","48950","","null","","","null","90","","NaN","","","","","","","","","","","","","",""
"","response","","html-keyboard-response","575","678807","0.0-1.0-815.0","0","0","48950","","984","","","75","90","","","2","90","training","adjacent","DC","4","3","M.jpg","L.jpg","0","0","1","",""
"","feedback","","html-keyboard-response","576","679809","0.0-1.0-816.0-0.0","0","0","48950","","null","","","null","90","","","","","","","","","","","","","","","",""
"","ITI","","html-keyboard-response","577","680811","0.0-1.0-819.0","0","0","48950","","null","","","null","90","","","","","","","","","","","","","","","NaN",""
"","S1","","html-keyboard-response","578","681063","0.0-1.0-821.0","0","0","48950","","null","","","null","91","","","","","","","","","","","","","","","",""
"","ISI","","html-keyboard-response","579","683064","0.0-1.0-822.0","0","0","48950","","null","","","null","91","NaN","","","","","","","","","","","","","","",""
"","S2","","html-keyboard-response","580","683319","0.0-1.0-823.0","0","0","48950","","null","","","null","91","","NaN","","","","","","","","","","","","","",""
"","response","","html-keyboard-response","581","683717","0.0-1.0-824.0","0","0","48950","","397","","","68","91","","","2","91","training","adjacent","BC","2","3","N.jpg","L.jpg","1","1","1","",""
"","feedback","","html-keyboard-response","582","684719","0.0-1.0-825.0-0.0","0","0","48950","","null","","","null","91","","","","","","","","","","","","","","","",""
"","ITI","","html-keyboard-response","583","685720","0.0-1.0-828.0","0","0","48950","","null","","","null","91","","","","","","","","","","","","","","","NaN",""
"","S1","","html-keyboard-response","584","685975","0.0-1.0-830.0","0","0","48950","","null","","","null","92","","","","","","","","","","","","","","","",""
