"success","ttype","start_time","trial_type","trial_index","time_elapsed","internal_node_id","warning","missed_checkup","PID","view_history","rt","responses","repeat_instructions","key_press","index","keypress_isi","keypress_S2","block","trial_num","phase","group_type","pair_type","S1_stim","S2_stim","S1_img","S2_img","S1_chosen","S1_higher","accuracy","keypress_iti","total_bonus_tally"
"true","full_screen","d04142023hr1504","fullscreen","0","15390","0.0-0.0","0","0","98330","","","","","","","","","","","","","","","","","","","","","",""
"","instructions","","instructions","1","61637","0.0-1.0-0.0-0.0","0","0","98330","[{""page_index"":0,""viewing_time"":4907},{""page_index"":1,""viewing_time"":30764},{""page_index"":2,""viewing_time"":8083},{""page_index"":3,""viewing_time"":2490}]","46244","","","","","","","","","","","","","","","","","","","",""
"","comprehension_check","","survey-multi-choice","2","81470","0.0-1.0-0.0-1.0","0","0","98330","","19826","{""Q0"":""True"",""Q1"":""D"",""Q2"":""Once the second image appears and while the screen 'MAKE A CHOICE' is shown"",""Q3"":""Green mark"",""Q4"":""either D or K""}","0","","","","","","","","","","","","","","","","","",""
"","start_exp","","html-keyboard-response","3","151886","0.0-1.0-1.0","0","0","98330","","70412","","","32","","","","","","","","","","","","","","","","",""
"","S1","","html-keyboard-response","4","152144","0.0-1.0-2.0","0","0","98330","","null","","","null","0","","","","","","","","","","","","","","","",""
"","ISI","","html-keyboard-response","5","153148","0.0-1.0-3.0","0","0","98330","","null","","","null","0","NaN","","","","","","","","","","","","","","",""
"","S2","","html-keyboard-response","6","153403","0.0-1.0-4.0","0","0","98330","","null","","","null","0","","NaN","","","","","","","","","","","","","",""
"","response","","html-keyboard-response","7","155156","0.0-1.0-5.0-0.0","0","0","98330","","null","","","null","0","","","1","0","training","adjacent","FG","6","7","R.jpg","O.jpg","NaN","1","0","",""
"","too_slow_prompt","","html-keyboard-response","8","156160","0.0-1.0-7.0-0.0","1","0","98330","","null","","","null","","","","","","","","","","","","","","","","",""
"","time_out","","html-keyboard-response","9","158165","0.0-1.0-8.0-0.0","0","0","98330","","null","","","null","0","","","","","","","","","","","","","","","",""
"","ITI","","html-keyboard-response","10","159167","0.0-1.0-9.0","0","0","98330","","930","","","68","0","","","","","","","","","","","","","","","d",""
"","S1","","html-keyboard-response","11","159423","0.0-1.0-11.0","0","0","98330","","null","","","null","1","","","","","","","","","","","","","","","",""
"","ISI","","html-keyboard-response","12","160427","0.0-1.0-12.0","0","0","98330","","null","","","null","1","NaN","","","","","","","","","","","","","","",""
"","S2","","html-keyboard-response","13","160682","0.0-1.0-13.0","0","0","98330","","null","","","null","1","","NaN","","","","","","","","","","","","","",""
"","response","","html-keyboard-response","14","161305","0.0-1.0-14.0-0.0","0","0","98330","","620","","","68","1","","","1","1","training","adjacent","DE","4","5","P.jpg","N.jpg","1","1","1","",""
"","feedback","","html-keyboard-response","15","162308","0.0-1.0-15.0-0.0","0","0","98330","","null","","","null","1","","","","","","","","","","","","","","","",""
"","ITI","","html-keyboard-response","16","163312","0.0-1.0-18.0","0","0","98330","","null","","","null","1","","","","","","","","","","","","","","","NaN",""
"","S1","","html-keyboard-response","17","163568","0.0-1.0-20.0","0","0","98330","","null","","","null","2","","","","","","","","","","","","","","","",""
"","ISI","","html-keyboard-response","18","164572","0.0-1.0-21.0","0","0","98330","","null","","","null","2","NaN","","","","","","","","","","","","","","",""
"","S2","","html-keyboard-response","19","164827","0.0-1.0-22.0","0","0","98330","","null","","","null","2","","NaN","","","","","","","","","","","","","",""
"","response","","html-keyboard-response","20","165615","0.0-1.0-23.0-0.0","0","0","98330","","786","","","75","2","","","1","2","training","adjacent","GF","7","6","O.jpg","R.jpg","0","0","1","",""
"","feedback","","html-keyboard-response","21","166621","0.0-1.0-24.0-0.0","0","0","98330","","null","","","null","2","","","","","","","","","","","","","","","",""
"","ITI","","html-keyboard-response","22","167625","0.0-1.0-27.0","0","0","98330","","null","","","null","2","","","","","","","","","","","","","","","NaN",""
"","S1","","html-keyboard-response","23","167880","0.0-1.0-29.0","0","0","98330","","null","","","null","3","","","","","","","","","","","","","","","",""
"","ISI","","html-keyboard-response","24","168884","0.0-1.0-30.0","0","0","98330","","null","","","null","3","NaN","","","","","","","","","","","","","","",""
"","S2","","html-keyboard-response","25","169140","0.0-1.0-31.0","0","0","98330","","null","","","null","3","","NaN","","","","","","","","","","","","","",""
"","response","","html-keyboard-response","26","170108","0.0-1.0-32.0-0.0","0","0","98330","","967","","","68","3","","","1","3","training","adjacent","FG","6","7","R.jpg","O.jpg","1","1","1","",""
"","feedback","","html-keyboard-response","27","171111","0.0-1.0-33.0-0.0","0","0","98330","","null","","","null","3","","","","","","","","","","","","","","","",""
"","ITI","","html-keyboard-response","28","172113","0.0-1.0-36.0","0","0","98330","","null","","","null","3","","","","","","","","","","","","","","","NaN",""
"","S1","","html-keyboard-response","29","172368","0.0-1.0-38.0","0","0","98330","","null","","","null","4","","","","","","","","","","","","","","","",""
"","ISI","","html-keyboard-response","30","173372","0.0-1.0-39.0","0","0","98330","","null","","","null","4","NaN","","","","","","","","","","","","","","",""
"","S2","","html-keyboard-response","31","173628","0.0-1.0-40.0","0","0","98330","","null","","","null","4","","NaN","","","","","","","","","","","","","",""
"","response","","html-keyboard-response","32","174546","0.0-1.0-41.0-0.0","0","0","98330","","917","","","75","4","","","1","4","training","adjacent","EF","5","6","N.jpg","R.jpg","0","1","0","",""
"","feedback","","html-keyboard-response","33","175552","0.0-1.0-42.0-0.0","0","0","98330","","null","","","null","4","","","","","","","","","","","","","","","",""
"","time_out","","html-keyboard-response","34","177557","0.0-1.0-44.0-0.0","0","0","98330","","null","","","null","4","","","","","","","","","","","","","","","",""
"","ITI","","html-keyboard-response","35","178561","0.0-1.0-45.0","0","0","98330","","null","","","null","4","","","","","","","","","","","","","","","NaN",""
"","S1","","html-keyboard-response","36","178817","0.0-1.0-47.0","0","0","98330","","null","","","null","5","","","","","","","","","","","","","","","",""
"","ISI","","html-keyboard-response","37","179821","0.0-1.0-48.0","0","0","98330","","null","","","null","5","NaN","","","","","","","","","","","","","","",""
"","S2","","html-keyboard-response","38","180076","0.0-1.0-49.0","0","0","98330","","null","","","null","5","","NaN","","","","","","","","","","","","","",""
"","response","","html-keyboard-response","39","180854","0.0-1.0-50.0-0.0","0","0","98330","","775","","","68","5","","","1","5","training","adjacent","CB","3","2","L.jpg","Q.jpg","1","0","0","",""
"","feedback","","html-keyboard-response","40","181858","0.0-1.0-51.0-0.0","0","0","98330","","null","","","null","5","","","","","","","","","","","","","","","",""
"","time_out","","html-keyboard-response","41","183861","0.0-1.0-53.0-0.0","0","0","98330","","null","","","null","5","","","","","","","","","","","","","","","",""
"","ITI","","html-keyboard-response","42","184866","0.0-1.0-54.0","0","0","98330","","null","","","null","5","","","","","","","","","","","","","","","NaN",""
"","S1","","html-keyboard-response","43","185123","0.0-1.0-56.0","0","0","98330","","null","","","null","6","","","","","","","","","","","","","","","",""
"","ISI","","html-keyboard-response","44","186125","0.0-1.0-57.0","0","0","98330","","null","","","null","6","NaN","","","","","","","","","","","","","","",""
"","S2","","html-keyboard-response","45","186380","0.0-1.0-58.0","0","0","98330","","null","","","null","6","","NaN","","","","","","","","","","","","","",""
"","response","","html-keyboard-response","46","186887","0.0-1.0-59.0-0.0","0","0","98330","","505","","","68","6","","","1","6","training","adjacent","CB","3","2","L.jpg","Q.jpg","1","0","0","",""
"","feedback","","html-keyboard-response","47","187890","0.0-1.0-60.0-0.0","0","0","98330","","null","","","null","6","","","","","","","","","","","","","","","",""
"","time_out","","html-keyboard-response","48","189892","0.0-1.0-62.0-0.0","0","0","98330","","null","","","null","6","","","","","","","","","","","","","","","",""
"","ITI","","html-keyboard-response","49","190897","0.0-1.0-63.0","0","0","98330","","null","","","null","6","","","","","","","","","","","","","","","NaN",""
"","S1","","html-keyboard-response","50","191152","0.0-1.0-65.0","0","0","98330","","null","","","null","7","","","","","","","","","","","","","","","",""
"","ISI","","html-keyboard-response","51","192156","0.0-1.0-66.0","0","0","98330","","null","","","null","7","NaN","","","","","","","","","","","","","","",""
"","S2","","html-keyboard-response","52","192412","0.0-1.0-67.0","0","0","98330","","null","","","null","7","","NaN","","","","","","","","","","","","","",""
"","response","","html-keyboard-response","53","192918","0.0-1.0-68.0-0.0","0","0","98330","","504","","","75","7","","","1","7","training","adjacent","CD","3","4","L.jpg","P.jpg","0","1","0","",""
"","feedback","","html-keyboard-response","54","193921","0.0-1.0-69.0-0.0","0","0","98330","","null","","","null","7","","","","","","","","","","","","","","","",""
"","time_out","","html-keyboard-response","55","195924","0.0-1.0-71.0-0.0","0","0","98330","","null","","","null","7","","","","","","","","","","","","","","","",""
"","ITI","","html-keyboard-response","56","196928","0.0-1.0-72.0","0","0","98330","","null","","","null","7","","","","","","","","","","","","","","","NaN",""
"","S1","","html-keyboard-response","57","197184","0.0-1.0-74.0","0","0","98330","","null","","","null","8","","","","","","","","","","","","","","","",""
"","ISI","","html-keyboard-response","58","198188","0.0-1.0-75.0","0","0","98330","","null","","","null","8","NaN","","","","","","","","","","","","","","",""
"","S2","","html-keyboard-response","59","198443","0.0-1.0-76.0","0","0","98330","","null","","","null","8","","NaN","","","","","","","","","","","","","",""
"","response","","html-keyboard-response","60","199368","0.0-1.0-77.0-0.0","0","0","98330","","922","","","75","8","","","1","8","training","adjacent","BA","2","1","Q.jpg","M.jpg","0","0","1","",""
"","feedback","","html-keyboard-response","61","200372","0.0-1.0-78.0-0.0","0","0","98330","","null","","","null","8","","","","","","","","","","","","","","","",""
"","ITI","","html-keyboard-response","62","201374","0.0-1.0-81.0","0","0","98330","","null","","","null","8","","","","","","","","","","","","","","","NaN",""
"","S1","","html-keyboard-response","63","201630","0.0-1.0-83.0","0","0","98330","","null","","","null","9","","","","","","","","","","","","","","","",""
"","ISI","","html-keyboard-response","64","202634","0.0-1.0-84.0","0","0","98330","","null","","","null","9","NaN","","","","","","","","","","","","","","",""
"","S2","","html-keyboard-response","65","202889","0.0-1.0-85.0","0","0","98330","","null","","","null","9","","NaN","","","","","","","","","","","","","",""
"","response","","html-keyboard-response","66","203083","0.0-1.0-86.0-0.0","0","0","98330","","191","","","68","9","","","1","9","training","adjacent","EF","5","6","N.jpg","R.jpg","1","1","1","",""
"","feedback","","html-keyboard-response","67","204087","0.0-1.0-87.0-0.0","0","0","98330","","null","","","null","9","","","","","","","","","","","","","","","",""
"","ITI","","html-keyboard-response","68","205089","0.0-1.0-90.0","0","0","98330","","null","","","null","9","","","","","","","","","","","","","","","NaN",""
"","S1","","html-keyboard-response","69","205345","0.0-1.0-92.0","0","0","98330","","null","","","null","10","","","","","","","","","","","","","","","",""
"","ISI","","html-keyboard-response","70","206349","0.0-1.0-93.0","0","0","98330","","null","","","null","10","NaN","","","","","","","","","","","","","","",""
"","S2","","html-keyboard-response","71","206604","0.0-1.0-94.0","0","0","98330","","null","","","null","10","","NaN","","","","","","","","","","","","","",""
"","response","","html-keyboard-response","72","207527","0.0-1.0-95.0-0.0","0","0","98330","","920","","","68","10","","","1","10","training","adjacent","FG","6","7","R.jpg","O.jpg","1","1","1","",""
"","feedback","","html-keyboard-response","73","208532","0.0-1.0-96.0-0.0","0","0","98330","","null","","","null","10","","","","","","","","","","","","","","","",""
"","ITI","","html-keyboard-response","74","209536","0.0-1.0-99.0","0","0","98330","","null","","","null","10","","","","","","","","","","","","","","","NaN",""
"","S1","","html-keyboard-response","75","209792","0.0-1.0-101.0","0","0","98330","","null","","","null","11","","","","","","","","","","","","","","","",""
"","ISI","","html-keyboard-response","76","210797","0.0-1.0-102.0","0","0","98330","","null","","","null","11","NaN","","","","","","","","","","","","","","",""
"","S2","","html-keyboard-response","77","211051","0.0-1.0-103.0","0","0","98330","","null","","","null","11","","NaN","","","","","","","","","","","","","",""
"","response","","html-keyboard-response","78","212143","0.0-1.0-104.0-0.0","0","0","98330","","1090","","","75","11","","","1","11","training","adjacent","CD","3","4","L.jpg","P.jpg","0","1","0","",""
"","feedback","","html-keyboard-response","79","213147","0.0-1.0-105.0-0.0","0","0","98330","","null","","","null","11","","","","","","","","","","","","","","","",""
"","time_out","","html-keyboard-response","80","215150","0.0-1.0-107.0-0.0","0","0","98330","","null","","","null","11","","","","","","","","","","","","","","","",""
"","ITI","","html-keyboard-response","81","216156","0.0-1.0-108.0","0","0","98330","","null","","","null","11","","","","","","","","","","","","","","","NaN",""
"","S1","","html-keyboard-response","82","216409","0.0-1.0-110.0","0","0","98330","","null","","","null","12","","","","","","","","","","","","","","","",""
"","ISI","","html-keyboard-response","83","217413","0.0-1.0-111.0","0","0","98330","","null","","","null","12","NaN","","","","","","","","","","","","","","",""
"","S2","","html-keyboard-response","84","217669","0.0-1.0-112.0","0","0","98330","","null","","","null","12","","NaN","","","","","","","","","","","","","",""
"","response","","html-keyboard-response","85","218351","0.0-1.0-113.0-0.0","0","0","98330","","680","","","68","12","","","1","12","training","adjacent","AB","1","2","M.jpg","Q.jpg","1","1","1","",""
"","feedback","","html-keyboard-response","86","219354","0.0-1.0-114.0-0.0","0","0","98330","","null","","","null","12","","","","","","","","","","","","","","","",""
"","ITI","","html-keyboard-response","87","220357","0.0-1.0-117.0","0","0","98330","","null","","","null","12","","","","","","","","","","","","","","","NaN",""
"","S1","","html-keyboard-response","88","220612","0.0-1.0-119.0","0","0","98330","","null","","","null","13","","","","","","","","","","","","","","","",""
"","ISI","","html-keyboard-response","89","221616","0.0-1.0-120.0","0","0","98330","","null","","","null","13","NaN","","","","","","","","","","","","","","",""
"","S2","","html-keyboard-response","90","221871","0.0-1.0-121.0","0","0","98330","","null","","","null","13","","NaN","","","","","","","","","","","","","",""
"","response","","html-keyboard-response","91","222506","0.0-1.0-122.0-0.0","0","0","98330","","633","","","68","13","","","1","13","training","adjacent","CD","3","4","L.jpg","P.jpg","1","1","1","",""
"","feedback","","html-keyboard-response","92","223511","0.0-1.0-123.0-0.0","0","0","98330","","null","","","null","13","","","","","","","","","","","","","","","",""
"","ITI","","html-keyboard-response","93","224515","0.0-1.0-126.0","0","0","98330","","null","","","null","13","","","","","","","","","","","","","","","NaN",""
"","S1","","html-keyboard-response","94","224768","0.0-1.0-128.0","0","0","98330","","null","","","null","14","","","","","","","","","","","","","","","",""
"","ISI","","html-keyboard-response","95","225772","0.0-1.0-129.0","0","0","98330","","null","","","null","14","NaN","","","","","","","","","","","","","","",""
"","S2","","html-keyboard-response","96","226028","0.0-1.0-130.0","0","0","98330","","null","","","null","14","","NaN","","","","","","","","","","","","","",""
"","response","","html-keyboard-response","97","226789","0.0-1.0-131.0-0.0","0","0","98330","","760","","","75","14","","","1","14","training","adjacent","DC","4","3","P.jpg","L.jpg","0","0","1","",""
"","feedback","","html-keyboard-response","98","227792","0.0-1.0-132.0-0.0","0","0","98330","","null","","","null","14","","","","","","","","","","","","","","","",""
"","ITI","","html-keyboard-response","99","228796","0.0-1.0-135.0","0","0","98330","","null","","","null","14","","","","","","","","","","","","","","","NaN",""
"","S1","","html-keyboard-response","100","229052","0.0-1.0-137.0","0","0","98330","","null","","","null","15","","","","","","","","","","","","","","","",""
"","ISI","","html-keyboard-response","101","230056","0.0-1.0-138.0","0","0","98330","","null","","","null","15","NaN","","","","","","","","","","","","","","",""
"","S2","","html-keyboard-response","102","230312","0.0-1.0-139.0","0","0","98330","","null","","","null","15","","NaN","","","","","","","","","","","","","",""
"","response","","html-keyboard-response","103","230536","0.0-1.0-140.0-0.0","0","0","98330","","223","","","75","15","","","1","15","training","adjacent","EF","5","6","N.jpg","R.jpg","0","1","0","",""
"","feedback","","html-keyboard-response","104","231542","0.0-1.0-141.0-0.0","0","0","98330","","null","","","null","15","","","","","","","","","","","","","","","",""
"","time_out","","html-keyboard-response","105","233545","0.0-1.0-143.0-0.0","0","0","98330","","null","","","null","15","","","","","","","","","","","","","","","",""
"","ITI","","html-keyboard-response","106","234549","0.0-1.0-144.0","0","0","98330","","null","","","null","15","","","","","","","","","","","","","","","NaN",""
"","S1","","html-keyboard-response","107","234804","0.0-1.0-146.0","0","0","98330","","null","","","null","16","","","","","","","","","","","","","","","",""
"","ISI","","html-keyboard-response","108","235809","0.0-1.0-147.0","0","0","98330","","null","","","null","16","NaN","","","","","","","","","","","","","","",""
"","S2","","html-keyboard-response","109","236064","0.0-1.0-148.0","0","0","98330","","null","","","null","16","","NaN","","","","","","","","","","","","","",""
"","response","","html-keyboard-response","110","236979","0.0-1.0-149.0-0.0","0","0","98330","","912","","","68","16","","","1","16","training","adjacent","FE","6","5","R.jpg","N.jpg","1","0","0","",""
"","feedback","","html-keyboard-response","111","237985","0.0-1.0-150.0-0.0","0","0","98330","","null","","","null","16","","","","","","","","","","","","","","","",""
"","time_out","","html-keyboard-response","112","239988","0.0-1.0-152.0-0.0","0","0","98330","","null","","","null","16","","","","","","","","","","","","","","","",""
"","ITI","","html-keyboard-response","113","240992","0.0-1.0-153.0","0","0","98330","","null","","","null","16","","","","","","","","","","","","","","","NaN",""
"","S1","","html-keyboard-response","114","241248","0.0-1.0-155.0","0","0","98330","","null","","","null","17","","","","","","","","","","","","","","","",""
"","ISI","","html-keyboard-response","115","242252","0.0-1.0-156.0","0","0","98330","","null","","","null","17","NaN","","","","","","","","","","","","","","",""
"","S2","","html-keyboard-response","116","242507","0.0-1.0-157.0","0","0","98330","","null","","","null","17","","NaN","","","","","","","","","","","","","",""
"","response","","html-keyboard-response","117","243329","0.0-1.0-158.0-0.0","0","0","98330","","820","","","68","17","","","1","17","training","adjacent","BC","2","3","Q.jpg","L.jpg","1","1","1","",""
"","feedback","","html-keyboard-response","118","244336","0.0-1.0-159.0-0.0","0","0","98330","","null","","","null","17","","","","","","","","","","","","","","","",""
"","ITI","","html-keyboard-response","119","245340","0.0-1.0-162.0","0","0","98330","","null","","","null","17","","","","","","","","","","","","","","","NaN",""
"","S1","","html-keyboard-response","120","245596","0.0-1.0-164.0","0","0","98330","","null","","","null","18","","","","","","","","","","","","","","","",""
"","ISI","","html-keyboard-response","121","246600","0.0-1.0-165.0","0","0","98330","","null","","","null","18","NaN","","","","","","","","","","","","","","",""
"","S2","","html-keyboard-response","122","246855","0.0-1.0-166.0","0","0","98330","","null","","","null","18","","NaN","","","","","","","","","","","","","",""
"","response","","html-keyboard-response","123","248036","0.0-1.0-167.0-0.0","0","0","98330","","1178","","","75","18","","","1","18","training","adjacent","AB","1","2","M.jpg","Q.jpg","0","1","0","",""
"","feedback","","html-keyboard-response","124","249038","0.0-1.0-168.0-0.0","0","0","98330","","null","","","null","18","","","","","","","","","","","","","","","",""
"","time_out","","html-keyboard-response","125","251041","0.0-1.0-170.0-0.0","0","0","98330","","null","","","null","18","","","","","","","","","","","","","","","",""
"","ITI","","html-keyboard-response","126","252045","0.0-1.0-171.0","0","0","98330","","null","","","null","18","","","","","","","","","","","","","","","NaN",""
"","S1","","html-keyboard-response","127","252300","0.0-1.0-173.0","0","0","98330","","null","","","null","19","","","","","","","","","","","","","","","",""
"","ISI","","html-keyboard-response","128","253305","0.0-1.0-174.0","0","0","98330","","null","","","null","19","NaN","","","","","","","","","","","","","","",""
"","S2","","html-keyboard-response","129","253560","0.0-1.0-175.0","0","0","98330","","null","","","null","19","","NaN","","","","","","","","","","","","","",""
"","response","","html-keyboard-response","130","253813","0.0-1.0-176.0-0.0","0","0","98330","","251","","","75","19","","","1","19","training","adjacent","BA","2","1","Q.jpg","M.jpg","0","0","1","",""
"","feedback","","html-keyboard-response","131","254819","0.0-1.0-177.0-0.0","0","0","98330","","null","","","null","19","","","","","","","","","","","","","","","",""
"","ITI","","html-keyboard-response","132","255824","0.0-1.0-180.0","0","0","98330","","null","","","null","19","","","","","","","","","","","","","","","NaN",""
"","S1","","html-keyboard-response","133","256079","0.0-1.0-182.0","0","0","98330","","null","","","null","20","","","","","","","","","","","","","","","",""
"","ISI","","html-keyboard-response","134","257083","0.0-1.0-183.0","0","0","98330","","null","","","null","20","NaN","","","","","","","","","","","","","","",""
"","S2","","html-keyboard-response","135","257339","0.0-1.0-184.0","0","0","98330","","null","","","null","20","","NaN","","","","","","","","","","","","","",""
"","response","","html-keyboard-response","136","258046","0.0-1.0-185.0-0.0","0","0","98330","","705","","","75","20","","","1","20","training","adjacent","EF","5","6","N.jpg","R.jpg","0","1","0","",""
"","feedback","","html-keyboard-response","137","259051","0.0-1.0-186.0-0.0","0","0","98330","","null","","","null","20","","","","","","","","","","","","","","","",""
"","time_out","","html-keyboard-response","138","261054","0.0-1.0-188.0-0.0","0","0","98330","","null","","","null","20","","","","","","","","","","","","","","","",""
"","ITI","","html-keyboard-response","139","262058","0.0-1.0-189.0","0","0","98330","","null","","","null","20","","","","","","","","","","","","","","","NaN",""
"","S1","","html-keyboard-response","140","262314","0.0-1.0-191.0","0","0","98330","","null","","","null","21","","","","","","","","","","","","","","","",""
"","ISI","","html-keyboard-response","141","263318","0.0-1.0-192.0","0","0","98330","","null","","","null","21","NaN","","","","","","","","","","","","","","",""
"","S2","","html-keyboard-response","142","263573","0.0-1.0-193.0","0","0","98330","","null","","","null","21","","NaN","","","","","","","","","","","","","",""
"","response","","html-keyboard-response","143","263823","0.0-1.0-194.0-0.0","0","0","98330","","247","","","75","21","","","1","21","training","adjacent","DC","4","3","P.jpg","L.jpg","0","0","1","",""
"","feedback","","html-keyboard-response","144","264827","0.0-1.0-195.0-0.0","0","0","98330","","null","","","null","21","","","","","","","","","","","","","","","",""
"","ITI","","html-keyboard-response","145","265832","0.0-1.0-198.0","0","0","98330","","null","","","null","21","","","","","","","","","","","","","","","NaN",""
"","S1","","html-keyboard-response","146","266087","0.0-1.0-200.0","0","0","98330","","null","","","null","22","","","","","","","","","","","","","","","",""
"","ISI","","html-keyboard-response","147","267092","0.0-1.0-201.0","0","0","98330","","null","","","null","22","NaN","","","","","","","","","","","","","","",""
"","S2","","html-keyboard-response","148","267347","0.0-1.0-202.0","0","0","98330","","null","","","null","22","","NaN","","","","","","","","","","","","","",""
"","response","","html-keyboard-response","149","267750","0.0-1.0-203.0-0.0","0","0","98330","","402","","","75","22","","","1","22","training","adjacent","CD","3","4","L.jpg","P.jpg","0","1","0","",""
"","feedback","","html-keyboard-response","150","268757","0.0-1.0-204.0-0.0","0","0","98330","","null","","","null","22","","","","","","","","","","","","","","","",""
"","time_out","","html-keyboard-response","151","270760","0.0-1.0-206.0-0.0","0","0","98330","","null","","","null","22","","","","","","","","","","","","","","","",""
"","ITI","","html-keyboard-response","152","271764","0.0-1.0-207.0","0","0","98330","","null","","","null","22","","","","","","","","","","","","","","","NaN",""
"","S1","","html-keyboard-response","153","272019","0.0-1.0-209.0","0","0","98330","","null","","","null","23","","","","","","","","","","","","","","","",""
"","ISI","","html-keyboard-response","154","273024","0.0-1.0-210.0","0","0","98330","","null","","","null","23","NaN","","","","","","","","","","","","","","",""
"","S2","","html-keyboard-response","155","273279","0.0-1.0-211.0","0","0","98330","","null","","","null","23","","NaN","","","","","","","","","","","","","",""
"","response","","html-keyboard-response","156","274564","0.0-1.0-212.0-0.0","0","0","98330","","1283","","","75","23","","","1","23","training","adjacent","BC","2","3","Q.jpg","L.jpg","0","1","0","",""
"","feedback","","html-keyboard-response","157","275571","0.0-1.0-213.0-0.0","0","0","98330","","null","","","null","23","","","","","","","","","","","","","","","",""
"","time_out","","html-keyboard-response","158","277575","0.0-1.0-215.0-0.0","0","0","98330","","null","","","null","23","","","","","","","","","","","","","","","",""
"","ITI","","html-keyboard-response","159","278579","0.0-1.0-216.0","0","0","98330","","null","","","null","23","","","","","","","","","","","","","","","NaN",""
"","S1","","html-keyboard-response","160","278834","0.0-1.0-218.0","0","0","98330","","null","","","null","24","","","","","","","","","","","","","","","",""
"","ISI","","html-keyboard-response","161","279839","0.0-1.0-219.0","0","0","98330","","null","","","null","24","NaN","","","","","","","","","","","","","","",""
"","S2","","html-keyboard-response","162","280094","0.0-1.0-220.0","0","0","98330","","null","","","null","24","","NaN","","","","","","","","","","","","","",""
"","response","","html-keyboard-response","163","280662","0.0-1.0-221.0-0.0","0","0","98330","","565","","","75","24","","","1","24","training","adjacent","BC","2","3","Q.jpg","L.jpg","0","1","0","",""
"","feedback","","html-keyboard-response","164","281668","0.0-1.0-222.0-0.0","0","0","98330","","null","","","null","24","","","","","","","","","","","","","","","",""
"","time_out","","html-keyboard-response","165","283675","0.0-1.0-224.0-0.0","0","0","98330","","null","","","null","24","","","","","","","","","","","","","","","",""
"","ITI","","html-keyboard-response","166","284680","0.0-1.0-225.0","0","0","98330","","null","","","null","24","","","","","","","","","","","","","","","NaN",""
"","S1","","html-keyboard-response","167","284936","0.0-1.0-227.0","0","0","98330","","null","","","null","25","","","","","","","","","","","","","","","",""
"","ISI","","html-keyboard-response","168","285940","0.0-1.0-228.0","0","0","98330","","659","","","75","25","k","","","","","","","","","","","","","","",""
"","S2","","html-keyboard-response","169","286195","0.0-1.0-229.0","0","0","98330","","null","","","null","25","","NaN","","","","","","","","","","","","","",""
"","response","","html-keyboard-response","170","287382","0.0-1.0-230.0-0.0","0","0","98330","","1184","","","75","25","","","1","25","training","adjacent","FE","6","5","R.jpg","N.jpg","0","0","1","",""
"","feedback","","html-keyboard-response","171","288389","0.0-1.0-231.0-0.0","0","0","98330","","null","","","null","25","","","","","","","","","","","","","","","",""
"","ITI","","html-keyboard-response","172","289393","0.0-1.0-234.0","0","0","98330","","null","","","null","25","","","","","","","","","","","","","","","NaN",""
"","S1","","html-keyboard-response","173","289649","0.0-1.0-236.0","0","0","98330","","null","","","null","26","","","","","","","","","","","","","","","",""
"","ISI","","html-keyboard-response","174","290653","0.0-1.0-237.0","0","0","98330","","null","","","null","26","NaN","","","","","","","","","","","","","","",""
"","S2","","html-keyboard-response","175","290908","0.0-1.0-238.0","0","0","98330","","null","","","null","26","","NaN","","","","","","","","","","","","","",""
"","response","","html-keyboard-response","176","291956","0.0-1.0-239.0-0.0","0","0","98330","","1045","","","75","26","","","1","26","training","adjacent","DC","4","3","P.jpg","L.jpg","0","0","1","",""
"","feedback","","html-keyboard-response","177","292963","0.0-1.0-240.0-0.0","0","0","98330","","null","","","null","26","","","","","","","","","","","","","","","",""
"","ITI","","html-keyboard-response","178","293968","0.0-1.0-243.0","0","0","98330","","null","","","null","26","","","","","","","","","","","","","","","NaN",""
"","S1","","html-keyboard-response","179","294223","0.0-1.0-245.0","0","0","98330","","null","","","null","27","","","","","","","","","","","","","","","",""
"","ISI","","html-keyboard-response","180","295227","0.0-1.0-246.0","0","0","98330","","null","","","null","27","NaN","","","","","","","","","","","","","","",""
"","S2","","html-keyboard-response","181","295483","0.0-1.0-247.0","0","0","98330","","null","","","null","27","","NaN","","","","","","","","","","","","","",""
"","response","","html-keyboard-response","182","296375","0.0-1.0-248.0-0.0","0","0","98330","","890","","","68","27","","","1","27","training","adjacent","FG","6","7","R.jpg","O.jpg","1","1","1","",""
"","feedback","","html-keyboard-response","183","297381","0.0-1.0-249.0-0.0","0","0","98330","","null","","","null","27","","","","","","","","","","","","","","","",""
"","ITI","","html-keyboard-response","184","298385","0.0-1.0-252.0","0","0","98330","","null","","","null","27","","","","","","","","","","","","","","","NaN",""
"","S1","","html-keyboard-response","185","298640","0.0-1.0-254.0","0","0","98330","","null","","","null","28","","","","","","","","","","","","","","","",""
"","ISI","","html-keyboard-response","186","299645","0.0-1.0-255.0","0","0","98330","","null","","","null","28","NaN","","","","","","","","","","","","","","",""
"","S2","","html-keyboard-response","187","299900","0.0-1.0-256.0","0","0","98330","","null","","","null","28","","NaN","","","","","","","","","","","","","",""
"","response","","html-keyboard-response","188","300332","0.0-1.0-257.0-0.0","0","0","98330","","430","","","68","28","","","1","28","training","adjacent","DE","4","5","P.jpg","N.jpg","1","1","1","",""
"","feedback","","html-keyboard-response","189","301335","0.0-1.0-258.0-0.0","0","0","98330","","null","","","null","28","","","","","","","","","","","","","","","",""
"","ITI","","html-keyboard-response","190","302338","0.0-1.0-261.0","0","0","98330","","null","","","null","28","","","","","","","","","","","","","","","NaN",""
"","S1","","html-keyboard-response","191","302593","0.0-1.0-263.0","0","0","98330","","null","","","null","29","","","","","","","","","","","","","","","",""
"","ISI","","html-keyboard-response","192","303598","0.0-1.0-264.0","0","0","98330","","null","","","null","29","NaN","","","","","","","","","","","","","","",""
"","S2","","html-keyboard-response","193","303853","0.0-1.0-265.0","0","0","98330","","null","","","null","29","","NaN","","","","","","","","","","","","","",""
"","response","","html-keyboard-response","194","304392","0.0-1.0-266.0-0.0","0","0","98330","","536","","","68","29","","","1","29","training","adjacent","CB","3","2","L.jpg","Q.jpg","1","0","0","",""
"","feedback","","html-keyboard-response","195","305398","0.0-1.0-267.0-0.0","0","0","98330","","null","","","null","29","","","","","","","","","","","","","","","",""
"","time_out","","html-keyboard-response","196","307400","0.0-1.0-269.0-0.0","0","0","98330","","null","","","null","29","","","","","","","","","","","","","","","",""
"","ITI","","html-keyboard-response","197","308404","0.0-1.0-270.0","0","0","98330","","null","","","null","29","","","","","","","","","","","","","","","NaN",""
"","S1","","html-keyboard-response","198","308659","0.0-1.0-272.0","0","0","98330","","null","","","null","30","","","","","","","","","","","","","","","",""
"","ISI","","html-keyboard-response","199","309664","0.0-1.0-273.0","0","0","98330","","null","","","null","30","NaN","","","","","","","","","","","","","","",""
"","S2","","html-keyboard-response","200","309919","0.0-1.0-274.0","0","0","98330","","null","","","null","30","","NaN","","","","","","","","","","","","","",""
"","response","","html-keyboard-response","201","310534","0.0-1.0-275.0-0.0","0","0","98330","","613","","","68","30","","","1","30","training","adjacent","FE","6","5","R.jpg","N.jpg","1","0","0","",""
"","feedback","","html-keyboard-response","202","311539","0.0-1.0-276.0-0.0","0","0","98330","","null","","","null","30","","","","","","","","","","","","","","","",""
"","time_out","","html-keyboard-response","203","313541","0.0-1.0-278.0-0.0","0","0","98330","","null","","","null","30","","","","","","","","","","","","","","","",""
"","ITI","","html-keyboard-response","204","314546","0.0-1.0-279.0","0","0","98330","","null","","","null","30","","","","","","","","","","","","","","","NaN",""
"","S1","","html-keyboard-response","205","314801","0.0-1.0-281.0","0","0","98330","","null","","","null","31","","","","","","","","","","","","","","","",""
"","ISI","","html-keyboard-response","206","315806","0.0-1.0-282.0","0","0","98330","","null","","","null","31","NaN","","","","","","","","","","","","","","",""
"","S2","","html-keyboard-response","207","316061","0.0-1.0-283.0","0","0","98330","","null","","","null","31","","NaN","","","","","","","","","","","","","",""
"","response","","html-keyboard-response","208","316571","0.0-1.0-284.0-0.0","0","0","98330","","508","","","68","31","","","1","31","training","adjacent","AB","1","2","M.jpg","Q.jpg","1","1","1","",""
"","feedback","","html-keyboard-response","209","317576","0.0-1.0-285.0-0.0","0","0","98330","","null","","","null","31","","","","","","","","","","","","","","","",""
"","ITI","","html-keyboard-response","210","318580","0.0-1.0-288.0","0","0","98330","","null","","","null","31","","","","","","","","","","","","","","","NaN",""
"","S1","","html-keyboard-response","211","318836","0.0-1.0-290.0","0","0","98330","","null","","","null","32","","","","","","","","","","","","","","","",""
"","ISI","","html-keyboard-response","212","319840","0.0-1.0-291.0","0","0","98330","","null","","","null","32","NaN","","","","","","","","","","","","","","",""
"","S2","","html-keyboard-response","213","320095","0.0-1.0-292.0","0","0","98330","","null","","","null","32","","NaN","","","","","","","","","","","","","",""
"","response","","html-keyboard-response","214","321165","0.0-1.0-293.0-0.0","0","0","98330","","1068","","","75","32","","","1","32","training","adjacent","DC","4","3","P.jpg","L.jpg","0","0","1","",""
"","feedback","","html-keyboard-response","215","322167","0.0-1.0-294.0-0.0","0","0","98330","","null","","","null","32","","","","","","","","","","","","","","","",""
"","ITI","","html-keyboard-response","216","323172","0.0-1.0-297.0","0","0","98330","","null","","","null","32","","","","","","","","","","","","","","","NaN",""
"","S1","","html-keyboard-response","217","323428","0.0-1.0-299.0","0","0","98330","","null","","","null","33","","","","","","","","","","","","","","","",""
"","ISI","","html-keyboard-response","218","324432","0.0-1.0-300.0","0","0","98330","","null","","","null","33","NaN","","","","","","","","","","","","","","",""
"","S2","","html-keyboard-response","219","324688","0.0-1.0-301.0","0","0","98330","","null","","","null","33","","NaN","","","","","","","","","","","","","",""
"","response","","html-keyboard-response","220","325042","0.0-1.0-302.0-0.0","0","0","98330","","351","","","75","33","","","1","33","training","adjacent","GF","7","6","O.jpg","R.jpg","0","0","1","",""
"","feedback","","html-keyboard-response","221","326046","0.0-1.0-303.0-0.0","0","0","98330","","null","","","null","33","","","","","","","","","","","","","","","",""
"","ITI","","html-keyboard-response","222","327049","0.0-1.0-306.0","0","0","98330","","null","","","null","33","","","","","","","","","","","","","","","NaN",""
"","S1","","html-keyboard-response","223","327305","0.0-1.0-308.0","0","0","98330","","null","","","null","34","","","","","","","","","","","","","","","",""
"","ISI","","html-keyboard-response","224","328309","0.0-1.0-309.0","0","0","98330","","null","","","null","34","NaN","","","","","","","","","","","","","","",""
"","S2","","html-keyboard-response","225","328565","0.0-1.0-310.0","0","0","98330","","null","","","null","34","","NaN","","","","","","","","","","","","","",""
"","response","","html-keyboard-response","226","329139","0.0-1.0-311.0-0.0","0","0","98330","","573","","","75","34","","","1","34","training","adjacent","DE","4","5","P.jpg","N.jpg","0","1","0","",""
"","feedback","","html-keyboard-response","227","330143","0.0-1.0-312.0-0.0","0","0","98330","","null","","","null","34","","","","","","","","","","","","","","","",""
"","time_out","","html-keyboard-response","228","332146","0.0-1.0-314.0-0.0","0","0","98330","","null","","","null","34","","","","","","","","","","","","","","","",""
"","ITI","","html-keyboard-response","229","333150","0.0-1.0-315.0","0","0","98330","","null","","","null","34","","","","","","","","","","","","","","","NaN",""
"","S1","","html-keyboard-response","230","333407","0.0-1.0-317.0","0","0","98330","","null","","","null","35","","","","","","","","","","","","","","","",""
"","ISI","","html-keyboard-response","231","334410","0.0-1.0-318.0","0","0","98330","","null","","","null","35","NaN","","","","","","","","","","","","","","",""
"","S2","","html-keyboard-response","232","334665","0.0-1.0-319.0","0","0","98330","","null","","","null","35","","NaN","","","","","","","","","","","","","",""
"","response","","html-keyboard-response","233","335309","0.0-1.0-320.0-0.0","0","0","98330","","641","","","75","35","","","1","35","training","adjacent","ED","5","4","N.jpg","P.jpg","0","0","1","",""
"","feedback","","html-keyboard-response","234","336314","0.0-1.0-321.0-0.0","0","0","98330","","null","","","null","35","","","","","","","","","","","","","","","",""
"","ITI","","html-keyboard-response","235","337318","0.0-1.0-324.0","0","0","98330","","null","","","null","35","","","","","","","","","","","","","","","NaN",""
"","S1","","html-keyboard-response","236","337574","0.0-1.0-326.0","0","0","98330","","null","","","null","36","","","","","","","","","","","","","","","",""
"","ISI","","html-keyboard-response","237","338578","0.0-1.0-327.0","0","0","98330","","null","","","null","36","NaN","","","","","","","","","","","","","","",""
"","S2","","html-keyboard-response","238","338833","0.0-1.0-328.0","0","0","98330","","null","","","null","36","","NaN","","","","","","","","","","","","","",""
"","response","","html-keyboard-response","239","339189","0.0-1.0-329.0-0.0","0","0","98330","","354","","","75","36","","","1","36","training","adjacent","ED","5","4","N.jpg","P.jpg","0","0","1","",""
"","feedback","","html-keyboard-response","240","340192","0.0-1.0-330.0-0.0","0","0","98330","","null","","","null","36","","","","","","","","","","","","","","","",""
"","ITI","","html-keyboard-response","241","341196","0.0-1.0-333.0","0","0","98330","","null","","","null","36","","","","","","","","","","","","","","","NaN",""
"","S1","","html-keyboard-response","242","341451","0.0-1.0-335.0","0","0","98330","","null","","","null","37","","","","","","","","","","","","","","","",""
"","ISI","","html-keyboard-response","243","342455","0.0-1.0-336.0","0","0","98330","","null","","","null","37","NaN","","","","","","","","","","","","","","",""
"","S2","","html-keyboard-response","244","342711","0.0-1.0-337.0","0","0","98330","","null","","","null","37","","NaN","","","","","","","","","","","","","",""
"","response","","html-keyboard-response","245","343325","0.0-1.0-338.0-0.0","0","0","98330","","613","","","75","37","","","1","37","training","adjacent","CB","3","2","L.jpg","Q.jpg","0","0","1","",""
"","feedback","","html-keyboard-response","246","344330","0.0-1.0-339.0-0.0","0","0","98330","","null","","","null","37","","","","","","","","","","","","","","","",""
"","ITI","","html-keyboard-response","247","345335","0.0-1.0-342.0","0","0","98330","","null","","","null","37","","","","","","","","","","","","","","","NaN",""
"","S1","","html-keyboard-response","248","345590","0.0-1.0-344.0","0","0","98330","","null","","","null","38","","","","","","","","","","","","","","","",""
"","ISI","","html-keyboard-response","249","346594","0.0-1.0-345.0","0","0","98330","","null","","","null","38","NaN","","","","","","","","","","","","","","",""
"","S2","","html-keyboard-response","250","346849","0.0-1.0-346.0","0","0","98330","","null","","","null","38","","NaN","","","","","","","","","","","","","",""
"","response","","html-keyboard-response","251","346982","0.0-1.0-347.0-0.0","0","0","98330","","131","","","75","38","","","1","38","training","adjacent","ED","5","4","N.jpg","P.jpg","0","0","1","",""
"","feedback","","html-keyboard-response","252","347987","0.0-1.0-348.0-0.0","0","0","98330","","null","","","null","38","","","","","","","","","","","","","","","",""
"","ITI","","html-keyboard-response","253","348992","0.0-1.0-351.0","0","0","98330","","null","","","null","38","","","","","","","","","","","","","","","NaN",""
"","S1","","html-keyboard-response","254","349247","0.0-1.0-353.0","0","0","98330","","null","","","null","39","","","","","","","","","","","","","","","",""
"","ISI","","html-keyboard-response","255","350251","0.0-1.0-354.0","0","0","98330","","null","","","null","39","NaN","","","","","","","","","","","","","","",""
"","S2","","html-keyboard-response","256","350507","0.0-1.0-355.0","0","0","98330","","null","","","null","39","","NaN","","","","","","","","","","","","","",""
"","response","","html-keyboard-response","257","350734","0.0-1.0-356.0-0.0","0","0","98330","","226","","","75","39","","","1","39","training","adjacent","ED","5","4","N.jpg","P.jpg","0","0","1","",""
"","feedback","","html-keyboard-response","258","351741","0.0-1.0-357.0-0.0","0","0","98330","","null","","","null","39","","","","","","","","","","","","","","","",""
"","ITI","","html-keyboard-response","259","352747","0.0-1.0-360.0","0","0","98330","","null","","","null","39","","","","","","","","","","","","","","","NaN",""
"","S1","","html-keyboard-response","260","353003","0.0-1.0-362.0","0","0","98330","","null","","","null","40","","","","","","","","","","","","","","","",""
"","ISI","","html-keyboard-response","261","354007","0.0-1.0-363.0","0","0","98330","","null","","","null","40","NaN","","","","","","","","","","","","","","",""
"","S2","","html-keyboard-response","262","354263","0.0-1.0-364.0","0","0","98330","","null","","","null","40","","NaN","","","","","","","","","","","","","",""
"","response","","html-keyboard-response","263","354468","0.0-1.0-365.0-0.0","0","0","98330","","204","","","75","40","","","1","40","training","adjacent","GF","7","6","O.jpg","R.jpg","0","0","1","",""
"","feedback","","html-keyboard-response","264","355475","0.0-1.0-366.0-0.0","0","0","98330","","null","","","null","40","","","","","","","","","","","","","","","",""
"","ITI","","html-keyboard-response","265","356480","0.0-1.0-369.0","0","0","98330","","null","","","null","40","","","","","","","","","","","","","","","NaN",""
"","S1","","html-keyboard-response","266","356735","0.0-1.0-371.0","0","0","98330","","null","","","null","41","","","","","","","","","","","","","","","",""
"","ISI","","html-keyboard-response","267","357740","0.0-1.0-372.0","0","0","98330","","null","","","null","41","NaN","","","","","","","","","","","","","","",""
"","S2","","html-keyboard-response","268","357995","0.0-1.0-373.0","0","0","98330","","null","","","null","41","","NaN","","","","","","","","","","","","","",""
"","response","","html-keyboard-response","269","358379","0.0-1.0-374.0-0.0","0","0","98330","","383","","","75","41","","","1","41","training","adjacent","BA","2","1","Q.jpg","M.jpg","0","0","1","",""
"","feedback","","html-keyboard-response","270","359382","0.0-1.0-375.0-0.0","0","0","98330","","null","","","null","41","","","","","","","","","","","","","","","",""
"","ITI","","html-keyboard-response","271","360386","0.0-1.0-378.0","0","0","98330","","null","","","null","41","","","","","","","","","","","","","","","NaN",""
"","S1","","html-keyboard-response","272","360642","0.0-1.0-380.0","0","0","98330","","null","","","null","42","","","","","","","","","","","","","","","",""
"","ISI","","html-keyboard-response","273","361646","0.0-1.0-381.0","0","0","98330","","null","","","null","42","NaN","","","","","","","","","","","","","","",""
"","S2","","html-keyboard-response","274","361902","0.0-1.0-382.0","0","0","98330","","null","","","null","42","","NaN","","","","","","","","","","","","","",""
"","response","","html-keyboard-response","275","362150","0.0-1.0-383.0-0.0","0","0","98330","","246","","","75","42","","","1","42","training","adjacent","GF","7","6","O.jpg","R.jpg","0","0","1","",""
"","feedback","","html-keyboard-response","276","363155","0.0-1.0-384.0-0.0","0","0","98330","","null","","","null","42","","","","","","","","","","","","","","","",""
"","ITI","","html-keyboard-response","277","364159","0.0-1.0-387.0","0","0","98330","","null","","","null","42","","","","","","","","","","","","","","","NaN",""
"","S1","","html-keyboard-response","278","364415","0.0-1.0-389.0","0","0","98330","","null","","","null","43","","","","","","","","","","","","","","","",""
"","ISI","","html-keyboard-response","279","365420","0.0-1.0-390.0","0","0","98330","","null","","","null","43","NaN","","","","","","","","","","","","","","",""
"","S2","","html-keyboard-response","280","365674","0.0-1.0-391.0","0","0","98330","","null","","","null","43","","NaN","","","","","","","","","","","","","",""
"","response","","html-keyboard-response","281","365973","0.0-1.0-392.0-0.0","0","0","98330","","296","","","75","43","","","1","43","training","adjacent","BC","2","3","Q.jpg","L.jpg","0","1","0","",""
"","feedback","","html-keyboard-response","282","366975","0.0-1.0-393.0-0.0","0","0","98330","","null","","","null","43","","","","","","","","","","","","","","","",""
"","time_out","","html-keyboard-response","283","368977","0.0-1.0-395.0-0.0","0","0","98330","","null","","","null","43","","","","","","","","","","","","","","","",""
"","ITI","","html-keyboard-response","284","369982","0.0-1.0-396.0","0","0","98330","","null","","","null","43","","","","","","","","","","","","","","","NaN",""
"","S1","","html-keyboard-response","285","370237","0.0-1.0-398.0","0","0","98330","","null","","","null","44","","","","","","","","","","","","","","","",""
"","ISI","","html-keyboard-response","286","371242","0.0-1.0-399.0","0","0","98330","","null","","","null","44","NaN","","","","","","","","","","","","","","",""
"","S2","","html-keyboard-response","287","371497","0.0-1.0-400.0","0","0","98330","","null","","","null","44","","NaN","","","","","","","","","","","","","",""
"","response","","html-keyboard-response","288","371848","0.0-1.0-401.0-0.0","0","0","98330","","349","","","75","44","","","1","44","training","adjacent","BA","2","1","Q.jpg","M.jpg","0","0","1","",""
"","feedback","","html-keyboard-response","289","372855","0.0-1.0-402.0-0.0","0","0","98330","","null","","","null","44","","","","","","","","","","","","","","","",""
"","ITI","","html-keyboard-response","290","373859","0.0-1.0-405.0","0","0","98330","","null","","","null","44","","","","","","","","","","","","","","","NaN",""
"","S1","","html-keyboard-response","291","374114","0.0-1.0-407.0","0","0","98330","","null","","","null","45","","","","","","","","","","","","","","","",""
"","ISI","","html-keyboard-response","292","375120","0.0-1.0-408.0","0","0","98330","","null","","","null","45","NaN","","","","","","","","","","","","","","",""
"","S2","","html-keyboard-response","293","375374","0.0-1.0-409.0","0","0","98330","","null","","","null","45","","NaN","","","","","","","","","","","","","",""
"","response","","html-keyboard-response","294","376338","0.0-1.0-410.0-0.0","0","0","98330","","962","","","68","45","","","1","45","training","adjacent","FE","6","5","R.jpg","N.jpg","1","0","0","",""
"","feedback","","html-keyboard-response","295","377342","0.0-1.0-411.0-0.0","0","0","98330","","null","","","null","45","","","","","","","","","","","","","","","",""
"","time_out","","html-keyboard-response","296","379345","0.0-1.0-413.0-0.0","0","0","98330","","null","","","null","45","","","","","","","","","","","","","","","",""
"","ITI","","html-keyboard-response","297","380350","0.0-1.0-414.0","0","0","98330","","null","","","null","45","","","","","","","","","","","","","","","NaN",""
"","S1","","html-keyboard-response","298","380605","0.0-1.0-416.0","0","0","98330","","null","","","null","46","","","","","","","","","","","","","","","",""
"","ISI","","html-keyboard-response","299","381609","0.0-1.0-417.0","0","0","98330","","null","","","null","46","NaN","","","","","","","","","","","","","","",""
"","S2","","html-keyboard-response","300","381864","0.0-1.0-418.0","0","0","98330","","null","","","null","46","","NaN","","","","","","","","","","","","","",""
"","response","","html-keyboard-response","301","381982","0.0-1.0-419.0-0.0","0","0","98330","","116","","","68","46","","","1","46","training","adjacent","AB","1","2","M.jpg","Q.jpg","1","1","1","",""
"","feedback","","html-keyboard-response","302","382989","0.0-1.0-420.0-0.0","0","0","98330","","null","","","null","46","","","","","","","","","","","","","","","",""
"","ITI","","html-keyboard-response","303","383995","0.0-1.0-423.0","0","0","98330","","null","","","null","46","","","","","","","","","","","","","","","NaN",""
"","S1","","html-keyboard-response","304","384250","0.0-1.0-425.0","0","0","98330","","null","","","null","47","","","","","","","","","","","","","","","",""
"","ISI","","html-keyboard-response","305","385254","0.0-1.0-426.0","0","0","98330","","null","","","null","47","NaN","","","","","","","","","","","","","","",""
"","S2","","html-keyboard-response","306","385510","0.0-1.0-427.0","0","0","98330","","null","","","null","47","","NaN","","","","","","","","","","","","","",""
"","response","","html-keyboard-response","307","386539","0.0-1.0-428.0-0.0","0","0","98330","","1028","","","68","47","","","1","47","training","adjacent","DE","4","5","P.jpg","N.jpg","1","1","1","",""
"","feedback","","html-keyboard-response","308","387542","0.0-1.0-429.0-0.0","0","0","98330","","null","","","null","47","","","","","","","","","","","","","","","",""
"","ITI","","html-keyboard-response","309","388546","0.0-1.0-432.0","0","0","98330","","null","","","null","47","","","","","","","","","","","","","","","NaN",""
"","block_over","","html-keyboard-response","310","496582","0.0-1.0-433.0-0.0","0","0","98330","","108018","","","32","47","","","","","","","","","","","","","","","",""
"","S1","","html-keyboard-response","311","496841","0.0-1.0-434.0","0","0","98330","","null","","","null","48","","","","","","","","","","","","","","","",""
"","ISI","","html-keyboard-response","312","497845","0.0-1.0-435.0","0","0","98330","","null","","","null","48","NaN","","","","","","","","","","","","","","",""
"","S2","","html-keyboard-response","313","498098","0.0-1.0-436.0","0","0","98330","","null","","","null","48","","NaN","","","","","","","","","","","","","",""
"","response","","html-keyboard-response","314","499280","0.0-1.0-437.0-0.0","0","0","98330","","1181","","","75","48","","","2","48","training","adjacent","CB","3","2","L.jpg","Q.jpg","0","0","1","",""
"","feedback","","html-keyboard-response","315","500283","0.0-1.0-438.0-0.0","0","0","98330","","null","","","null","48","","","","","","","","","","","","","","","",""
"","ITI","","html-keyboard-response","316","501288","0.0-1.0-441.0","0","0","98330","","null","","","null","48","","","","","","","","","","","","","","","NaN",""
"","S1","","html-keyboard-response","317","501543","0.0-1.0-443.0","0","0","98330","","null","","","null","49","","","","","","","","","","","","","","","",""
"","ISI","","html-keyboard-response","318","502547","0.0-1.0-444.0","0","0","98330","","null","","","null","49","NaN","","","","","","","","","","","","","","",""
"","S2","","html-keyboard-response","319","502803","0.0-1.0-445.0","0","0","98330","","null","","","null","49","","NaN","","","","","","","","","","","","","",""
"","response","","html-keyboard-response","320","503284","0.0-1.0-446.0-0.0","0","0","98330","","479","","","75","49","","","2","49","training","adjacent","GF","7","6","O.jpg","R.jpg","0","0","1","",""
"","feedback","","html-keyboard-response","321","504289","0.0-1.0-447.0-0.0","0","0","98330","","null","","","null","49","","","","","","","","","","","","","","","",""
"","ITI","","html-keyboard-response","322","505293","0.0-1.0-450.0","0","0","98330","","null","","","null","49","","","","","","","","","","","","","","","NaN",""
"","S1","","html-keyboard-response","323","505549","0.0-1.0-452.0","0","0","98330","","null","","","null","50","","","","","","","","","","","","","","","",""
"","ISI","","html-keyboard-response","324","506553","0.0-1.0-453.0","0","0","98330","","null","","","null","50","NaN","","","","","","","","","","","","","","",""
"","S2","","html-keyboard-response","325","506808","0.0-1.0-454.0","0","0","98330","","null","","","null","50","","NaN","","","","","","","","","","","","","",""
"","response","","html-keyboard-response","326","507161","0.0-1.0-455.0-0.0","0","0","98330","","351","","","75","50","","","2","50","training","adjacent","EF","5","6","N.jpg","R.jpg","0","1","0","",""
"","feedback","","html-keyboard-response","327","508166","0.0-1.0-456.0-0.0","0","0","98330","","null","","","null","50","","","","","","","","","","","","","","","",""
"","time_out","","html-keyboard-response","328","510169","0.0-1.0-458.0-0.0","0","0","98330","","null","","","null","50","","","","","","","","","","","","","","","",""
"","ITI","","html-keyboard-response","329","511173","0.0-1.0-459.0","0","0","98330","","null","","","null","50","","","","","","","","","","","","","","","NaN",""
"","S1","","html-keyboard-response","330","511429","0.0-1.0-461.0","0","0","98330","","null","","","null","51","","","","","","","","","","","","","","","",""
"","ISI","","html-keyboard-response","331","512436","0.0-1.0-462.0","0","0","98330","","null","","","null","51","NaN","","","","","","","","","","","","","","",""
"","S2","","html-keyboard-response","332","512691","0.0-1.0-463.0","0","0","98330","","null","","","null","51","","NaN","","","","","","","","","","","","","",""
"","response","","html-keyboard-response","333","512920","0.0-1.0-464.0-0.0","0","0","98330","","227","","","75","51","","","2","51","training","adjacent","EF","5","6","N.jpg","R.jpg","0","1","0","",""
"","feedback","","html-keyboard-response","334","513925","0.0-1.0-465.0-0.0","0","0","98330","","null","","","null","51","","","","","","","","","","","","","","","",""
"","time_out","","html-keyboard-response","335","515927","0.0-1.0-467.0-0.0","0","0","98330","","null","","","null","51","","","","","","","","","","","","","","","",""
"","ITI","","html-keyboard-response","336","516932","0.0-1.0-468.0","0","0","98330","","null","","","null","51","","","","","","","","","","","","","","","NaN",""
"","S1","","html-keyboard-response","337","517187","0.0-1.0-470.0","0","0","98330","","null","","","null","52","","","","","","","","","","","","","","","",""
"","ISI","","html-keyboard-response","338","518192","0.0-1.0-471.0","0","0","98330","","null","","","null","52","NaN","","","","","","","","","","","","","","",""
"","S2","","html-keyboard-response","339","518447","0.0-1.0-472.0","0","0","98330","","null","","","null","52","","NaN","","","","","","","","","","","","","",""
"","response","","html-keyboard-response","340","518828","0.0-1.0-473.0-0.0","0","0","98330","","380","","","75","52","","","2","52","training","adjacent","GF","7","6","O.jpg","R.jpg","0","0","1","",""
"","feedback","","html-keyboard-response","341","519834","0.0-1.0-474.0-0.0","0","0","98330","","null","","","null","52","","","","","","","","","","","","","","","",""
"","ITI","","html-keyboard-response","342","520839","0.0-1.0-477.0","0","0","98330","","null","","","null","52","","","","","","","","","","","","","","","NaN",""
"","S1","","html-keyboard-response","343","521094","0.0-1.0-479.0","0","0","98330","","null","","","null","53","","","","","","","","","","","","","","","",""
"","ISI","","html-keyboard-response","344","522096","0.0-1.0-480.0","0","0","98330","","null","","","null","53","NaN","","","","","","","","","","","","","","",""
"","S2","","html-keyboard-response","345","522353","0.0-1.0-481.0","0","0","98330","","null","","","null","53","","NaN","","","","","","","","","","","","","",""
"","response","","html-keyboard-response","346","523159","0.0-1.0-482.0-0.0","0","0","98330","","805","","","75","53","","","2","53","training","adjacent","AB","1","2","M.jpg","Q.jpg","0","1","0","",""
"","feedback","","html-keyboard-response","347","524164","0.0-1.0-483.0-0.0","0","0","98330","","null","","","null","53","","","","","","","","","","","","","","","",""
"","time_out","","html-keyboard-response","348","526167","0.0-1.0-485.0-0.0","0","0","98330","","null","","","null","53","","","","","","","","","","","","","","","",""
"","ITI","","html-keyboard-response","349","527171","0.0-1.0-486.0","0","0","98330","","null","","","null","53","","","","","","","","","","","","","","","NaN",""
"","S1","","html-keyboard-response","350","527427","0.0-1.0-488.0","0","0","98330","","null","","","null","54","","","","","","","","","","","","","","","",""
"","ISI","","html-keyboard-response","351","528431","0.0-1.0-489.0","0","0","98330","","null","","","null","54","NaN","","","","","","","","","","","","","","",""
"","S2","","html-keyboard-response","352","528687","0.0-1.0-490.0","0","0","98330","","null","","","null","54","","NaN","","","","","","","","","","","","","",""
"","response","","html-keyboard-response","353","529092","0.0-1.0-491.0-0.0","0","0","98330","","404","","","75","54","","","2","54","training","adjacent","EF","5","6","N.jpg","R.jpg","0","1","0","",""
"","feedback","","html-keyboard-response","354","530096","0.0-1.0-492.0-0.0","0","0","98330","","null","","","null","54","","","","","","","","","","","","","","","",""
"","time_out","","html-keyboard-response","355","532099","0.0-1.0-494.0-0.0","0","0","98330","","null","","","null","54","","","","","","","","","","","","","","","",""
"","ITI","","html-keyboard-response","356","533103","0.0-1.0-495.0","0","0","98330","","null","","","null","54","","","","","","","","","","","","","","","NaN",""
"","S1","","html-keyboard-response","357","533359","0.0-1.0-497.0","0","0","98330","","null","","","null","55","","","","","","","","","","","","","","","",""
"","ISI","","html-keyboard-response","358","534364","0.0-1.0-498.0","0","0","98330","","null","","","null","55","NaN","","","","","","","","","","","","","","",""
"","S2","","html-keyboard-response","359","534619","0.0-1.0-499.0","0","0","98330","","null","","","null","55","","NaN","","","","","","","","","","","","","",""
"","response","","html-keyboard-response","360","535007","0.0-1.0-500.0-0.0","0","0","98330","","386","","","75","55","","","2","55","training","adjacent","DE","4","5","P.jpg","N.jpg","0","1","0","",""
"","feedback","","html-keyboard-response","361","536012","0.0-1.0-501.0-0.0","0","0","98330","","null","","","null","55","","","","","","","","","","","","","","","",""
"","time_out","","html-keyboard-response","362","538015","0.0-1.0-503.0-0.0","0","0","98330","","null","","","null","55","","","","","","","","","","","","","","","",""
"","ITI","","html-keyboard-response","363","539019","0.0-1.0-504.0","0","0","98330","","null","","","null","55","","","","","","","","","","","","","","","NaN",""
"","S1","","html-keyboard-response","364","539275","0.0-1.0-506.0","0","0","98330","","null","","","null","56","","","","","","","","","","","","","","","",""
"","ISI","","html-keyboard-response","365","540281","0.0-1.0-507.0","0","0","98330","","null","","","null","56","NaN","","","","","","","","","","","","","","",""
"","S2","","html-keyboard-response","366","540534","0.0-1.0-508.0","0","0","98330","","null","","","null","56","","NaN","","","","","","","","","","","","","",""
"","response","","html-keyboard-response","367","541224","0.0-1.0-509.0-0.0","0","0","98330","","687","","","68","56","","","2","56","training","adjacent","CB","3","2","L.jpg","Q.jpg","1","0","0","",""
"","feedback","","html-keyboard-response","368","542229","0.0-1.0-510.0-0.0","0","0","98330","","null","","","null","56","","","","","","","","","","","","","","","",""
"","time_out","","html-keyboard-response","369","544232","0.0-1.0-512.0-0.0","0","0","98330","","null","","","null","56","","","","","","","","","","","","","","","",""
"","ITI","","html-keyboard-response","370","545236","0.0-1.0-513.0","0","0","98330","","null","","","null","56","","","","","","","","","","","","","","","NaN",""
"","S1","","html-keyboard-response","371","545491","0.0-1.0-515.0","0","0","98330","","null","","","null","57","","","","","","","","","","","","","","","",""
"","ISI","","html-keyboard-response","372","546497","0.0-1.0-516.0","0","0","98330","","null","","","null","57","NaN","","","","","","","","","","","","","","",""
"","S2","","html-keyboard-response","373","546751","0.0-1.0-517.0","0","0","98330","","null","","","null","57","","NaN","","","","","","","","","","","","","",""
"","response","","html-keyboard-response","374","547377","0.0-1.0-518.0-0.0","0","0","98330","","624","","","75","57","","","2","57","training","adjacent","GF","7","6","O.jpg","R.jpg","0","0","1","",""
"","feedback","","html-keyboard-response","375","548383","0.0-1.0-519.0-0.0","0","0","98330","","null","","","null","57","","","","","","","","","","","","","","","",""
"","ITI","","html-keyboard-response","376","549386","0.0-1.0-522.0","0","0","98330","","null","","","null","57","","","","","","","","","","","","","","","NaN",""
"","S1","","html-keyboard-response","377","549643","0.0-1.0-524.0","0","0","98330","","null","","","null","58","","","","","","","","","","","","","","","",""
"","ISI","","html-keyboard-response","378","550650","0.0-1.0-525.0","0","0","98330","","null","","","null","58","NaN","","","","","","","","","","","","","","",""
"","S2","","html-keyboard-response","379","550902","0.0-1.0-526.0","0","0","98330","","null","","","null","58","","NaN","","","","","","","","","","","","","",""
"","response","","html-keyboard-response","380","551180","0.0-1.0-527.0-0.0","0","0","98330","","276","","","75","58","","","2","58","training","adjacent","DC","4","3","P.jpg","L.jpg","0","0","1","",""
"","feedback","","html-keyboard-response","381","552185","0.0-1.0-528.0-0.0","0","0","98330","","null","","","null","58","","","","","","","","","","","","","","","",""
"","ITI","","html-keyboard-response","382","553189","0.0-1.0-531.0","0","0","98330","","null","","","null","58","","","","","","","","","","","","","","","NaN",""
"","S1","","html-keyboard-response","383","553444","0.0-1.0-533.0","0","0","98330","","null","","","null","59","","","","","","","","","","","","","","","",""
"","ISI","","html-keyboard-response","384","554449","0.0-1.0-534.0","0","0","98330","","null","","","null","59","NaN","","","","","","","","","","","","","","",""
"","S2","","html-keyboard-response","385","554703","0.0-1.0-535.0","0","0","98330","","null","","","null","59","","NaN","","","","","","","","","","","","","",""
"","response","","html-keyboard-response","386","554908","0.0-1.0-536.0-0.0","0","0","98330","","203","","","75","59","","","2","59","training","adjacent","DC","4","3","P.jpg","L.jpg","0","0","1","",""
"","feedback","","html-keyboard-response","387","555911","0.0-1.0-537.0-0.0","0","0","98330","","null","","","null","59","","","","","","","","","","","","","","","",""
"","ITI","","html-keyboard-response","388","556915","0.0-1.0-540.0","0","0","98330","","null","","","null","59","","","","","","","","","","","","","","","NaN",""
"","S1","","html-keyboard-response","389","557171","0.0-1.0-542.0","0","0","98330","","null","","","null","60","","","","","","","","","","","","","","","",""
"","ISI","","html-keyboard-response","390","558175","0.0-1.0-543.0","0","0","98330","","null","","","null","60","NaN","","","","","","","","","","","","","","",""
"","S2","","html-keyboard-response","391","558430","0.0-1.0-544.0","0","0","98330","","null","","","null","60","","NaN","","","","","","","","","","","","","",""
"","response","","html-keyboard-response","392","559501","0.0-1.0-545.0-0.0","0","0","98330","","1068","","","68","60","","","2","60","training","adjacent","CD","3","4","L.jpg","P.jpg","1","1","1","",""
"","feedback","","html-keyboard-response","393","560508","0.0-1.0-546.0-0.0","0","0","98330","","null","","","null","60","","","","","","","","","","","","","","","",""
"","ITI","","html-keyboard-response","394","561513","0.0-1.0-549.0","0","0","98330","","null","","","null","60","","","","","","","","","","","","","","","NaN",""
"","S1","","html-keyboard-response","395","561769","0.0-1.0-551.0","0","0","98330","","null","","","null","61","","","","","","","","","","","","","","","",""
"","ISI","","html-keyboard-response","396","562772","0.0-1.0-552.0","0","0","98330","","null","","","null","61","NaN","","","","","","","","","","","","","","",""
"","S2","","html-keyboard-response","397","563028","0.0-1.0-553.0","0","0","98330","","null","","","null","61","","NaN","","","","","","","","","","","","","",""
"","response","","html-keyboard-response","398","563703","0.0-1.0-554.0-0.0","0","0","98330","","673","","","75","61","","","2","61","training","adjacent","BA","2","1","Q.jpg","M.jpg","0","0","1","",""
"","feedback","","html-keyboard-response","399","564708","0.0-1.0-555.0-0.0","0","0","98330","","null","","","null","61","","","","","","","","","","","","","","","",""
"","ITI","","html-keyboard-response","400","565713","0.0-1.0-558.0","0","0","98330","","null","","","null","61","","","","","","","","","","","","","","","NaN",""
"","S1","","html-keyboard-response","401","565966","0.0-1.0-560.0","0","0","98330","","null","","","null","62","","","","","","","","","","","","","","","",""
"","ISI","","html-keyboard-response","402","566969","0.0-1.0-561.0","0","0","98330","","null","","","null","62","NaN","","","","","","","","","","","","","","",""
"","S2","","html-keyboard-response","403","567225","0.0-1.0-562.0","0","0","98330","","null","","","null","62","","NaN","","","","","","","","","","","","","",""
"","response","","html-keyboard-response","404","568290","0.0-1.0-563.0-0.0","0","0","98330","","1062","","","68","62","","","2","62","training","adjacent","FE","6","5","R.jpg","N.jpg","1","0","0","",""
"","feedback","","html-keyboard-response","405","569296","0.0-1.0-564.0-0.0","0","0","98330","","null","","","null","62","","","","","","","","","","","","","","","",""
"","time_out","","html-keyboard-response","406","571300","0.0-1.0-566.0-0.0","0","0","98330","","null","","","null","62","","","","","","","","","","","","","","","",""
"","ITI","","html-keyboard-response","407","572304","0.0-1.0-567.0","0","0","98330","","null","","","null","62","","","","","","","","","","","","","","","NaN",""
"","S1","","html-keyboard-response","408","572560","0.0-1.0-569.0","0","0","98330","","null","","","null","63","","","","","","","","","","","","","","","",""
"","ISI","","html-keyboard-response","409","573563","0.0-1.0-570.0","0","0","98330","","null","","","null","63","NaN","","","","","","","","","","","","","","",""
"","S2","","html-keyboard-response","410","573819","0.0-1.0-571.0","0","0","98330","","null","","","null","63","","NaN","","","","","","","","","","","","","",""
"","response","","html-keyboard-response","411","574353","0.0-1.0-572.0-0.0","0","0","98330","","531","","","75","63","","","2","63","training","adjacent","DC","4","3","P.jpg","L.jpg","0","0","1","",""
"","feedback","","html-keyboard-response","412","575357","0.0-1.0-573.0-0.0","0","0","98330","","null","","","null","63","","","","","","","","","","","","","","","",""
"","ITI","","html-keyboard-response","413","576363","0.0-1.0-576.0","0","0","98330","","null","","","null","63","","","","","","","","","","","","","","","NaN",""
"","S1","","html-keyboard-response","414","576617","0.0-1.0-578.0","0","0","98330","","null","","","null","64","","","","","","","","","","","","","","","",""
"","ISI","","html-keyboard-response","415","577621","0.0-1.0-579.0","0","0","98330","","null","","","null","64","NaN","","","","","","","","","","","","","","",""
"","S2","","html-keyboard-response","416","577877","0.0-1.0-580.0","0","0","98330","","null","","","null","64","","NaN","","","","","","","","","","","","","",""
"","response","","html-keyboard-response","417","578292","0.0-1.0-581.0-0.0","0","0","98330","","412","","","75","64","","","2","64","training","adjacent","GF","7","6","O.jpg","R.jpg","0","0","1","",""
"","feedback","","html-keyboard-response","418","579298","0.0-1.0-582.0-0.0","0","0","98330","","null","","","null","64","","","","","","","","","","","","","","","",""
"","ITI","","html-keyboard-response","419","580303","0.0-1.0-585.0","0","0","98330","","null","","","null","64","","","","","","","","","","","","","","","NaN",""
"","S1","","html-keyboard-response","420","580558","0.0-1.0-587.0","0","0","98330","","null","","","null","65","","","","","","","","","","","","","","","",""
"","ISI","","html-keyboard-response","421","581563","0.0-1.0-588.0","0","0","98330","","null","","","null","65","NaN","","","","","","","","","","","","","","",""
"","S2","","html-keyboard-response","422","581818","0.0-1.0-589.0","0","0","98330","","null","","","null","65","","NaN","","","","","","","","","","","","","",""
"","response","","html-keyboard-response","423","582305","0.0-1.0-590.0-0.0","0","0","98330","","485","","","75","65","","","2","65","training","adjacent","BC","2","3","Q.jpg","L.jpg","0","1","0","",""
"","feedback","","html-keyboard-response","424","583310","0.0-1.0-591.0-0.0","0","0","98330","","null","","","null","65","","","","","","","","","","","","","","","",""
"","time_out","","html-keyboard-response","425","585312","0.0-1.0-593.0-0.0","0","0","98330","","null","","","null","65","","","","","","","","","","","","","","","",""
"","ITI","","html-keyboard-response","426","586317","0.0-1.0-594.0","0","0","98330","","null","","","null","65","","","","","","","","","","","","","","","NaN",""
"","S1","","html-keyboard-response","427","586573","0.0-1.0-596.0","0","0","98330","","null","","","null","66","","","","","","","","","","","","","","","",""
"","ISI","","html-keyboard-response","428","587577","0.0-1.0-597.0","0","0","98330","","null","","","null","66","NaN","","","","","","","","","","","","","","",""
"","S2","","html-keyboard-response","429","587832","0.0-1.0-598.0","0","0","98330","","null","","","null","66","","NaN","","","","","","","","","","","","","",""
"","response","","html-keyboard-response","430","588498","0.0-1.0-599.0-0.0","0","0","98330","","663","","","68","66","","","2","66","training","adjacent","FG","6","7","R.jpg","O.jpg","1","1","1","",""
"","feedback","","html-keyboard-response","431","589504","0.0-1.0-600.0-0.0","0","0","98330","","null","","","null","66","","","","","","","","","","","","","","","",""
"","ITI","","html-keyboard-response","432","590508","0.0-1.0-603.0","0","0","98330","","null","","","null","66","","","","","","","","","","","","","","","NaN",""
"","S1","","html-keyboard-response","433","590764","0.0-1.0-605.0","0","0","98330","","null","","","null","67","","","","","","","","","","","","","","","",""
"","ISI","","html-keyboard-response","434","591767","0.0-1.0-606.0","0","0","98330","","null","","","null","67","NaN","","","","","","","","","","","","","","",""
"","S2","","html-keyboard-response","435","592023","0.0-1.0-607.0","0","0","98330","","null","","","null","67","","NaN","","","","","","","","","","","","","",""
"","response","","html-keyboard-response","436","592928","0.0-1.0-608.0-0.0","0","0","98330","","903","","","75","67","","","2","67","training","adjacent","CB","3","2","L.jpg","Q.jpg","0","0","1","",""
"","feedback","","html-keyboard-response","437","593933","0.0-1.0-609.0-0.0","0","0","98330","","null","","","null","67","","","","","","","","","","","","","","","",""
"","ITI","","html-keyboard-response","438","594937","0.0-1.0-612.0","0","0","98330","","null","","","null","67","","","","","","","","","","","","","","","NaN",""
"","S1","","html-keyboard-response","439","595192","0.0-1.0-614.0","0","0","98330","","null","","","null","68","","","","","","","","","","","","","","","",""
"","ISI","","html-keyboard-response","440","596197","0.0-1.0-615.0","0","0","98330","","null","","","null","68","NaN","","","","","","","","","","","","","","",""
"","S2","","html-keyboard-response","441","596452","0.0-1.0-616.0","0","0","98330","","null","","","null","68","","NaN","","","","","","","","","","","","","",""
"","response","","html-keyboard-response","442","597235","0.0-1.0-617.0-0.0","0","0","98330","","781","","","68","68","","","2","68","training","adjacent","FG","6","7","R.jpg","O.jpg","1","1","1","",""
"","feedback","","html-keyboard-response","443","598240","0.0-1.0-618.0-0.0","0","0","98330","","null","","","null","68","","","","","","","","","","","","","","","",""
"","ITI","","html-keyboard-response","444","599244","0.0-1.0-621.0","0","0","98330","","null","","","null","68","","","","","","","","","","","","","","","NaN",""
"","S1","","html-keyboard-response","445","599499","0.0-1.0-623.0","0","0","98330","","null","","","null","69","","","","","","","","","","","","","","","",""
"","ISI","","html-keyboard-response","446","600504","0.0-1.0-624.0","0","0","98330","","null","","","null","69","NaN","","","","","","","","","","","","","","",""
"","S2","","html-keyboard-response","447","600759","0.0-1.0-625.0","0","0","98330","","null","","","null","69","","NaN","","","","","","","","","","","","","",""
"","response","","html-keyboard-response","448","600942","0.0-1.0-626.0-0.0","0","0","98330","","181","","","68","69","","","2","69","training","adjacent","ED","5","4","N.jpg","P.jpg","1","0","0","",""
"","feedback","","html-keyboard-response","449","601949","0.0-1.0-627.0-0.0","0","0","98330","","null","","","null","69","","","","","","","","","","","","","","","",""
"","time_out","","html-keyboard-response","450","603952","0.0-1.0-629.0-0.0","0","0","98330","","null","","","null","69","","","","","","","","","","","","","","","",""
"","ITI","","html-keyboard-response","451","604956","0.0-1.0-630.0","0","0","98330","","null","","","null","69","","","","","","","","","","","","","","","NaN",""
"","S1","","html-keyboard-response","452","605212","0.0-1.0-632.0","0","0","98330","","null","","","null","70","","","","","","","","","","","","","","","",""
"","ISI","","html-keyboard-response","453","606216","0.0-1.0-633.0","0","0","98330","","null","","","null","70","NaN","","","","","","","","","","","","","","",""
"","S2","","html-keyboard-response","454","606472","0.0-1.0-634.0","0","0","98330","","null","","","null","70","","NaN","","","","","","","","","","","","","",""
"","response","","html-keyboard-response","455","606974","0.0-1.0-635.0-0.0","0","0","98330","","500","","","75","70","","","2","70","training","adjacent","DC","4","3","P.jpg","L.jpg","0","0","1","",""
"","feedback","","html-keyboard-response","456","607980","0.0-1.0-636.0-0.0","0","0","98330","","null","","","null","70","","","","","","","","","","","","","","","",""
"","ITI","","html-keyboard-response","457","608985","0.0-1.0-639.0","0","0","98330","","null","","","null","70","","","","","","","","","","","","","","","NaN",""
"","S1","","html-keyboard-response","458","609240","0.0-1.0-641.0","0","0","98330","","null","","","null","71","","","","","","","","","","","","","","","",""
"","ISI","","html-keyboard-response","459","610244","0.0-1.0-642.0","0","0","98330","","null","","","null","71","NaN","","","","","","","","","","","","","","",""
"","S2","","html-keyboard-response","460","610500","0.0-1.0-643.0","0","0","98330","","null","","","null","71","","NaN","","","","","","","","","","","","","",""
"","response","","html-keyboard-response","461","610764","0.0-1.0-644.0-0.0","0","0","98330","","261","","","68","71","","","2","71","training","adjacent","CD","3","4","L.jpg","P.jpg","1","1","1","",""
"","feedback","","html-keyboard-response","462","611771","0.0-1.0-645.0-0.0","0","0","98330","","null","","","null","71","","","","","","","","","","","","","","","",""
"","ITI","","html-keyboard-response","463","612775","0.0-1.0-648.0","0","0","98330","","null","","","null","71","","","","","","","","","","","","","","","NaN",""
"","S1","","html-keyboard-response","464","613031","0.0-1.0-650.0","0","0","98330","","null","","","null","72","","","","","","","","","","","","","","","",""
"","ISI","","html-keyboard-response","465","614035","0.0-1.0-651.0","0","0","98330","","null","","","null","72","NaN","","","","","","","","","","","","","","",""
"","S2","","html-keyboard-response","466","614290","0.0-1.0-652.0","0","0","98330","","null","","","null","72","","NaN","","","","","","","","","","","","","",""
"","response","","html-keyboard-response","467","615289","0.0-1.0-653.0-0.0","0","0","98330","","996","","","75","72","","","2","72","training","adjacent","FE","6","5","R.jpg","N.jpg","0","0","1","",""
"","feedback","","html-keyboard-response","468","616293","0.0-1.0-654.0-0.0","0","0","98330","","null","","","null","72","","","","","","","","","","","","","","","",""
"","ITI","","html-keyboard-response","469","617298","0.0-1.0-657.0","0","0","98330","","null","","","null","72","","","","","","","","","","","","","","","NaN",""
"","S1","","html-keyboard-response","470","617553","0.0-1.0-659.0","0","0","98330","","null","","","null","73","","","","","","","","","","","","","","","",""
"","ISI","","html-keyboard-response","471","618557","0.0-1.0-660.0","0","0","98330","","null","","","null","73","NaN","","","","","","","","","","","","","","",""
"","S2","","html-keyboard-response","472","618813","0.0-1.0-661.0","0","0","98330","","null","","","null","73","","NaN","","","","","","","","","","","","","",""
"","response","","html-keyboard-response","473","619158","0.0-1.0-662.0-0.0","0","0","98330","","343","","","68","73","","","2","73","training","adjacent","ED","5","4","N.jpg","P.jpg","1","0","0","",""
"","feedback","","html-keyboard-response","474","620165","0.0-1.0-663.0-0.0","0","0","98330","","null","","","null","73","","","","","","","","","","","","","","","",""
"","time_out","","html-keyboard-response","475","622170","0.0-1.0-665.0-0.0","0","0","98330","","null","","","null","73","","","","","","","","","","","","","","","",""
"","ITI","","html-keyboard-response","476","623173","0.0-1.0-666.0","0","0","98330","","null","","","null","73","","","","","","","","","","","","","","","NaN",""
"","S1","","html-keyboard-response","477","623427","0.0-1.0-668.0","0","0","98330","","null","","","null","74","","","","","","","","","","","","","","","",""
"","ISI","","html-keyboard-response","478","624432","0.0-1.0-669.0","0","0","98330","","null","","","null","74","NaN","","","","","","","","","","","","","","",""
"","S2","","html-keyboard-response","479","624687","0.0-1.0-670.0","0","0","98330","","null","","","null","74","","NaN","","","","","","","","","","","","","",""
"","response","","html-keyboard-response","480","624906","0.0-1.0-671.0-0.0","0","0","98330","","218","","","68","74","","","2","74","training","adjacent","BC","2","3","Q.jpg","L.jpg","1","1","1","",""
"","feedback","","html-keyboard-response","481","625912","0.0-1.0-672.0-0.0","0","0","98330","","null","","","null","74","","","","","","","","","","","","","","","",""
"","ITI","","html-keyboard-response","482","626916","0.0-1.0-675.0","0","0","98330","","null","","","null","74","","","","","","","","","","","","","","","NaN",""
"","S1","","html-keyboard-response","483","627171","0.0-1.0-677.0","0","0","98330","","null","","","null","75","","","","","","","","","","","","","","","",""
"","ISI","","html-keyboard-response","484","628176","0.0-1.0-678.0","0","0","98330","","null","","","null","75","NaN","","","","","","","","","","","","","","",""
"","S2","","html-keyboard-response","485","628431","0.0-1.0-679.0","0","0","98330","","null","","","null","75","","NaN","","","","","","","","","","","","","",""
"","response","","html-keyboard-response","486","630184","0.0-1.0-680.0-0.0","0","0","98330","","null","","","null","75","","","2","75","training","adjacent","AB","1","2","M.jpg","Q.jpg","NaN","1","0","",""
"","too_slow_prompt","","html-keyboard-response","487","631188","0.0-1.0-682.0-0.0","1","0","98330","","null","","","null","","","","","","","","","","","","","","","","",""
"","time_out","","html-keyboard-response","488","633191","0.0-1.0-683.0-0.0","0","0","98330","","null","","","null","75","","","","","","","","","","","","","","","",""
"","ITI","","html-keyboard-response","489","634196","0.0-1.0-684.0","0","0","98330","","null","","","null","75","","","","","","","","","","","","","","","NaN",""
"","S1","","html-keyboard-response","490","634451","0.0-1.0-686.0","0","0","98330","","null","","","null","76","","","","","","","","","","","","","","","",""
"","ISI","","html-keyboard-response","491","635455","0.0-1.0-687.0","0","0","98330","","null","","","null","76","NaN","","","","","","","","","","","","","","",""
"","S2","","html-keyboard-response","492","635710","0.0-1.0-688.0","0","0","98330","","null","","","null","76","","NaN","","","","","","","","","","","","","",""
"","response","","html-keyboard-response","493","636875","0.0-1.0-689.0-0.0","0","0","98330","","1163","","","75","76","","","2","76","training","adjacent","DE","4","5","P.jpg","N.jpg","0","1","0","",""
"","feedback","","html-keyboard-response","494","637881","0.0-1.0-690.0-0.0","0","0","98330","","null","","","null","76","","","","","","","","","","","","","","","",""
"","time_out","","html-keyboard-response","495","639888","0.0-1.0-692.0-0.0","0","0","98330","","null","","","null","76","","","","","","","","","","","","","","","",""
"","ITI","","html-keyboard-response","496","640894","0.0-1.0-693.0","0","0","98330","","null","","","null","76","","","","","","","","","","","","","","","NaN",""
"","S1","","html-keyboard-response","497","641150","0.0-1.0-695.0","0","0","98330","","null","","","null","77","","","","","","","","","","","","","","","",""
"","ISI","","html-keyboard-response","498","642154","0.0-1.0-696.0","0","0","98330","","null","","","null","77","NaN","","","","","","","","","","","","","","",""
"","S2","","html-keyboard-response","499","642409","0.0-1.0-697.0","0","0","98330","","null","","","null","77","","NaN","","","","","","","","","","","","","",""
"","response","","html-keyboard-response","500","643008","0.0-1.0-698.0-0.0","0","0","98330","","597","","","75","77","","","2","77","training","adjacent","FE","6","5","R.jpg","N.jpg","0","0","1","",""
"","feedback","","html-keyboard-response","501","644011","0.0-1.0-699.0-0.0","0","0","98330","","null","","","null","77","","","","","","","","","","","","","","","",""
"","ITI","","html-keyboard-response","502","645015","0.0-1.0-702.0","0","0","98330","","null","","","null","77","","","","","","","","","","","","","","","NaN",""
"","S1","","html-keyboard-response","503","645271","0.0-1.0-704.0","0","0","98330","","null","","","null","78","","","","","","","","","","","","","","","",""
"","ISI","","html-keyboard-response","504","646275","0.0-1.0-705.0","0","0","98330","","null","","","null","78","NaN","","","","","","","","","","","","","","",""
"","S2","","html-keyboard-response","505","646530","0.0-1.0-706.0","0","0","98330","","null","","","null","78","","NaN","","","","","","","","","","","","","",""
"","response","","html-keyboard-response","506","646960","0.0-1.0-707.0-0.0","0","0","98330","","427","","","75","78","","","2","78","training","adjacent","EF","5","6","N.jpg","R.jpg","0","1","0","",""
"","feedback","","html-keyboard-response","507","647964","0.0-1.0-708.0-0.0","0","0","98330","","null","","","null","78","","","","","","","","","","","","","","","",""
"","time_out","","html-keyboard-response","508","649967","0.0-1.0-710.0-0.0","0","0","98330","","null","","","null","78","","","","","","","","","","","","","","","",""
"","ITI","","html-keyboard-response","509","650971","0.0-1.0-711.0","0","0","98330","","null","","","null","78","","","","","","","","","","","","","","","NaN",""
"","S1","","html-keyboard-response","510","651226","0.0-1.0-713.0","0","0","98330","","null","","","null","79","","","","","","","","","","","","","","","",""
"","ISI","","html-keyboard-response","511","652231","0.0-1.0-714.0","0","0","98330","","null","","","null","79","NaN","","","","","","","","","","","","","","",""
"","S2","","html-keyboard-response","512","652486","0.0-1.0-715.0","0","0","98330","","null","","","null","79","","NaN","","","","","","","","","","","","","",""
"","response","","html-keyboard-response","513","652605","0.0-1.0-716.0-0.0","0","0","98330","","116","","","68","79","","","2","79","training","adjacent","BA","2","1","Q.jpg","M.jpg","1","0","0","",""
"","feedback","","html-keyboard-response","514","653612","0.0-1.0-717.0-0.0","0","0","98330","","null","","","null","79","","","","","","","","","","","","","","","",""
"","time_out","","html-keyboard-response","515","655615","0.0-1.0-719.0-0.0","0","0","98330","","null","","","null","79","","","","","","","","","","","","","","","",""
"","ITI","","html-keyboard-response","516","656620","0.0-1.0-720.0","0","0","98330","","null","","","null","79","","","","","","","","","","","","","","","NaN",""
"","S1","","html-keyboard-response","517","656875","0.0-1.0-722.0","0","0","98330","","null","","","null","80","","","","","","","","","","","","","","","",""
"","ISI","","html-keyboard-response","518","657879","0.0-1.0-723.0","0","0","98330","","null","","","null","80","NaN","","","","","","","","","","","","","","",""
"","S2","","html-keyboard-response","519","658134","0.0-1.0-724.0","0","0","98330","","null","","","null","80","","NaN","","","","","","","","","","","","","",""
"","response","","html-keyboard-response","520","658319","0.0-1.0-725.0-0.0","0","0","98330","","182","","","68","80","","","2","80","training","adjacent","CD","3","4","L.jpg","P.jpg","1","1","1","",""
"","feedback","","html-keyboard-response","521","659324","0.0-1.0-726.0-0.0","0","0","98330","","null","","","null","80","","","","","","","","","","","","","","","",""
"","ITI","","html-keyboard-response","522","660329","0.0-1.0-729.0","0","0","98330","","null","","","null","80","","","","","","","","","","","","","","","NaN",""
"","S1","","html-keyboard-response","523","660584","0.0-1.0-731.0","0","0","98330","","null","","","null","81","","","","","","","","","","","","","","","",""
"","ISI","","html-keyboard-response","524","661589","0.0-1.0-732.0","0","0","98330","","null","","","null","81","NaN","","","","","","","","","","","","","","",""
"","S2","","html-keyboard-response","525","661845","0.0-1.0-733.0","0","0","98330","","null","","","null","81","","NaN","","","","","","","","","","","","","",""
"","response","","html-keyboard-response","526","662228","0.0-1.0-734.0-0.0","0","0","98330","","381","","","68","81","","","2","81","training","adjacent","CD","3","4","L.jpg","P.jpg","1","1","1","",""
"","feedback","","html-keyboard-response","527","663232","0.0-1.0-735.0-0.0","0","0","98330","","null","","","null","81","","","","","","","","","","","","","","","",""
"","ITI","","html-keyboard-response","528","664235","0.0-1.0-738.0","0","0","98330","","null","","","null","81","","","","","","","","","","","","","","","NaN",""
"","S1","","html-keyboard-response","529","664491","0.0-1.0-740.0","0","0","98330","","null","","","null","82","","","","","","","","","","","","","","","",""
"","ISI","","html-keyboard-response","530","665495","0.0-1.0-741.0","0","0","98330","","null","","","null","82","NaN","","","","","","","","","","","","","","",""
"","S2","","html-keyboard-response","531","665750","0.0-1.0-742.0","0","0","98330","","null","","","null","82","","NaN","","","","","","","","","","","","","",""
"","response","","html-keyboard-response","532","666880","0.0-1.0-743.0-0.0","0","0","98330","","1128","","","75","82","","","2","82","training","adjacent","DE","4","5","P.jpg","N.jpg","0","1","0","",""
"","feedback","","html-keyboard-response","533","667887","0.0-1.0-744.0-0.0","0","0","98330","","null","","","null","82","","","","","","","","","","","","","","","",""
"","time_out","","html-keyboard-response","534","669889","0.0-1.0-746.0-0.0","0","0","98330","","null","","","null","82","","","","","","","","","","","","","","","",""
"","ITI","","html-keyboard-response","535","670894","0.0-1.0-747.0","0","0","98330","","null","","","null","82","","","","","","","","","","","","","","","NaN",""
"","S1","","html-keyboard-response","536","671149","0.0-1.0-749.0","0","0","98330","","null","","","null","83","","","","","","","","","","","","","","","",""
"","ISI","","html-keyboard-response","537","672153","0.0-1.0-750.0","0","0","98330","","null","","","null","83","NaN","","","","","","","","","","","","","","",""
"","S2","","html-keyboard-response","538","672408","0.0-1.0-751.0","0","0","98330","","null","","","null","83","","NaN","","","","","","","","","","","","","",""
"","response","","html-keyboard-response","539","672614","0.0-1.0-752.0-0.0","0","0","98330","","204","","","75","83","","","2","83","training","adjacent","FE","6","5","R.jpg","N.jpg","0","0","1","",""
"","feedback","","html-keyboard-response","540","673621","0.0-1.0-753.0-0.0","0","0","98330","","null","","","null","83","","","","","","","","","","","","","","","",""
"","ITI","","html-keyboard-response","541","674626","0.0-1.0-756.0","0","0","98330","","null","","","null","83","","","","","","","","","","","","","","","NaN",""
"","S1","","html-keyboard-response","542","674881","0.0-1.0-758.0","0","0","98330","","null","","","null","84","","","","","","","","","","","","","","","",""
"","ISI","","html-keyboard-response","543","675885","0.0-1.0-759.0","0","0","98330","","null","","","null","84","NaN","","","","","","","","","","","","","","",""
"","S2","","html-keyboard-response","544","676142","0.0-1.0-760.0","0","0","98330","","null","","","null","84","","NaN","","","","","","","","","","","","","",""
"","response","","html-keyboard-response","545","676375","0.0-1.0-761.0-0.0","0","0","98330","","232","","","68","84","","","2","84","training","adjacent","ED","5","4","N.jpg","P.jpg","1","0","0","",""
"","feedback","","html-keyboard-response","546","677378","0.0-1.0-762.0-0.0","0","0","98330","","null","","","null","84","","","","","","","","","","","","","","","",""
"","time_out","","html-keyboard-response","547","679380","0.0-1.0-764.0-0.0","0","0","98330","","null","","","null","84","","","","","","","","","","","","","","","",""
"","ITI","","html-keyboard-response","548","680384","0.0-1.0-765.0","0","0","98330","","null","","","null","84","","","","","","","","","","","","","","","NaN",""
"","S1","","html-keyboard-response","549","680640","0.0-1.0-767.0","0","0","98330","","null","","","null","85","","","","","","","","","","","","","","","",""
"","ISI","","html-keyboard-response","550","681644","0.0-1.0-768.0","0","0","98330","","null","","","null","85","NaN","","","","","","","","","","","","","","",""
"","S2","","html-keyboard-response","551","681899","0.0-1.0-769.0","0","0","98330","","null","","","null","85","","NaN","","","","","","","","","","","","","",""
"","response","","html-keyboard-response","552","682015","0.0-1.0-770.0-0.0","0","0","98330","","113","","","75","85","","","2","85","training","adjacent","BA","2","1","Q.jpg","M.jpg","0","0","1","",""
"","feedback","","html-keyboard-response","553","683021","0.0-1.0-771.0-0.0","0","0","98330","","null","","","null","85","","","","","","","","","","","","","","","",""
"","ITI","","html-keyboard-response","554","684024","0.0-1.0-774.0","0","0","98330","","null","","","null","85","","","","","","","","","","","","","","","NaN",""
"","S1","","html-keyboard-response","555","684279","0.0-1.0-776.0","0","0","98330","","null","","","null","86","","","","","","","","","","","","","","","",""
"","ISI","","html-keyboard-response","556","685283","0.0-1.0-777.0","0","0","98330","","null","","","null","86","NaN","","","","","","","","","","","","","","",""
"","S2","","html-keyboard-response","557","685540","0.0-1.0-778.0","0","0","98330","","null","","","null","86","","NaN","","","","","","","","","","","","","",""
"","response","","html-keyboard-response","558","686297","0.0-1.0-779.0-0.0","0","0","98330","","756","","","75","86","","","2","86","training","adjacent","DE","4","5","P.jpg","N.jpg","0","1","0","",""
"","feedback","","html-keyboard-response","559","687304","0.0-1.0-780.0-0.0","0","0","98330","","null","","","null","86","","","","","","","","","","","","","","","",""
"","time_out","","html-keyboard-response","560","689306","0.0-1.0-782.0-0.0","0","0","98330","","null","","","null","86","","","","","","","","","","","","","","","",""
"","ITI","","html-keyboard-response","561","690311","0.0-1.0-783.0","0","0","98330","","null","","","null","86","","","","","","","","","","","","","","","NaN",""
"","S1","","html-keyboard-response","562","690563","0.0-1.0-785.0","0","0","98330","","null","","","null","87","","","","","","","","","","","","","","","",""
"","ISI","","html-keyboard-response","563","691570","0.0-1.0-786.0","0","0","98330","","null","","","null","87","NaN","","","","","","","","","","","","","","",""
"","S2","","html-keyboard-response","564","691826","0.0-1.0-787.0","0","0","98330","","null","","","null","87","","NaN","","","","","","","","","","","","","",""
"","response","","html-keyboard-response","565","691845","0.0-1.0-788.0-0.0","0","0","98330","","18","","","68","87","","","2","87","training","adjacent","BC","2","3","Q.jpg","L.jpg","1","1","1","",""
"","feedback","","html-keyboard-response","566","692848","0.0-1.0-789.0-0.0","0","0","98330","","null","","","null","87","","","","","","","","","","","","","","","",""
"","ITI","","html-keyboard-response","567","693853","0.0-1.0-792.0","0","0","98330","","null","","","null","87","","","","","","","","","","","","","","","NaN",""
"","S1","","html-keyboard-response","568","694107","0.0-1.0-794.0","0","0","98330","","null","","","null","88","","","","","","","","","","","","","","","",""
"","ISI","","html-keyboard-response","569","695111","0.0-1.0-795.0","0","0","98330","","null","","","null","88","NaN","","","","","","","","","","","","","","",""
"","S2","","html-keyboard-response","570","695367","0.0-1.0-796.0","0","0","98330","","null","","","null","88","","NaN","","","","","","","","","","","","","",""
"","response","","html-keyboard-response","571","695545","0.0-1.0-797.0-0.0","0","0","98330","","175","","","68","88","","","2","88","training","adjacent","ED","5","4","N.jpg","P.jpg","1","0","0","",""
"","feedback","","html-keyboard-response","572","696551","0.0-1.0-798.0-0.0","0","0","98330","","null","","","null","88","","","","","","","","","","","","","","","",""
"","time_out","","html-keyboard-response","573","698554","0.0-1.0-800.0-0.0","0","0","98330","","null","","","null","88","","","","","","","","","","","","","","","",""
"","ITI","","html-keyboard-response","574","699558","0.0-1.0-801.0","0","0","98330","","null","","","null","88","","","","","","","","","","","","","","","NaN",""
"","S1","","html-keyboard-response","575","699813","0.0-1.0-803.0","0","0","98330","","null","","","null","89","","","","","","","","","","","","","","","",""
"","ISI","","html-keyboard-response","576","700817","0.0-1.0-804.0","0","0","98330","","null","","","null","89","NaN","","","","","","","","","","","","","","",""
"","S2","","html-keyboard-response","577","701073","0.0-1.0-805.0","0","0","98330","","null","","","null","89","","NaN","","","","","","","","","","","","","",""
"","response","","html-keyboard-response","578","702273","0.0-1.0-806.0-0.0","0","0","98330","","1197","","","75","89","","","2","89","training","adjacent","FG","6","7","R.jpg","O.jpg","0","1","0","",""
"","feedback","","html-keyboard-response","579","703278","0.0-1.0-807.0-0.0","0","0","98330","","null","","","null","89","","","","","","","","","","","","","","","",""
"","time_out","","html-keyboard-response","580","705281","0.0-1.0-809.0-0.0","0","0","98330","","null","","","null","89","","","","","","","","","","","","","","","",""
"","ITI","","html-keyboard-response","581","706285","0.0-1.0-810.0","0","0","98330","","null","","","null","89","","","","","","","","","","","","","","","NaN",""
"","S1","","html-keyboard-response","582","706541","0.0-1.0-812.0","0","0","98330","","null","","","null","90","","","","","","","","","","","","","","","",""
