"success","ttype","start_time","trial_type","trial_index","time_elapsed","internal_node_id","warning","missed_checkup","PID","view_history","rt","responses","repeat_instructions","key_press","index","keypress_isi","keypress_S2","block","trial_num","phase","group_type","pair_type","S1_stim","S2_stim","S1_img","S2_img","S1_chosen","S1_higher","accuracy","keypress_iti","total_bonus_tally"
"true","full_screen","d04132023hr1635","fullscreen","0","16388","0.0-0.0","0","0","65015","","","","","","","","","","","","","","","","","","","","","",""
"","instructions","","instructions","1","65724","0.0-1.0-0.0-0.0","0","0","65015","[{""page_index"":0,""viewing_time"":6165},{""page_index"":1,""viewing_time"":28024},{""page_index"":2,""viewing_time"":11974},{""page_index"":3,""viewing_time"":3170}]","49334","","","","","","","","","","","","","","","","","","","",""
"","comprehension_check","","survey-multi-choice","2","102939","0.0-1.0-0.0-1.0","0","0","65015","","37208","{""Q0"":""True"",""Q1"":""K"",""Q2"":""Only when the screen 'MAKE A CHOICE' is shown"",""Q3"":""Green mark"",""Q4"":""either D or K""}","1","","","","","","","","","","","","","","","","","",""
"","missed_instruction_checkup","","html-keyboard-response","3","105418","0.0-1.0-0.0-2.0-0.0","0","1","65015","","2474","","","32","","","","","","","","","","","","","","","","",""
"","instructions","","instructions","4","121972","0.0-1.0-0.1-0.1","0","0","65015","[{""page_index"":0,""viewing_time"":4928},{""page_index"":1,""viewing_time"":9064},{""page_index"":2,""viewing_time"":1378},{""page_index"":3,""viewing_time"":1182}]","16552","","","","","","","","","","","","","","","","","","","",""
"","comprehension_check","","survey-multi-choice","5","134938","0.0-1.0-0.1-1.1","0","0","65015","","12960","{""Q0"":""True"",""Q1"":""D"",""Q2"":""Once the second image appears and while the screen 'MAKE A CHOICE' is shown"",""Q3"":""Green mark"",""Q4"":""either D or K""}","1","","","","","","","","","","","","","","","","","",""
"","missed_instruction_checkup","","html-keyboard-response","6","137892","0.0-1.0-0.1-2.1-0.1","0","1","65015","","2951","","","32","","","","","","","","","","","","","","","","",""
"","instructions","","instructions","7","166565","0.0-1.0-0.2-0.2","0","0","65015","[{""page_index"":0,""viewing_time"":5860},{""page_index"":1,""viewing_time"":12692},{""page_index"":2,""viewing_time"":8723},{""page_index"":3,""viewing_time"":1397}]","28672","","","","","","","","","","","","","","","","","","","",""
"","comprehension_check","","survey-multi-choice","8","199855","0.0-1.0-0.2-1.2","0","0","65015","","33284","{""Q0"":""False"",""Q1"":""K"",""Q2"":""Once the second image appears and while the screen 'MAKE A CHOICE' is shown"",""Q3"":""Green mark"",""Q4"":""either D or K""}","1","","","","","","","","","","","","","","","","","",""
"","missed_instruction_checkup","","html-keyboard-response","9","201335","0.0-1.0-0.2-2.2-0.2","0","1","65015","","1477","","","32","","","","","","","","","","","","","","","","",""
"","instructions","","instructions","10","205763","0.0-1.0-0.3-0.3","0","0","65015","[{""page_index"":0,""viewing_time"":2449},{""page_index"":1,""viewing_time"":517},{""page_index"":2,""viewing_time"":598},{""page_index"":3,""viewing_time"":862}]","4427","","","","","","","","","","","","","","","","","","","",""
"","comprehension_check","","survey-multi-choice","11","221031","0.0-1.0-0.3-1.3","0","0","65015","","15263","{""Q0"":""True"",""Q1"":""K"",""Q2"":""Only when the screen 'MAKE A CHOICE' is shown"",""Q3"":""Green mark"",""Q4"":""either D or K""}","1","","","","","","","","","","","","","","","","","",""
"","missed_instruction_checkup","","html-keyboard-response","12","222133","0.0-1.0-0.3-2.3-0.3","0","1","65015","","1098","","","32","","","","","","","","","","","","","","","","",""
"","instructions","","instructions","13","229179","0.0-1.0-0.4-0.4","0","0","65015","[{""page_index"":0,""viewing_time"":1591},{""page_index"":1,""viewing_time"":844},{""page_index"":2,""viewing_time"":3843},{""page_index"":3,""viewing_time"":767}]","7045","","","","","","","","","","","","","","","","","","","",""
"","comprehension_check","","survey-multi-choice","14","244456","0.0-1.0-0.4-1.4","0","0","65015","","15272","{""Q0"":""False"",""Q1"":""K"",""Q2"":""Only when the screen 'MAKE A CHOICE' is shown"",""Q3"":""Green mark"",""Q4"":""either D or K""}","1","","","","","","","","","","","","","","","","","",""
"","missed_instruction_checkup","","html-keyboard-response","15","245696","0.0-1.0-0.4-2.4-0.4","0","1","65015","","1236","","","32","","","","","","","","","","","","","","","","",""
"","instructions","","instructions","16","250768","0.0-1.0-0.5-0.5","0","0","65015","[{""page_index"":0,""viewing_time"":1400},{""page_index"":1,""viewing_time"":665},{""page_index"":2,""viewing_time"":1806},{""page_index"":3,""viewing_time"":1200}]","5071","","","","","","","","","","","","","","","","","","","",""
"","comprehension_check","","survey-multi-choice","17","263133","0.0-1.0-0.5-1.5","0","0","65015","","12360","{""Q0"":""False"",""Q1"":""K"",""Q2"":""Only when the screen 'MAKE A CHOICE' is shown"",""Q3"":""Green mark"",""Q4"":""either D or K""}","1","","","","","","","","","","","","","","","","","",""
"","missed_instruction_checkup","","html-keyboard-response","18","265166","0.0-1.0-0.5-2.5-0.5","0","1","65015","","2030","","","32","","","","","","","","","","","","","","","","",""
"","instructions","","instructions","19","297930","0.0-1.0-0.6-0.6","0","0","65015","[{""page_index"":0,""viewing_time"":4539},{""page_index"":1,""viewing_time"":463},{""page_index"":2,""viewing_time"":1454},{""page_index"":1,""viewing_time"":22512},{""page_index"":2,""viewing_time"":2846},{""page_index"":3,""viewing_time"":948}]","32762","","","","","","","","","","","","","","","","","","","",""
"","comprehension_check","","survey-multi-choice","20","319333","0.0-1.0-0.6-1.6","0","0","65015","","21398","{""Q0"":""True"",""Q1"":""K"",""Q2"":""Once the second image appears and while the screen 'MAKE A CHOICE' is shown"",""Q3"":""Green mark"",""Q4"":""either D or K""}","0","","","","","","","","","","","","","","","","","",""
"","start_exp","","html-keyboard-response","21","321290","0.0-1.0-1.0","0","0","65015","","1954","","","32","","","","","","","","","","","","","","","","",""
"","S1","","html-keyboard-response","22","321550","0.0-1.0-2.0","0","0","65015","","null","","","null","0","","","","","","","","","","","","","","","",""
"","ISI","","html-keyboard-response","23","322558","0.0-1.0-3.0","0","0","65015","","null","","","null","0","NaN","","","","","","","","","","","","","","",""
"","S2","","html-keyboard-response","24","322819","0.0-1.0-4.0","0","0","65015","","null","","","null","0","","NaN","","","","","","","","","","","","","",""
"","response","","html-keyboard-response","25","323242","0.0-1.0-5.0-0.0","0","0","65015","","419","","","75","0","","","1","0","training","adjacent","BC","2","3","O.jpg","M.jpg","1","1","1","",""
"","feedback","","html-keyboard-response","26","324254","0.0-1.0-6.0-0.0","0","0","65015","","null","","","null","0","","","","","","","","","","","","","","","",""
"","ITI","","html-keyboard-response","27","325261","0.0-1.0-9.0","0","0","65015","","null","","","null","0","","","","","","","","","","","","","","","NaN",""
"","S1","","html-keyboard-response","28","325523","0.0-1.0-11.0","0","0","65015","","null","","","null","1","","","","","","","","","","","","","","","",""
"","ISI","","html-keyboard-response","29","326532","0.0-1.0-12.0","0","0","65015","","null","","","null","1","NaN","","","","","","","","","","","","","","",""
"","S2","","html-keyboard-response","30","326788","0.0-1.0-13.0","0","0","65015","","null","","","null","1","","NaN","","","","","","","","","","","","","",""
"","response","","html-keyboard-response","31","327289","0.0-1.0-14.0-0.0","0","0","65015","","500","","","75","1","","","1","1","training","adjacent","DE","4","5","N.jpg","P.jpg","1","1","1","",""
"","feedback","","html-keyboard-response","32","328301","0.0-1.0-15.0-0.0","0","0","65015","","null","","","null","1","","","","","","","","","","","","","","","",""
"","ITI","","html-keyboard-response","33","329310","0.0-1.0-18.0","0","0","65015","","null","","","null","1","","","","","","","","","","","","","","","NaN",""
"","S1","","html-keyboard-response","34","329571","0.0-1.0-20.0","0","0","65015","","null","","","null","2","","","","","","","","","","","","","","","",""
"","ISI","","html-keyboard-response","35","330579","0.0-1.0-21.0","0","0","65015","","null","","","null","2","NaN","","","","","","","","","","","","","","",""
"","S2","","html-keyboard-response","36","330835","0.0-1.0-22.0","0","0","65015","","null","","","null","2","","NaN","","","","","","","","","","","","","",""
"","response","","html-keyboard-response","37","331620","0.0-1.0-23.0-0.0","0","0","65015","","782","","","68","2","","","1","2","training","adjacent","ED","5","4","P.jpg","N.jpg","0","0","1","",""
"","feedback","","html-keyboard-response","38","332626","0.0-1.0-24.0-0.0","0","0","65015","","null","","","null","2","","","","","","","","","","","","","","","",""
"","ITI","","html-keyboard-response","39","333635","0.0-1.0-27.0","0","0","65015","","null","","","null","2","","","","","","","","","","","","","","","NaN",""
"","S1","","html-keyboard-response","40","333891","0.0-1.0-29.0","0","0","65015","","null","","","null","3","","","","","","","","","","","","","","","",""
"","ISI","","html-keyboard-response","41","334900","0.0-1.0-30.0","0","0","65015","","null","","","null","3","NaN","","","","","","","","","","","","","","",""
"","S2","","html-keyboard-response","42","335155","0.0-1.0-31.0","0","0","65015","","null","","","null","3","","NaN","","","","","","","","","","","","","",""
"","response","","html-keyboard-response","43","335948","0.0-1.0-32.0-0.0","0","0","65015","","790","","","68","3","","","1","3","training","adjacent","FE","6","5","Q.jpg","P.jpg","0","0","1","",""
"","feedback","","html-keyboard-response","44","336958","0.0-1.0-33.0-0.0","0","0","65015","","null","","","null","3","","","","","","","","","","","","","","","",""
"","ITI","","html-keyboard-response","45","337965","0.0-1.0-36.0","0","0","65015","","null","","","null","3","","","","","","","","","","","","","","","NaN",""
"","S1","","html-keyboard-response","46","338227","0.0-1.0-38.0","0","0","65015","","null","","","null","4","","","","","","","","","","","","","","","",""
"","ISI","","html-keyboard-response","47","339235","0.0-1.0-39.0","0","0","65015","","null","","","null","4","NaN","","","","","","","","","","","","","","",""
"","S2","","html-keyboard-response","48","339491","0.0-1.0-40.0","0","0","65015","","null","","","null","4","","NaN","","","","","","","","","","","","","",""
"","response","","html-keyboard-response","49","340107","0.0-1.0-41.0-0.0","0","0","65015","","613","","","68","4","","","1","4","training","adjacent","AB","1","2","L.jpg","O.jpg","0","1","0","",""
"","feedback","","html-keyboard-response","50","341118","0.0-1.0-42.0-0.0","0","0","65015","","null","","","null","4","","","","","","","","","","","","","","","",""
"","time_out","","html-keyboard-response","51","343123","0.0-1.0-44.0-0.0","0","0","65015","","null","","","null","4","","","","","","","","","","","","","","","",""
"","ITI","","html-keyboard-response","52","344131","0.0-1.0-45.0","0","0","65015","","null","","","null","4","","","","","","","","","","","","","","","NaN",""
"","S1","","html-keyboard-response","53","344387","0.0-1.0-47.0","0","0","65015","","null","","","null","5","","","","","","","","","","","","","","","",""
"","ISI","","html-keyboard-response","54","345395","0.0-1.0-48.0","0","0","65015","","null","","","null","5","NaN","","","","","","","","","","","","","","",""
"","S2","","html-keyboard-response","55","345651","0.0-1.0-49.0","0","0","65015","","null","","","null","5","","NaN","","","","","","","","","","","","","",""
"","response","","html-keyboard-response","56","346044","0.0-1.0-50.0-0.0","0","0","65015","","390","","","75","5","","","1","5","training","adjacent","DC","4","3","N.jpg","M.jpg","1","0","0","",""
"","feedback","","html-keyboard-response","57","347054","0.0-1.0-51.0-0.0","0","0","65015","","null","","","null","5","","","","","","","","","","","","","","","",""
"","time_out","","html-keyboard-response","58","349059","0.0-1.0-53.0-0.0","0","0","65015","","null","","","null","5","","","","","","","","","","","","","","","",""
"","ITI","","html-keyboard-response","59","350067","0.0-1.0-54.0","0","0","65015","","null","","","null","5","","","","","","","","","","","","","","","NaN",""
"","S1","","html-keyboard-response","60","350323","0.0-1.0-56.0","0","0","65015","","null","","","null","6","","","","","","","","","","","","","","","",""
"","ISI","","html-keyboard-response","61","351331","0.0-1.0-57.0","0","0","65015","","null","","","null","6","NaN","","","","","","","","","","","","","","",""
"","S2","","html-keyboard-response","62","351587","0.0-1.0-58.0","0","0","65015","","null","","","null","6","","NaN","","","","","","","","","","","","","",""
"","response","","html-keyboard-response","63","352532","0.0-1.0-59.0-0.0","0","0","65015","","942","","","75","6","","","1","6","training","adjacent","BA","2","1","O.jpg","L.jpg","1","0","0","",""
"","feedback","","html-keyboard-response","64","353539","0.0-1.0-60.0-0.0","0","0","65015","","null","","","null","6","","","","","","","","","","","","","","","",""
"","time_out","","html-keyboard-response","65","355550","0.0-1.0-62.0-0.0","0","0","65015","","null","","","null","6","","","","","","","","","","","","","","","",""
"","ITI","","html-keyboard-response","66","356558","0.0-1.0-63.0","0","0","65015","","null","","","null","6","","","","","","","","","","","","","","","NaN",""
"","S1","","html-keyboard-response","67","356819","0.0-1.0-65.0","0","0","65015","","null","","","null","7","","","","","","","","","","","","","","","",""
"","ISI","","html-keyboard-response","68","357827","0.0-1.0-66.0","0","0","65015","","null","","","null","7","NaN","","","","","","","","","","","","","","",""
"","S2","","html-keyboard-response","69","358083","0.0-1.0-67.0","0","0","65015","","null","","","null","7","","NaN","","","","","","","","","","","","","",""
"","response","","html-keyboard-response","70","358886","0.0-1.0-68.0-0.0","0","0","65015","","800","","","75","7","","","1","7","training","adjacent","CD","3","4","M.jpg","N.jpg","1","1","1","",""
"","feedback","","html-keyboard-response","71","359891","0.0-1.0-69.0-0.0","0","0","65015","","null","","","null","7","","","","","","","","","","","","","","","",""
"","ITI","","html-keyboard-response","72","360898","0.0-1.0-72.0","0","0","65015","","null","","","null","7","","","","","","","","","","","","","","","NaN",""
"","S1","","html-keyboard-response","73","361157","0.0-1.0-74.0","0","0","65015","","null","","","null","8","","","","","","","","","","","","","","","",""
"","ISI","","html-keyboard-response","74","362163","0.0-1.0-75.0","0","0","65015","","null","","","null","8","NaN","","","","","","","","","","","","","","",""
"","S2","","html-keyboard-response","75","362419","0.0-1.0-76.0","0","0","65015","","null","","","null","8","","NaN","","","","","","","","","","","","","",""
"","response","","html-keyboard-response","76","363467","0.0-1.0-77.0-0.0","0","0","65015","","1046","","","68","8","","","1","8","training","adjacent","EF","5","6","P.jpg","Q.jpg","0","1","0","",""
"","feedback","","html-keyboard-response","77","364478","0.0-1.0-78.0-0.0","0","0","65015","","null","","","null","8","","","","","","","","","","","","","","","",""
"","time_out","","html-keyboard-response","78","366483","0.0-1.0-80.0-0.0","0","0","65015","","null","","","null","8","","","","","","","","","","","","","","","",""
"","ITI","","html-keyboard-response","79","367491","0.0-1.0-81.0","0","0","65015","","null","","","null","8","","","","","","","","","","","","","","","NaN",""
"","S1","","html-keyboard-response","80","367747","0.0-1.0-83.0","0","0","65015","","null","","","null","9","","","","","","","","","","","","","","","",""
"","ISI","","html-keyboard-response","81","368755","0.0-1.0-84.0","0","0","65015","","null","","","null","9","NaN","","","","","","","","","","","","","","",""
"","S2","","html-keyboard-response","82","369011","0.0-1.0-85.0","0","0","65015","","null","","","null","9","","NaN","","","","","","","","","","","","","",""
"","response","","html-keyboard-response","83","370470","0.0-1.0-86.0-0.0","0","0","65015","","1457","","","75","9","","","1","9","training","adjacent","ED","5","4","P.jpg","N.jpg","1","0","0","",""
"","feedback","","html-keyboard-response","84","371476","0.0-1.0-87.0-0.0","0","0","65015","","null","","","null","9","","","","","","","","","","","","","","","",""
"","time_out","","html-keyboard-response","85","373486","0.0-1.0-89.0-0.0","0","0","65015","","null","","","null","9","","","","","","","","","","","","","","","",""
"","ITI","","html-keyboard-response","86","374493","0.0-1.0-90.0","0","0","65015","","null","","","null","9","","","","","","","","","","","","","","","NaN",""
"","S1","","html-keyboard-response","87","374755","0.0-1.0-92.0","0","0","65015","","null","","","null","10","","","","","","","","","","","","","","","",""
"","ISI","","html-keyboard-response","88","375763","0.0-1.0-93.0","0","0","65015","","null","","","null","10","NaN","","","","","","","","","","","","","","",""
"","S2","","html-keyboard-response","89","376019","0.0-1.0-94.0","0","0","65015","","null","","","null","10","","NaN","","","","","","","","","","","","","",""
"","response","","html-keyboard-response","90","377011","0.0-1.0-95.0-0.0","0","0","65015","","989","","","75","10","","","1","10","training","adjacent","FE","6","5","Q.jpg","P.jpg","1","0","0","",""
"","feedback","","html-keyboard-response","91","378019","0.0-1.0-96.0-0.0","0","0","65015","","null","","","null","10","","","","","","","","","","","","","","","",""
"","time_out","","html-keyboard-response","92","380030","0.0-1.0-98.0-0.0","0","0","65015","","null","","","null","10","","","","","","","","","","","","","","","",""
"","ITI","","html-keyboard-response","93","381037","0.0-1.0-99.0","0","0","65015","","null","","","null","10","","","","","","","","","","","","","","","NaN",""
"","S1","","html-keyboard-response","94","381299","0.0-1.0-101.0","0","0","65015","","null","","","null","11","","","","","","","","","","","","","","","",""
"","ISI","","html-keyboard-response","95","382305","0.0-1.0-102.0","0","0","65015","","null","","","null","11","NaN","","","","","","","","","","","","","","",""
"","S2","","html-keyboard-response","96","382563","0.0-1.0-103.0","0","0","65015","","null","","","null","11","","NaN","","","","","","","","","","","","","",""
"","response","","html-keyboard-response","97","383935","0.0-1.0-104.0-0.0","0","0","65015","","1370","","","68","11","","","1","11","training","adjacent","ED","5","4","P.jpg","N.jpg","0","0","1","",""
"","feedback","","html-keyboard-response","98","384947","0.0-1.0-105.0-0.0","0","0","65015","","null","","","null","11","","","","","","","","","","","","","","","",""
"","ITI","","html-keyboard-response","99","385954","0.0-1.0-108.0","0","0","65015","","null","","","null","11","","","","","","","","","","","","","","","NaN",""
"","S1","","html-keyboard-response","100","386211","0.0-1.0-110.0","0","0","65015","","null","","","null","12","","","","","","","","","","","","","","","",""
"","ISI","","html-keyboard-response","101","387219","0.0-1.0-111.0","0","0","65015","","null","","","null","12","NaN","","","","","","","","","","","","","","",""
"","S2","","html-keyboard-response","102","387475","0.0-1.0-112.0","0","0","65015","","null","","","null","12","","NaN","","","","","","","","","","","","","",""
"","response","","html-keyboard-response","103","387969","0.0-1.0-113.0-0.0","0","0","65015","","492","","","75","12","","","1","12","training","adjacent","GF","7","6","R.jpg","Q.jpg","1","0","0","",""
"","feedback","","html-keyboard-response","104","388979","0.0-1.0-114.0-0.0","0","0","65015","","null","","","null","12","","","","","","","","","","","","","","","",""
"","time_out","","html-keyboard-response","105","390990","0.0-1.0-116.0-0.0","0","0","65015","","null","","","null","12","","","","","","","","","","","","","","","",""
"","ITI","","html-keyboard-response","106","391997","0.0-1.0-117.0","0","0","65015","","null","","","null","12","","","","","","","","","","","","","","","NaN",""
"","S1","","html-keyboard-response","107","392259","0.0-1.0-119.0","0","0","65015","","null","","","null","13","","","","","","","","","","","","","","","",""
"","ISI","","html-keyboard-response","108","393267","0.0-1.0-120.0","0","0","65015","","null","","","null","13","NaN","","","","","","","","","","","","","","",""
"","S2","","html-keyboard-response","109","393523","0.0-1.0-121.0","0","0","65015","","null","","","null","13","","NaN","","","","","","","","","","","","","",""
"","response","","html-keyboard-response","110","394855","0.0-1.0-122.0-0.0","0","0","65015","","1329","","","68","13","","","1","13","training","adjacent","FG","6","7","Q.jpg","R.jpg","0","1","0","",""
"","feedback","","html-keyboard-response","111","395870","0.0-1.0-123.0-0.0","0","0","65015","","null","","","null","13","","","","","","","","","","","","","","","",""
"","time_out","","html-keyboard-response","112","397875","0.0-1.0-125.0-0.0","0","0","65015","","null","","","null","13","","","","","","","","","","","","","","","",""
"","ITI","","html-keyboard-response","113","398883","0.0-1.0-126.0","0","0","65015","","null","","","null","13","","","","","","","","","","","","","","","NaN",""
"","S1","","html-keyboard-response","114","399139","0.0-1.0-128.0","0","0","65015","","null","","","null","14","","","","","","","","","","","","","","","",""
"","ISI","","html-keyboard-response","115","400147","0.0-1.0-129.0","0","0","65015","","null","","","null","14","NaN","","","","","","","","","","","","","","",""
"","S2","","html-keyboard-response","116","400403","0.0-1.0-130.0","0","0","65015","","null","","","null","14","","NaN","","","","","","","","","","","","","",""
"","response","","html-keyboard-response","117","401531","0.0-1.0-131.0-0.0","0","0","65015","","1126","","","75","14","","","1","14","training","adjacent","DC","4","3","N.jpg","M.jpg","1","0","0","",""
"","feedback","","html-keyboard-response","118","402541","0.0-1.0-132.0-0.0","0","0","65015","","null","","","null","14","","","","","","","","","","","","","","","",""
"","time_out","","html-keyboard-response","119","404547","0.0-1.0-134.0-0.0","0","0","65015","","null","","","null","14","","","","","","","","","","","","","","","",""
"","ITI","","html-keyboard-response","120","405555","0.0-1.0-135.0","0","0","65015","","null","","","null","14","","","","","","","","","","","","","","","NaN",""
"","S1","","html-keyboard-response","121","405811","0.0-1.0-137.0","0","0","65015","","null","","","null","15","","","","","","","","","","","","","","","",""
"","ISI","","html-keyboard-response","122","406819","0.0-1.0-138.0","0","0","65015","","null","","","null","15","NaN","","","","","","","","","","","","","","",""
"","S2","","html-keyboard-response","123","407079","0.0-1.0-139.0","0","0","65015","","null","","","null","15","","NaN","","","","","","","","","","","","","",""
"","response","","html-keyboard-response","124","408276","0.0-1.0-140.0-0.0","0","0","65015","","1195","","","75","15","","","1","15","training","adjacent","FG","6","7","Q.jpg","R.jpg","1","1","1","",""
"","feedback","","html-keyboard-response","125","409283","0.0-1.0-141.0-0.0","0","0","65015","","null","","","null","15","","","","","","","","","","","","","","","",""
"","ITI","","html-keyboard-response","126","410290","0.0-1.0-144.0","0","0","65015","","null","","","null","15","","","","","","","","","","","","","","","NaN",""
"","S1","","html-keyboard-response","127","410547","0.0-1.0-146.0","0","0","65015","","null","","","null","16","","","","","","","","","","","","","","","",""
"","ISI","","html-keyboard-response","128","411555","0.0-1.0-147.0","0","0","65015","","null","","","null","16","NaN","","","","","","","","","","","","","","",""
"","S2","","html-keyboard-response","129","411811","0.0-1.0-148.0","0","0","65015","","null","","","null","16","","NaN","","","","","","","","","","","","","",""
"","response","","html-keyboard-response","130","412743","0.0-1.0-149.0-0.0","0","0","65015","","929","","","75","16","","","1","16","training","adjacent","BA","2","1","O.jpg","L.jpg","1","0","0","",""
"","feedback","","html-keyboard-response","131","413758","0.0-1.0-150.0-0.0","0","0","65015","","null","","","null","16","","","","","","","","","","","","","","","",""
"","time_out","","html-keyboard-response","132","415763","0.0-1.0-152.0-0.0","0","0","65015","","null","","","null","16","","","","","","","","","","","","","","","",""
"","ITI","","html-keyboard-response","133","416771","0.0-1.0-153.0","0","0","65015","","null","","","null","16","","","","","","","","","","","","","","","NaN",""
"","S1","","html-keyboard-response","134","417027","0.0-1.0-155.0","0","0","65015","","null","","","null","17","","","","","","","","","","","","","","","",""
"","ISI","","html-keyboard-response","135","418035","0.0-1.0-156.0","0","0","65015","","null","","","null","17","NaN","","","","","","","","","","","","","","",""
"","S2","","html-keyboard-response","136","418291","0.0-1.0-157.0","0","0","65015","","null","","","null","17","","NaN","","","","","","","","","","","","","",""
"","response","","html-keyboard-response","137","419636","0.0-1.0-158.0-0.0","0","0","65015","","1343","","","68","17","","","1","17","training","adjacent","BC","2","3","O.jpg","M.jpg","0","1","0","",""
"","feedback","","html-keyboard-response","138","420643","0.0-1.0-159.0-0.0","0","0","65015","","null","","","null","17","","","","","","","","","","","","","","","",""
"","time_out","","html-keyboard-response","139","422653","0.0-1.0-161.0-0.0","0","0","65015","","null","","","null","17","","","","","","","","","","","","","","","",""
"","ITI","","html-keyboard-response","140","423662","0.0-1.0-162.0","0","0","65015","","null","","","null","17","","","","","","","","","","","","","","","NaN",""
"","S1","","html-keyboard-response","141","423923","0.0-1.0-164.0","0","0","65015","","null","","","null","18","","","","","","","","","","","","","","","",""
"","ISI","","html-keyboard-response","142","424931","0.0-1.0-165.0","0","0","65015","","null","","","null","18","NaN","","","","","","","","","","","","","","",""
"","S2","","html-keyboard-response","143","425187","0.0-1.0-166.0","0","0","65015","","null","","","null","18","","NaN","","","","","","","","","","","","","",""
"","response","","html-keyboard-response","144","426167","0.0-1.0-167.0-0.0","0","0","65015","","977","","","75","18","","","1","18","training","adjacent","BC","2","3","O.jpg","M.jpg","1","1","1","",""
"","feedback","","html-keyboard-response","145","427171","0.0-1.0-168.0-0.0","0","0","65015","","null","","","null","18","","","","","","","","","","","","","","","",""
"","ITI","","html-keyboard-response","146","428179","0.0-1.0-171.0","0","0","65015","","null","","","null","18","","","","","","","","","","","","","","","NaN",""
"","S1","","html-keyboard-response","147","428435","0.0-1.0-173.0","0","0","65015","","null","","","null","19","","","","","","","","","","","","","","","",""
"","ISI","","html-keyboard-response","148","429443","0.0-1.0-174.0","0","0","65015","","null","","","null","19","NaN","","","","","","","","","","","","","","",""
"","S2","","html-keyboard-response","149","429699","0.0-1.0-175.0","0","0","65015","","null","","","null","19","","NaN","","","","","","","","","","","","","",""
"","response","","html-keyboard-response","150","430944","0.0-1.0-176.0-0.0","0","0","65015","","1242","","","75","19","","","1","19","training","adjacent","BC","2","3","O.jpg","M.jpg","1","1","1","",""
"","feedback","","html-keyboard-response","151","431955","0.0-1.0-177.0-0.0","0","0","65015","","null","","","null","19","","","","","","","","","","","","","","","",""
"","ITI","","html-keyboard-response","152","432962","0.0-1.0-180.0","0","0","65015","","null","","","null","19","","","","","","","","","","","","","","","NaN",""
"","S1","","html-keyboard-response","153","433219","0.0-1.0-182.0","0","0","65015","","null","","","null","20","","","","","","","","","","","","","","","",""
"","ISI","","html-keyboard-response","154","434227","0.0-1.0-183.0","0","0","65015","","null","","","null","20","NaN","","","","","","","","","","","","","","",""
"","S2","","html-keyboard-response","155","434483","0.0-1.0-184.0","0","0","65015","","null","","","null","20","","NaN","","","","","","","","","","","","","",""
"","response","","html-keyboard-response","156","436227","0.0-1.0-185.0-0.0","0","0","65015","","1741","","","68","20","","","1","20","training","adjacent","BA","2","1","O.jpg","L.jpg","0","0","1","",""
"","feedback","","html-keyboard-response","157","437235","0.0-1.0-186.0-0.0","0","0","65015","","null","","","null","20","","","","","","","","","","","","","","","",""
"","ITI","","html-keyboard-response","158","438246","0.0-1.0-189.0","0","0","65015","","null","","","null","20","","","","","","","","","","","","","","","NaN",""
"","S1","","html-keyboard-response","159","438510","0.0-1.0-191.0","0","0","65015","","null","","","null","21","","","","","","","","","","","","","","","",""
"","ISI","","html-keyboard-response","160","439518","0.0-1.0-192.0","0","0","65015","","null","","","null","21","NaN","","","","","","","","","","","","","","",""
"","S2","","html-keyboard-response","161","439779","0.0-1.0-193.0","0","0","65015","","null","","","null","21","","NaN","","","","","","","","","","","","","",""
"","response","","html-keyboard-response","162","440644","0.0-1.0-194.0-0.0","0","0","65015","","862","","","75","21","","","1","21","training","adjacent","DE","4","5","N.jpg","P.jpg","1","1","1","",""
"","feedback","","html-keyboard-response","163","441650","0.0-1.0-195.0-0.0","0","0","65015","","null","","","null","21","","","","","","","","","","","","","","","",""
"","ITI","","html-keyboard-response","164","442659","0.0-1.0-198.0","0","0","65015","","null","","","null","21","","","","","","","","","","","","","","","NaN",""
"","S1","","html-keyboard-response","165","442914","0.0-1.0-200.0","0","0","65015","","null","","","null","22","","","","","","","","","","","","","","","",""
"","ISI","","html-keyboard-response","166","443923","0.0-1.0-201.0","0","0","65015","","null","","","null","22","NaN","","","","","","","","","","","","","","",""
"","S2","","html-keyboard-response","167","444179","0.0-1.0-202.0","0","0","65015","","null","","","null","22","","NaN","","","","","","","","","","","","","",""
"","response","","html-keyboard-response","168","445762","0.0-1.0-203.0-0.0","0","0","65015","","1580","","","75","22","","","1","22","training","adjacent","FG","6","7","Q.jpg","R.jpg","1","1","1","",""
"","feedback","","html-keyboard-response","169","446771","0.0-1.0-204.0-0.0","0","0","65015","","null","","","null","22","","","","","","","","","","","","","","","",""
"","ITI","","html-keyboard-response","170","447778","0.0-1.0-207.0","0","0","65015","","null","","","null","22","","","","","","","","","","","","","","","NaN",""
"","S1","","html-keyboard-response","171","448035","0.0-1.0-209.0","0","0","65015","","null","","","null","23","","","","","","","","","","","","","","","",""
"","ISI","","html-keyboard-response","172","449043","0.0-1.0-210.0","0","0","65015","","null","","","null","23","NaN","","","","","","","","","","","","","","",""
"","S2","","html-keyboard-response","173","449299","0.0-1.0-211.0","0","0","65015","","null","","","null","23","","NaN","","","","","","","","","","","","","",""
"","response","","html-keyboard-response","174","450363","0.0-1.0-212.0-0.0","0","0","65015","","1061","","","75","23","","","1","23","training","adjacent","DC","4","3","N.jpg","M.jpg","1","0","0","",""
"","feedback","","html-keyboard-response","175","451374","0.0-1.0-213.0-0.0","0","0","65015","","null","","","null","23","","","","","","","","","","","","","","","",""
"","time_out","","html-keyboard-response","176","453379","0.0-1.0-215.0-0.0","0","0","65015","","null","","","null","23","","","","","","","","","","","","","","","",""
"","ITI","","html-keyboard-response","177","454386","0.0-1.0-216.0","0","0","65015","","null","","","null","23","","","","","","","","","","","","","","","NaN",""
"","S1","","html-keyboard-response","178","454643","0.0-1.0-218.0","0","0","65015","","null","","","null","24","","","","","","","","","","","","","","","",""
"","ISI","","html-keyboard-response","179","455651","0.0-1.0-219.0","0","0","65015","","null","","","null","24","NaN","","","","","","","","","","","","","","",""
"","S2","","html-keyboard-response","180","455909","0.0-1.0-220.0","0","0","65015","","null","","","null","24","","NaN","","","","","","","","","","","","","",""
"","response","","html-keyboard-response","181","456536","0.0-1.0-221.0-0.0","0","0","65015","","624","","","75","24","","","1","24","training","adjacent","CB","3","2","M.jpg","O.jpg","1","0","0","",""
"","feedback","","html-keyboard-response","182","457550","0.0-1.0-222.0-0.0","0","0","65015","","null","","","null","24","","","","","","","","","","","","","","","",""
"","time_out","","html-keyboard-response","183","459555","0.0-1.0-224.0-0.0","0","0","65015","","null","","","null","24","","","","","","","","","","","","","","","",""
"","ITI","","html-keyboard-response","184","460563","0.0-1.0-225.0","0","0","65015","","null","","","null","24","","","","","","","","","","","","","","","NaN",""
"","S1","","html-keyboard-response","185","460819","0.0-1.0-227.0","0","0","65015","","null","","","null","25","","","","","","","","","","","","","","","",""
"","ISI","","html-keyboard-response","186","461822","0.0-1.0-228.0","0","0","65015","","null","","","null","25","NaN","","","","","","","","","","","","","","",""
"","S2","","html-keyboard-response","187","462083","0.0-1.0-229.0","0","0","65015","","null","","","null","25","","NaN","","","","","","","","","","","","","",""
"","response","","html-keyboard-response","188","463694","0.0-1.0-230.0-0.0","0","0","65015","","1609","","","68","25","","","1","25","training","adjacent","CB","3","2","M.jpg","O.jpg","0","0","1","",""
"","feedback","","html-keyboard-response","189","464702","0.0-1.0-231.0-0.0","0","0","65015","","null","","","null","25","","","","","","","","","","","","","","","",""
"","ITI","","html-keyboard-response","190","465710","0.0-1.0-234.0","0","0","65015","","null","","","null","25","","","","","","","","","","","","","","","NaN",""
"","S1","","html-keyboard-response","191","465971","0.0-1.0-236.0","0","0","65015","","null","","","null","26","","","","","","","","","","","","","","","",""
"","ISI","","html-keyboard-response","192","466979","0.0-1.0-237.0","0","0","65015","","null","","","null","26","NaN","","","","","","","","","","","","","","",""
"","S2","","html-keyboard-response","193","467235","0.0-1.0-238.0","0","0","65015","","null","","","null","26","","NaN","","","","","","","","","","","","","",""
"","response","","html-keyboard-response","194","468538","0.0-1.0-239.0-0.0","0","0","65015","","1301","","","68","26","","","1","26","training","adjacent","DC","4","3","N.jpg","M.jpg","0","0","1","",""
"","feedback","","html-keyboard-response","195","469549","0.0-1.0-240.0-0.0","0","0","65015","","null","","","null","26","","","","","","","","","","","","","","","",""
"","ITI","","html-keyboard-response","196","470558","0.0-1.0-243.0","0","0","65015","","null","","","null","26","","","","","","","","","","","","","","","NaN",""
"","S1","","html-keyboard-response","197","470819","0.0-1.0-245.0","0","0","65015","","null","","","null","27","","","","","","","","","","","","","","","",""
"","ISI","","html-keyboard-response","198","471827","0.0-1.0-246.0","0","0","65015","","null","","","null","27","NaN","","","","","","","","","","","","","","",""
"","S2","","html-keyboard-response","199","472083","0.0-1.0-247.0","0","0","65015","","null","","","null","27","","NaN","","","","","","","","","","","","","",""
"","response","","html-keyboard-response","200","473009","0.0-1.0-248.0-0.0","0","0","65015","","923","","","68","27","","","1","27","training","adjacent","GF","7","6","R.jpg","Q.jpg","0","0","1","",""
"","feedback","","html-keyboard-response","201","474019","0.0-1.0-249.0-0.0","0","0","65015","","null","","","null","27","","","","","","","","","","","","","","","",""
"","ITI","","html-keyboard-response","202","475026","0.0-1.0-252.0","0","0","65015","","null","","","null","27","","","","","","","","","","","","","","","NaN",""
"","S1","","html-keyboard-response","203","475283","0.0-1.0-254.0","0","0","65015","","null","","","null","28","","","","","","","","","","","","","","","",""
"","ISI","","html-keyboard-response","204","476291","0.0-1.0-255.0","0","0","65015","","null","","","null","28","NaN","","","","","","","","","","","","","","",""
"","S2","","html-keyboard-response","205","476547","0.0-1.0-256.0","0","0","65015","","null","","","null","28","","NaN","","","","","","","","","","","","","",""
"","response","","html-keyboard-response","206","477892","0.0-1.0-257.0-0.0","0","0","65015","","1343","","","75","28","","","1","28","training","adjacent","AB","1","2","L.jpg","O.jpg","1","1","1","",""
"","feedback","","html-keyboard-response","207","478899","0.0-1.0-258.0-0.0","0","0","65015","","null","","","null","28","","","","","","","","","","","","","","","",""
"","ITI","","html-keyboard-response","208","479907","0.0-1.0-261.0","0","0","65015","","null","","","null","28","","","","","","","","","","","","","","","NaN",""
"","S1","","html-keyboard-response","209","480162","0.0-1.0-263.0","0","0","65015","","null","","","null","29","","","","","","","","","","","","","","","",""
"","ISI","","html-keyboard-response","210","481171","0.0-1.0-264.0","0","0","65015","","null","","","null","29","NaN","","","","","","","","","","","","","","",""
"","S2","","html-keyboard-response","211","481427","0.0-1.0-265.0","0","0","65015","","null","","","null","29","","NaN","","","","","","","","","","","","","",""
"","response","","html-keyboard-response","212","483088","0.0-1.0-266.0-0.0","0","0","65015","","1659","","","75","29","","","1","29","training","adjacent","FE","6","5","Q.jpg","P.jpg","1","0","0","",""
"","feedback","","html-keyboard-response","213","484099","0.0-1.0-267.0-0.0","0","0","65015","","null","","","null","29","","","","","","","","","","","","","","","",""
"","time_out","","html-keyboard-response","214","486110","0.0-1.0-269.0-0.0","0","0","65015","","null","","","null","29","","","","","","","","","","","","","","","",""
"","ITI","","html-keyboard-response","215","487117","0.0-1.0-270.0","0","0","65015","","null","","","null","29","","","","","","","","","","","","","","","NaN",""
"","S1","","html-keyboard-response","216","487379","0.0-1.0-272.0","0","0","65015","","null","","","null","30","","","","","","","","","","","","","","","",""
"","ISI","","html-keyboard-response","217","488387","0.0-1.0-273.0","0","0","65015","","null","","","null","30","NaN","","","","","","","","","","","","","","",""
"","S2","","html-keyboard-response","218","488643","0.0-1.0-274.0","0","0","65015","","null","","","null","30","","NaN","","","","","","","","","","","","","",""
"","response","","html-keyboard-response","219","489441","0.0-1.0-275.0-0.0","0","0","65015","","795","","","68","30","","","1","30","training","adjacent","BA","2","1","O.jpg","L.jpg","0","0","1","",""
"","feedback","","html-keyboard-response","220","490450","0.0-1.0-276.0-0.0","0","0","65015","","null","","","null","30","","","","","","","","","","","","","","","",""
"","ITI","","html-keyboard-response","221","491459","0.0-1.0-279.0","0","0","65015","","null","","","null","30","","","","","","","","","","","","","","","NaN",""
"","S1","","html-keyboard-response","222","491715","0.0-1.0-281.0","0","0","65015","","null","","","null","31","","","","","","","","","","","","","","","",""
"","ISI","","html-keyboard-response","223","492723","0.0-1.0-282.0","0","0","65015","","null","","","null","31","NaN","","","","","","","","","","","","","","",""
"","S2","","html-keyboard-response","224","492979","0.0-1.0-283.0","0","0","65015","","null","","","null","31","","NaN","","","","","","","","","","","","","",""
"","response","","html-keyboard-response","225","494510","0.0-1.0-284.0-0.0","0","0","65015","","1529","","","75","31","","","1","31","training","adjacent","CD","3","4","M.jpg","N.jpg","1","1","1","",""
"","feedback","","html-keyboard-response","226","495517","0.0-1.0-285.0-0.0","0","0","65015","","null","","","null","31","","","","","","","","","","","","","","","",""
"","ITI","","html-keyboard-response","227","496525","0.0-1.0-288.0","0","0","65015","","null","","","null","31","","","","","","","","","","","","","","","NaN",""
"","S1","","html-keyboard-response","228","496786","0.0-1.0-290.0","0","0","65015","","null","","","null","32","","","","","","","","","","","","","","","",""
"","ISI","","html-keyboard-response","229","497795","0.0-1.0-291.0","0","0","65015","","null","","","null","32","NaN","","","","","","","","","","","","","","",""
"","S2","","html-keyboard-response","230","498051","0.0-1.0-292.0","0","0","65015","","null","","","null","32","","NaN","","","","","","","","","","","","","",""
"","response","","html-keyboard-response","231","498900","0.0-1.0-293.0-0.0","0","0","65015","","847","","","75","32","","","1","32","training","adjacent","CD","3","4","M.jpg","N.jpg","1","1","1","",""
"","feedback","","html-keyboard-response","232","499907","0.0-1.0-294.0-0.0","0","0","65015","","null","","","null","32","","","","","","","","","","","","","","","",""
"","ITI","","html-keyboard-response","233","500914","0.0-1.0-297.0","0","0","65015","","null","","","null","32","","","","","","","","","","","","","","","NaN",""
"","S1","","html-keyboard-response","234","501171","0.0-1.0-299.0","0","0","65015","","null","","","null","33","","","","","","","","","","","","","","","",""
"","ISI","","html-keyboard-response","235","502179","0.0-1.0-300.0","0","0","65015","","null","","","null","33","NaN","","","","","","","","","","","","","","",""
"","S2","","html-keyboard-response","236","502435","0.0-1.0-301.0","0","0","65015","","null","","","null","33","","NaN","","","","","","","","","","","","","",""
"","response","","html-keyboard-response","237","504195","0.0-1.0-302.0-0.0","0","0","65015","","null","","","null","33","","","1","33","training","adjacent","EF","5","6","P.jpg","Q.jpg","NaN","1","0","",""
"","too_slow_prompt","","html-keyboard-response","238","505203","0.0-1.0-304.0-0.0","1","0","65015","","null","","","null","","","","","","","","","","","","","","","","",""
"","time_out","","html-keyboard-response","239","507214","0.0-1.0-305.0-0.0","0","0","65015","","null","","","null","33","","","","","","","","","","","","","","","",""
"","ITI","","html-keyboard-response","240","508221","0.0-1.0-306.0","0","0","65015","","null","","","null","33","","","","","","","","","","","","","","","NaN",""
"","S1","","html-keyboard-response","241","508483","0.0-1.0-308.0","0","0","65015","","null","","","null","34","","","","","","","","","","","","","","","",""
"","ISI","","html-keyboard-response","242","509490","0.0-1.0-309.0","0","0","65015","","null","","","null","34","NaN","","","","","","","","","","","","","","",""
"","S2","","html-keyboard-response","243","509747","0.0-1.0-310.0","0","0","65015","","null","","","null","34","","NaN","","","","","","","","","","","","","",""
"","response","","html-keyboard-response","244","510199","0.0-1.0-311.0-0.0","0","0","65015","","449","","","75","34","","","1","34","training","adjacent","FE","6","5","Q.jpg","P.jpg","1","0","0","",""
"","feedback","","html-keyboard-response","245","511214","0.0-1.0-312.0-0.0","0","0","65015","","null","","","null","34","","","","","","","","","","","","","","","",""
"","time_out","","html-keyboard-response","246","513219","0.0-1.0-314.0-0.0","0","0","65015","","null","","","null","34","","","","","","","","","","","","","","","",""
"","ITI","","html-keyboard-response","247","514227","0.0-1.0-315.0","0","0","65015","","null","","","null","34","","","","","","","","","","","","","","","NaN",""
"","S1","","html-keyboard-response","248","514483","0.0-1.0-317.0","0","0","65015","","null","","","null","35","","","","","","","","","","","","","","","",""
"","ISI","","html-keyboard-response","249","515491","0.0-1.0-318.0","0","0","65015","","null","","","null","35","NaN","","","","","","","","","","","","","","",""
"","S2","","html-keyboard-response","250","515747","0.0-1.0-319.0","0","0","65015","","null","","","null","35","","NaN","","","","","","","","","","","","","",""
"","response","","html-keyboard-response","251","516253","0.0-1.0-320.0-0.0","0","0","65015","","504","","","68","35","","","1","35","training","adjacent","AB","1","2","L.jpg","O.jpg","0","1","0","",""
"","feedback","","html-keyboard-response","252","517259","0.0-1.0-321.0-0.0","0","0","65015","","null","","","null","35","","","","","","","","","","","","","","","",""
"","time_out","","html-keyboard-response","253","519267","0.0-1.0-323.0-0.0","0","0","65015","","null","","","null","35","","","","","","","","","","","","","","","",""
"","ITI","","html-keyboard-response","254","520275","0.0-1.0-324.0","0","0","65015","","null","","","null","35","","","","","","","","","","","","","","","NaN",""
"","S1","","html-keyboard-response","255","520531","0.0-1.0-326.0","0","0","65015","","null","","","null","36","","","","","","","","","","","","","","","",""
"","ISI","","html-keyboard-response","256","521539","0.0-1.0-327.0","0","0","65015","","null","","","null","36","NaN","","","","","","","","","","","","","","",""
"","S2","","html-keyboard-response","257","521795","0.0-1.0-328.0","0","0","65015","","null","","","null","36","","NaN","","","","","","","","","","","","","",""
"","response","","html-keyboard-response","258","522306","0.0-1.0-329.0-0.0","0","0","65015","","509","","","75","36","","","1","36","training","adjacent","ED","5","4","P.jpg","N.jpg","1","0","0","",""
"","feedback","","html-keyboard-response","259","523314","0.0-1.0-330.0-0.0","0","0","65015","","null","","","null","36","","","","","","","","","","","","","","","",""
"","time_out","","html-keyboard-response","260","525321","0.0-1.0-332.0-0.0","0","0","65015","","null","","","null","36","","","","","","","","","","","","","","","",""
"","ITI","","html-keyboard-response","261","526333","0.0-1.0-333.0","0","0","65015","","null","","","null","36","","","","","","","","","","","","","","","NaN",""
"","S1","","html-keyboard-response","262","526594","0.0-1.0-335.0","0","0","65015","","null","","","null","37","","","","","","","","","","","","","","","",""
"","ISI","","html-keyboard-response","263","527601","0.0-1.0-336.0","0","0","65015","","null","","","null","37","NaN","","","","","","","","","","","","","","",""
"","S2","","html-keyboard-response","264","527857","0.0-1.0-337.0","0","0","65015","","null","","","null","37","","NaN","","","","","","","","","","","","","",""
"","response","","html-keyboard-response","265","528657","0.0-1.0-338.0-0.0","0","0","65015","","798","","","75","37","","","1","37","training","adjacent","EF","5","6","P.jpg","Q.jpg","1","1","1","",""
"","feedback","","html-keyboard-response","266","529665","0.0-1.0-339.0-0.0","0","0","65015","","null","","","null","37","","","","","","","","","","","","","","","",""
"","ITI","","html-keyboard-response","267","530673","0.0-1.0-342.0","0","0","65015","","null","","","null","37","","","","","","","","","","","","","","","NaN",""
"","S1","","html-keyboard-response","268","530929","0.0-1.0-344.0","0","0","65015","","null","","","null","38","","","","","","","","","","","","","","","",""
"","ISI","","html-keyboard-response","269","531937","0.0-1.0-345.0","0","0","65015","","null","","","null","38","NaN","","","","","","","","","","","","","","",""
"","S2","","html-keyboard-response","270","532193","0.0-1.0-346.0","0","0","65015","","null","","","null","38","","NaN","","","","","","","","","","","","","",""
"","response","","html-keyboard-response","271","532947","0.0-1.0-347.0-0.0","0","0","65015","","753","","","75","38","","","1","38","training","adjacent","FG","6","7","Q.jpg","R.jpg","1","1","1","",""
"","feedback","","html-keyboard-response","272","533953","0.0-1.0-348.0-0.0","0","0","65015","","null","","","null","38","","","","","","","","","","","","","","","",""
"","ITI","","html-keyboard-response","273","534961","0.0-1.0-351.0","0","0","65015","","null","","","null","38","","","","","","","","","","","","","","","NaN",""
"","S1","","html-keyboard-response","274","535217","0.0-1.0-353.0","0","0","65015","","null","","","null","39","","","","","","","","","","","","","","","",""
"","ISI","","html-keyboard-response","275","536225","0.0-1.0-354.0","0","0","65015","","null","","","null","39","NaN","","","","","","","","","","","","","","",""
"","S2","","html-keyboard-response","276","536481","0.0-1.0-355.0","0","0","65015","","null","","","null","39","","NaN","","","","","","","","","","","","","",""
"","response","","html-keyboard-response","277","536988","0.0-1.0-356.0-0.0","0","0","65015","","506","","","75","39","","","1","39","training","adjacent","CB","3","2","M.jpg","O.jpg","1","0","0","",""
"","feedback","","html-keyboard-response","278","537996","0.0-1.0-357.0-0.0","0","0","65015","","null","","","null","39","","","","","","","","","","","","","","","",""
"","time_out","","html-keyboard-response","279","540001","0.0-1.0-359.0-0.0","0","0","65015","","null","","","null","39","","","","","","","","","","","","","","","",""
"","ITI","","html-keyboard-response","280","541009","0.0-1.0-360.0","0","0","65015","","null","","","null","39","","","","","","","","","","","","","","","NaN",""
"","S1","","html-keyboard-response","281","541265","0.0-1.0-362.0","0","0","65015","","null","","","null","40","","","","","","","","","","","","","","","",""
"","ISI","","html-keyboard-response","282","542274","0.0-1.0-363.0","0","0","65015","","null","","","null","40","NaN","","","","","","","","","","","","","","",""
"","S2","","html-keyboard-response","283","542529","0.0-1.0-364.0","0","0","65015","","null","","","null","40","","NaN","","","","","","","","","","","","","",""
"","response","","html-keyboard-response","284","543069","0.0-1.0-365.0-0.0","0","0","65015","","539","","","75","40","","","1","40","training","adjacent","CD","3","4","M.jpg","N.jpg","1","1","1","",""
"","feedback","","html-keyboard-response","285","544078","0.0-1.0-366.0-0.0","0","0","65015","","null","","","null","40","","","","","","","","","","","","","","","",""
"","ITI","","html-keyboard-response","286","545085","0.0-1.0-369.0","0","0","65015","","null","","","null","40","","","","","","","","","","","","","","","NaN",""
"","S1","","html-keyboard-response","287","545347","0.0-1.0-371.0","0","0","65015","","null","","","null","41","","","","","","","","","","","","","","","",""
"","ISI","","html-keyboard-response","288","546355","0.0-1.0-372.0","0","0","65015","","null","","","null","41","NaN","","","","","","","","","","","","","","",""
"","S2","","html-keyboard-response","289","546611","0.0-1.0-373.0","0","0","65015","","null","","","null","41","","NaN","","","","","","","","","","","","","",""
"","response","","html-keyboard-response","290","547019","0.0-1.0-374.0-0.0","0","0","65015","","405","","","68","41","","","1","41","training","adjacent","GF","7","6","R.jpg","Q.jpg","0","0","1","",""
"","feedback","","html-keyboard-response","291","548030","0.0-1.0-375.0-0.0","0","0","65015","","null","","","null","41","","","","","","","","","","","","","","","",""
"","ITI","","html-keyboard-response","292","549037","0.0-1.0-378.0","0","0","65015","","null","","","null","41","","","","","","","","","","","","","","","NaN",""
"","S1","","html-keyboard-response","293","549299","0.0-1.0-380.0","0","0","65015","","null","","","null","42","","","","","","","","","","","","","","","",""
"","ISI","","html-keyboard-response","294","550307","0.0-1.0-381.0","0","0","65015","","null","","","null","42","NaN","","","","","","","","","","","","","","",""
"","S2","","html-keyboard-response","295","550563","0.0-1.0-382.0","0","0","65015","","null","","","null","42","","NaN","","","","","","","","","","","","","",""
"","response","","html-keyboard-response","296","551868","0.0-1.0-383.0-0.0","0","0","65015","","1303","","","68","42","","","1","42","training","adjacent","AB","1","2","L.jpg","O.jpg","0","1","0","",""
"","feedback","","html-keyboard-response","297","552878","0.0-1.0-384.0-0.0","0","0","65015","","null","","","null","42","","","","","","","","","","","","","","","",""
"","time_out","","html-keyboard-response","298","554883","0.0-1.0-386.0-0.0","0","0","65015","","null","","","null","42","","","","","","","","","","","","","","","",""
"","ITI","","html-keyboard-response","299","555889","0.0-1.0-387.0","0","0","65015","","null","","","null","42","","","","","","","","","","","","","","","NaN",""
"","S1","","html-keyboard-response","300","556147","0.0-1.0-389.0","0","0","65015","","null","","","null","43","","","","","","","","","","","","","","","",""
"","ISI","","html-keyboard-response","301","557155","0.0-1.0-390.0","0","0","65015","","null","","","null","43","NaN","","","","","","","","","","","","","","",""
"","S2","","html-keyboard-response","302","557411","0.0-1.0-391.0","0","0","65015","","null","","","null","43","","NaN","","","","","","","","","","","","","",""
"","response","","html-keyboard-response","303","558502","0.0-1.0-392.0-0.0","0","0","65015","","1088","","","75","43","","","1","43","training","adjacent","DE","4","5","N.jpg","P.jpg","1","1","1","",""
"","feedback","","html-keyboard-response","304","559507","0.0-1.0-393.0-0.0","0","0","65015","","null","","","null","43","","","","","","","","","","","","","","","",""
"","ITI","","html-keyboard-response","305","560514","0.0-1.0-396.0","0","0","65015","","null","","","null","43","","","","","","","","","","","","","","","NaN",""
"","S1","","html-keyboard-response","306","560771","0.0-1.0-398.0","0","0","65015","","null","","","null","44","","","","","","","","","","","","","","","",""
"","ISI","","html-keyboard-response","307","561779","0.0-1.0-399.0","0","0","65015","","null","","","null","44","NaN","","","","","","","","","","","","","","",""
"","S2","","html-keyboard-response","308","562035","0.0-1.0-400.0","0","0","65015","","null","","","null","44","","NaN","","","","","","","","","","","","","",""
"","response","","html-keyboard-response","309","562585","0.0-1.0-401.0-0.0","0","0","65015","","548","","","68","44","","","1","44","training","adjacent","GF","7","6","R.jpg","Q.jpg","0","0","1","",""
"","feedback","","html-keyboard-response","310","563598","0.0-1.0-402.0-0.0","0","0","65015","","null","","","null","44","","","","","","","","","","","","","","","",""
"","ITI","","html-keyboard-response","311","564605","0.0-1.0-405.0","0","0","65015","","null","","","null","44","","","","","","","","","","","","","","","NaN",""
"","S1","","html-keyboard-response","312","564867","0.0-1.0-407.0","0","0","65015","","null","","","null","45","","","","","","","","","","","","","","","",""
"","ISI","","html-keyboard-response","313","565875","0.0-1.0-408.0","0","0","65015","","null","","","null","45","NaN","","","","","","","","","","","","","","",""
"","S2","","html-keyboard-response","314","566130","0.0-1.0-409.0","0","0","65015","","null","","","null","45","","NaN","","","","","","","","","","","","","",""
"","response","","html-keyboard-response","315","566878","0.0-1.0-410.0-0.0","0","0","65015","","745","","","75","45","","","1","45","training","adjacent","EF","5","6","P.jpg","Q.jpg","1","1","1","",""
"","feedback","","html-keyboard-response","316","567885","0.0-1.0-411.0-0.0","0","0","65015","","null","","","null","45","","","","","","","","","","","","","","","",""
"","ITI","","html-keyboard-response","317","568894","0.0-1.0-414.0","0","0","65015","","null","","","null","45","","","","","","","","","","","","","","","NaN",""
"","S1","","html-keyboard-response","318","569155","0.0-1.0-416.0","0","0","65015","","null","","","null","46","","","","","","","","","","","","","","","",""
"","ISI","","html-keyboard-response","319","570163","0.0-1.0-417.0","0","0","65015","","null","","","null","46","NaN","","","","","","","","","","","","","","",""
"","S2","","html-keyboard-response","320","570419","0.0-1.0-418.0","0","0","65015","","null","","","null","46","","NaN","","","","","","","","","","","","","",""
"","response","","html-keyboard-response","321","571435","0.0-1.0-419.0-0.0","0","0","65015","","1014","","","68","46","","","1","46","training","adjacent","CB","3","2","M.jpg","O.jpg","0","0","1","",""
"","feedback","","html-keyboard-response","322","572445","0.0-1.0-420.0-0.0","0","0","65015","","null","","","null","46","","","","","","","","","","","","","","","",""
"","ITI","","html-keyboard-response","323","573454","0.0-1.0-423.0","0","0","65015","","null","","","null","46","","","","","","","","","","","","","","","NaN",""
"","S1","","html-keyboard-response","324","573714","0.0-1.0-425.0","0","0","65015","","null","","","null","47","","","","","","","","","","","","","","","",""
"","ISI","","html-keyboard-response","325","574723","0.0-1.0-426.0","0","0","65015","","null","","","null","47","NaN","","","","","","","","","","","","","","",""
"","S2","","html-keyboard-response","326","574979","0.0-1.0-427.0","0","0","65015","","null","","","null","47","","NaN","","","","","","","","","","","","","",""
"","response","","html-keyboard-response","327","575881","0.0-1.0-428.0-0.0","0","0","65015","","900","","","75","47","","","1","47","training","adjacent","DE","4","5","N.jpg","P.jpg","1","1","1","",""
"","feedback","","html-keyboard-response","328","576893","0.0-1.0-429.0-0.0","0","0","65015","","null","","","null","47","","","","","","","","","","","","","","","",""
"","ITI","","html-keyboard-response","329","577902","0.0-1.0-432.0","0","0","65015","","null","","","null","47","","","","","","","","","","","","","","","NaN",""
"","block_over","","html-keyboard-response","330","585126","0.0-1.0-433.0-0.0","0","0","65015","","7221","","","32","47","","","","","","","","","","","","","","","",""
"","S1","","html-keyboard-response","331","585390","0.0-1.0-434.0","0","0","65015","","null","","","null","48","","","","","","","","","","","","","","","",""
"","ISI","","html-keyboard-response","332","586398","0.0-1.0-435.0","0","0","65015","","null","","","null","48","NaN","","","","","","","","","","","","","","",""
"","S2","","html-keyboard-response","333","586659","0.0-1.0-436.0","0","0","65015","","null","","","null","48","","NaN","","","","","","","","","","","","","",""
"","response","","html-keyboard-response","334","587479","0.0-1.0-437.0-0.0","0","0","65015","","818","","","75","48","","","2","48","training","adjacent","DC","4","3","N.jpg","M.jpg","1","0","0","",""
"","feedback","","html-keyboard-response","335","588493","0.0-1.0-438.0-0.0","0","0","65015","","null","","","null","48","","","","","","","","","","","","","","","",""
"","time_out","","html-keyboard-response","336","590499","0.0-1.0-440.0-0.0","0","0","65015","","null","","","null","48","","","","","","","","","","","","","","","",""
"","ITI","","html-keyboard-response","337","591507","0.0-1.0-441.0","0","0","65015","","null","","","null","48","","","","","","","","","","","","","","","NaN",""
"","S1","","html-keyboard-response","338","591763","0.0-1.0-443.0","0","0","65015","","null","","","null","49","","","","","","","","","","","","","","","",""
"","ISI","","html-keyboard-response","339","592771","0.0-1.0-444.0","0","0","65015","","null","","","null","49","NaN","","","","","","","","","","","","","","",""
"","S2","","html-keyboard-response","340","593027","0.0-1.0-445.0","0","0","65015","","null","","","null","49","","NaN","","","","","","","","","","","","","",""
"","response","","html-keyboard-response","341","593617","0.0-1.0-446.0-0.0","0","0","65015","","587","","","75","49","","","2","49","training","adjacent","CD","3","4","M.jpg","N.jpg","1","1","1","",""
"","feedback","","html-keyboard-response","342","594627","0.0-1.0-447.0-0.0","0","0","65015","","null","","","null","49","","","","","","","","","","","","","","","",""
"","ITI","","html-keyboard-response","343","595634","0.0-1.0-450.0","0","0","65015","","null","","","null","49","","","","","","","","","","","","","","","NaN",""
"","S1","","html-keyboard-response","344","595891","0.0-1.0-452.0","0","0","65015","","null","","","null","50","","","","","","","","","","","","","","","",""
"","ISI","","html-keyboard-response","345","596899","0.0-1.0-453.0","0","0","65015","","null","","","null","50","NaN","","","","","","","","","","","","","","",""
"","S2","","html-keyboard-response","346","597155","0.0-1.0-454.0","0","0","65015","","null","","","null","50","","NaN","","","","","","","","","","","","","",""
"","response","","html-keyboard-response","347","597929","0.0-1.0-455.0-0.0","0","0","65015","","771","","","68","50","","","2","50","training","adjacent","AB","1","2","L.jpg","O.jpg","0","1","0","",""
"","feedback","","html-keyboard-response","348","598942","0.0-1.0-456.0-0.0","0","0","65015","","null","","","null","50","","","","","","","","","","","","","","","",""
"","time_out","","html-keyboard-response","349","600947","0.0-1.0-458.0-0.0","0","0","65015","","null","","","null","50","","","","","","","","","","","","","","","",""
"","ITI","","html-keyboard-response","350","601954","0.0-1.0-459.0","0","0","65015","","null","","","null","50","","","","","","","","","","","","","","","NaN",""
"","S1","","html-keyboard-response","351","602211","0.0-1.0-461.0","0","0","65015","","null","","","null","51","","","","","","","","","","","","","","","",""
"","ISI","","html-keyboard-response","352","603219","0.0-1.0-462.0","0","0","65015","","null","","","null","51","NaN","","","","","","","","","","","","","","",""
"","S2","","html-keyboard-response","353","603474","0.0-1.0-463.0","0","0","65015","","null","","","null","51","","NaN","","","","","","","","","","","","","",""
"","response","","html-keyboard-response","354","604603","0.0-1.0-464.0-0.0","0","0","65015","","1126","","","68","51","","","2","51","training","adjacent","BA","2","1","O.jpg","L.jpg","0","0","1","",""
"","feedback","","html-keyboard-response","355","605614","0.0-1.0-465.0-0.0","0","0","65015","","null","","","null","51","","","","","","","","","","","","","","","",""
"","ITI","","html-keyboard-response","356","606621","0.0-1.0-468.0","0","0","65015","","null","","","null","51","","","","","","","","","","","","","","","NaN",""
"","S1","","html-keyboard-response","357","606883","0.0-1.0-470.0","0","0","65015","","null","","","null","52","","","","","","","","","","","","","","","",""
"","ISI","","html-keyboard-response","358","607891","0.0-1.0-471.0","0","0","65015","","null","","","null","52","NaN","","","","","","","","","","","","","","",""
"","S2","","html-keyboard-response","359","608147","0.0-1.0-472.0","0","0","65015","","null","","","null","52","","NaN","","","","","","","","","","","","","",""
"","response","","html-keyboard-response","360","608710","0.0-1.0-473.0-0.0","0","0","65015","","560","","","75","52","","","2","52","training","adjacent","AB","1","2","L.jpg","O.jpg","1","1","1","",""
"","feedback","","html-keyboard-response","361","609714","0.0-1.0-474.0-0.0","0","0","65015","","null","","","null","52","","","","","","","","","","","","","","","",""
"","ITI","","html-keyboard-response","362","610723","0.0-1.0-477.0","0","0","65015","","null","","","null","52","","","","","","","","","","","","","","","NaN",""
"","S1","","html-keyboard-response","363","610979","0.0-1.0-479.0","0","0","65015","","null","","","null","53","","","","","","","","","","","","","","","",""
"","ISI","","html-keyboard-response","364","611987","0.0-1.0-480.0","0","0","65015","","null","","","null","53","NaN","","","","","","","","","","","","","","",""
"","S2","","html-keyboard-response","365","612243","0.0-1.0-481.0","0","0","65015","","null","","","null","53","","NaN","","","","","","","","","","","","","",""
"","response","","html-keyboard-response","366","612837","0.0-1.0-482.0-0.0","0","0","65015","","591","","","75","53","","","2","53","training","adjacent","AB","1","2","L.jpg","O.jpg","1","1","1","",""
"","feedback","","html-keyboard-response","367","613843","0.0-1.0-483.0-0.0","0","0","65015","","null","","","null","53","","","","","","","","","","","","","","","",""
"","ITI","","html-keyboard-response","368","614850","0.0-1.0-486.0","0","0","65015","","null","","","null","53","","","","","","","","","","","","","","","NaN",""
"","S1","","html-keyboard-response","369","615107","0.0-1.0-488.0","0","0","65015","","null","","","null","54","","","","","","","","","","","","","","","",""
"","ISI","","html-keyboard-response","370","616115","0.0-1.0-489.0","0","0","65015","","null","","","null","54","NaN","","","","","","","","","","","","","","",""
"","S2","","html-keyboard-response","371","616371","0.0-1.0-490.0","0","0","65015","","null","","","null","54","","NaN","","","","","","","","","","","","","",""
"","response","","html-keyboard-response","372","617102","0.0-1.0-491.0-0.0","0","0","65015","","728","","","68","54","","","2","54","training","adjacent","DE","4","5","N.jpg","P.jpg","0","1","0","",""
"","feedback","","html-keyboard-response","373","618109","0.0-1.0-492.0-0.0","0","0","65015","","null","","","null","54","","","","","","","","","","","","","","","",""
"","time_out","","html-keyboard-response","374","620115","0.0-1.0-494.0-0.0","0","0","65015","","null","","","null","54","","","","","","","","","","","","","","","",""
"","ITI","","html-keyboard-response","375","621122","0.0-1.0-495.0","0","0","65015","","null","","","null","54","","","","","","","","","","","","","","","NaN",""
"","S1","","html-keyboard-response","376","621379","0.0-1.0-497.0","0","0","65015","","null","","","null","55","","","","","","","","","","","","","","","",""
"","ISI","","html-keyboard-response","377","622389","0.0-1.0-498.0","0","0","65015","","null","","","null","55","NaN","","","","","","","","","","","","","","",""
"","S2","","html-keyboard-response","378","622653","0.0-1.0-499.0","0","0","65015","","null","","","null","55","","NaN","","","","","","","","","","","","","",""
"","response","","html-keyboard-response","379","624022","0.0-1.0-500.0-0.0","0","0","65015","","1367","","","75","55","","","2","55","training","adjacent","FG","6","7","Q.jpg","R.jpg","1","1","1","",""
"","feedback","","html-keyboard-response","380","625037","0.0-1.0-501.0-0.0","0","0","65015","","null","","","null","55","","","","","","","","","","","","","","","",""
"","ITI","","html-keyboard-response","381","626045","0.0-1.0-504.0","0","0","65015","","null","","","null","55","","","","","","","","","","","","","","","NaN",""
"","S1","","html-keyboard-response","382","626307","0.0-1.0-506.0","0","0","65015","","null","","","null","56","","","","","","","","","","","","","","","",""
"","ISI","","html-keyboard-response","383","627315","0.0-1.0-507.0","0","0","65015","","null","","","null","56","NaN","","","","","","","","","","","","","","",""
"","S2","","html-keyboard-response","384","627571","0.0-1.0-508.0","0","0","65015","","null","","","null","56","","NaN","","","","","","","","","","","","","",""
"","response","","html-keyboard-response","385","628829","0.0-1.0-509.0-0.0","0","0","65015","","1256","","","75","56","","","2","56","training","adjacent","CB","3","2","M.jpg","O.jpg","1","0","0","",""
"","feedback","","html-keyboard-response","386","629837","0.0-1.0-510.0-0.0","0","0","65015","","null","","","null","56","","","","","","","","","","","","","","","",""
"","time_out","","html-keyboard-response","387","631843","0.0-1.0-512.0-0.0","0","0","65015","","null","","","null","56","","","","","","","","","","","","","","","",""
"","ITI","","html-keyboard-response","388","632850","0.0-1.0-513.0","0","0","65015","","null","","","null","56","","","","","","","","","","","","","","","NaN",""
"","S1","","html-keyboard-response","389","633107","0.0-1.0-515.0","0","0","65015","","null","","","null","57","","","","","","","","","","","","","","","",""
"","ISI","","html-keyboard-response","390","634115","0.0-1.0-516.0","0","0","65015","","null","","","null","57","NaN","","","","","","","","","","","","","","",""
"","S2","","html-keyboard-response","391","634370","0.0-1.0-517.0","0","0","65015","","null","","","null","57","","NaN","","","","","","","","","","","","","",""
"","response","","html-keyboard-response","392","634929","0.0-1.0-518.0-0.0","0","0","65015","","557","","","68","57","","","2","57","training","adjacent","CB","3","2","M.jpg","O.jpg","0","0","1","",""
"","feedback","","html-keyboard-response","393","635939","0.0-1.0-519.0-0.0","0","0","65015","","null","","","null","57","","","","","","","","","","","","","","","",""
"","ITI","","html-keyboard-response","394","636946","0.0-1.0-522.0","0","0","65015","","null","","","null","57","","","","","","","","","","","","","","","NaN",""
"","S1","","html-keyboard-response","395","637203","0.0-1.0-524.0","0","0","65015","","null","","","null","58","","","","","","","","","","","","","","","",""
"","ISI","","html-keyboard-response","396","638211","0.0-1.0-525.0","0","0","65015","","null","","","null","58","NaN","","","","","","","","","","","","","","",""
"","S2","","html-keyboard-response","397","638467","0.0-1.0-526.0","0","0","65015","","null","","","null","58","","NaN","","","","","","","","","","","","","",""
"","response","","html-keyboard-response","398","639802","0.0-1.0-527.0-0.0","0","0","65015","","1333","","","75","58","","","2","58","training","adjacent","FE","6","5","Q.jpg","P.jpg","1","0","0","",""
"","feedback","","html-keyboard-response","399","640813","0.0-1.0-528.0-0.0","0","0","65015","","null","","","null","58","","","","","","","","","","","","","","","",""
"","time_out","","html-keyboard-response","400","642819","0.0-1.0-530.0-0.0","0","0","65015","","null","","","null","58","","","","","","","","","","","","","","","",""
"","ITI","","html-keyboard-response","401","643826","0.0-1.0-531.0","0","0","65015","","null","","","null","58","","","","","","","","","","","","","","","NaN",""
"","S1","","html-keyboard-response","402","644083","0.0-1.0-533.0","0","0","65015","","null","","","null","59","","","","","","","","","","","","","","","",""
"","ISI","","html-keyboard-response","403","645091","0.0-1.0-534.0","0","0","65015","","null","","","null","59","NaN","","","","","","","","","","","","","","",""
"","S2","","html-keyboard-response","404","645345","0.0-1.0-535.0","0","0","65015","","null","","","null","59","","NaN","","","","","","","","","","","","","",""
"","response","","html-keyboard-response","405","645827","0.0-1.0-536.0-0.0","0","0","65015","","480","","","68","59","","","2","59","training","adjacent","FE","6","5","Q.jpg","P.jpg","0","0","1","",""
"","feedback","","html-keyboard-response","406","646835","0.0-1.0-537.0-0.0","0","0","65015","","null","","","null","59","","","","","","","","","","","","","","","",""
"","ITI","","html-keyboard-response","407","647842","0.0-1.0-540.0","0","0","65015","","null","","","null","59","","","","","","","","","","","","","","","NaN",""
"","S1","","html-keyboard-response","408","648098","0.0-1.0-542.0","0","0","65015","","null","","","null","60","","","","","","","","","","","","","","","",""
"","ISI","","html-keyboard-response","409","649107","0.0-1.0-543.0","0","0","65015","","null","","","null","60","NaN","","","","","","","","","","","","","","",""
"","S2","","html-keyboard-response","410","649363","0.0-1.0-544.0","0","0","65015","","null","","","null","60","","NaN","","","","","","","","","","","","","",""
"","response","","html-keyboard-response","411","650222","0.0-1.0-545.0-0.0","0","0","65015","","856","","","75","60","","","2","60","training","adjacent","FG","6","7","Q.jpg","R.jpg","1","1","1","",""
"","feedback","","html-keyboard-response","412","651229","0.0-1.0-546.0-0.0","0","0","65015","","null","","","null","60","","","","","","","","","","","","","","","",""
"","ITI","","html-keyboard-response","413","652236","0.0-1.0-549.0","0","0","65015","","null","","","null","60","","","","","","","","","","","","","","","NaN",""
"","S1","","html-keyboard-response","414","652499","0.0-1.0-551.0","0","0","65015","","null","","","null","61","","","","","","","","","","","","","","","",""
"","ISI","","html-keyboard-response","415","653506","0.0-1.0-552.0","0","0","65015","","null","","","null","61","NaN","","","","","","","","","","","","","","",""
"","S2","","html-keyboard-response","416","653765","0.0-1.0-553.0","0","0","65015","","null","","","null","61","","NaN","","","","","","","","","","","","","",""
"","response","","html-keyboard-response","417","655195","0.0-1.0-554.0-0.0","0","0","65015","","1428","","","68","61","","","2","61","training","adjacent","CD","3","4","M.jpg","N.jpg","0","1","0","",""
"","feedback","","html-keyboard-response","418","656205","0.0-1.0-555.0-0.0","0","0","65015","","null","","","null","61","","","","","","","","","","","","","","","",""
"","time_out","","html-keyboard-response","419","658210","0.0-1.0-557.0-0.0","0","0","65015","","null","","","null","61","","","","","","","","","","","","","","","",""
"","ITI","","html-keyboard-response","420","659221","0.0-1.0-558.0","0","0","65015","","null","","","null","61","","","","","","","","","","","","","","","NaN",""
"","S1","","html-keyboard-response","421","659485","0.0-1.0-560.0","0","0","65015","","null","","","null","62","","","","","","","","","","","","","","","",""
"","ISI","","html-keyboard-response","422","660493","0.0-1.0-561.0","0","0","65015","","null","","","null","62","NaN","","","","","","","","","","","","","","",""
"","S2","","html-keyboard-response","423","660755","0.0-1.0-562.0","0","0","65015","","null","","","null","62","","NaN","","","","","","","","","","","","","",""
"","response","","html-keyboard-response","424","662093","0.0-1.0-563.0-0.0","0","0","65015","","1336","","","75","62","","","2","62","training","adjacent","EF","5","6","P.jpg","Q.jpg","1","1","1","",""
"","feedback","","html-keyboard-response","425","663101","0.0-1.0-564.0-0.0","0","0","65015","","null","","","null","62","","","","","","","","","","","","","","","",""
"","ITI","","html-keyboard-response","426","664108","0.0-1.0-567.0","0","0","65015","","null","","","null","62","","","","","","","","","","","","","","","NaN",""
"","S1","","html-keyboard-response","427","664371","0.0-1.0-569.0","0","0","65015","","null","","","null","63","","","","","","","","","","","","","","","",""
"","ISI","","html-keyboard-response","428","665379","0.0-1.0-570.0","0","0","65015","","null","","","null","63","NaN","","","","","","","","","","","","","","",""
"","S2","","html-keyboard-response","429","665634","0.0-1.0-571.0","0","0","65015","","null","","","null","63","","NaN","","","","","","","","","","","","","",""
"","response","","html-keyboard-response","430","666880","0.0-1.0-572.0-0.0","0","0","65015","","1244","","","68","63","","","2","63","training","adjacent","DC","4","3","N.jpg","M.jpg","0","0","1","",""
"","feedback","","html-keyboard-response","431","667891","0.0-1.0-573.0-0.0","0","0","65015","","null","","","null","63","","","","","","","","","","","","","","","",""
"","ITI","","html-keyboard-response","432","668898","0.0-1.0-576.0","0","0","65015","","null","","","null","63","","","","","","","","","","","","","","","NaN",""
"","S1","","html-keyboard-response","433","669155","0.0-1.0-578.0","0","0","65015","","null","","","null","64","","","","","","","","","","","","","","","",""
"","ISI","","html-keyboard-response","434","670163","0.0-1.0-579.0","0","0","65015","","null","","","null","64","NaN","","","","","","","","","","","","","","",""
"","S2","","html-keyboard-response","435","670419","0.0-1.0-580.0","0","0","65015","","null","","","null","64","","NaN","","","","","","","","","","","","","",""
"","response","","html-keyboard-response","436","671307","0.0-1.0-581.0-0.0","0","0","65015","","886","","","68","64","","","2","64","training","adjacent","GF","7","6","R.jpg","Q.jpg","0","0","1","",""
"","feedback","","html-keyboard-response","437","672317","0.0-1.0-582.0-0.0","0","0","65015","","null","","","null","64","","","","","","","","","","","","","","","",""
"","ITI","","html-keyboard-response","438","673325","0.0-1.0-585.0","0","0","65015","","null","","","null","64","","","","","","","","","","","","","","","NaN",""
"","S1","","html-keyboard-response","439","673586","0.0-1.0-587.0","0","0","65015","","null","","","null","65","","","","","","","","","","","","","","","",""
"","ISI","","html-keyboard-response","440","674594","0.0-1.0-588.0","0","0","65015","","null","","","null","65","NaN","","","","","","","","","","","","","","",""
"","S2","","html-keyboard-response","441","674851","0.0-1.0-589.0","0","0","65015","","null","","","null","65","","NaN","","","","","","","","","","","","","",""
"","response","","html-keyboard-response","442","675820","0.0-1.0-590.0-0.0","0","0","65015","","966","","","68","65","","","2","65","training","adjacent","FE","6","5","Q.jpg","P.jpg","0","0","1","",""
"","feedback","","html-keyboard-response","443","676829","0.0-1.0-591.0-0.0","0","0","65015","","null","","","null","65","","","","","","","","","","","","","","","",""
"","ITI","","html-keyboard-response","444","677837","0.0-1.0-594.0","0","0","65015","","null","","","null","65","","","","","","","","","","","","","","","NaN",""
"","S1","","html-keyboard-response","445","678099","0.0-1.0-596.0","0","0","65015","","null","","","null","66","","","","","","","","","","","","","","","",""
"","ISI","","html-keyboard-response","446","679107","0.0-1.0-597.0","0","0","65015","","null","","","null","66","NaN","","","","","","","","","","","","","","",""
"","S2","","html-keyboard-response","447","679363","0.0-1.0-598.0","0","0","65015","","null","","","null","66","","NaN","","","","","","","","","","","","","",""
"","response","","html-keyboard-response","448","680005","0.0-1.0-599.0-0.0","0","0","65015","","640","","","68","66","","","2","66","training","adjacent","BA","2","1","O.jpg","L.jpg","0","0","1","",""
"","feedback","","html-keyboard-response","449","681017","0.0-1.0-600.0-0.0","0","0","65015","","null","","","null","66","","","","","","","","","","","","","","","",""
"","ITI","","html-keyboard-response","450","682024","0.0-1.0-603.0","0","0","65015","","null","","","null","66","","","","","","","","","","","","","","","NaN",""
"","S1","","html-keyboard-response","451","682285","0.0-1.0-605.0","0","0","65015","","null","","","null","67","","","","","","","","","","","","","","","",""
"","ISI","","html-keyboard-response","452","683294","0.0-1.0-606.0","0","0","65015","","null","","","null","67","NaN","","","","","","","","","","","","","","",""
"","S2","","html-keyboard-response","453","683550","0.0-1.0-607.0","0","0","65015","","null","","","null","67","","NaN","","","","","","","","","","","","","",""
"","response","","html-keyboard-response","454","684141","0.0-1.0-608.0-0.0","0","0","65015","","589","","","75","67","","","2","67","training","adjacent","CD","3","4","M.jpg","N.jpg","1","1","1","",""
"","feedback","","html-keyboard-response","455","685148","0.0-1.0-609.0-0.0","0","0","65015","","null","","","null","67","","","","","","","","","","","","","","","",""
"","ITI","","html-keyboard-response","456","686158","0.0-1.0-612.0","0","0","65015","","null","","","null","67","","","","","","","","","","","","","","","NaN",""
"","S1","","html-keyboard-response","457","686414","0.0-1.0-614.0","0","0","65015","","null","","","null","68","","","","","","","","","","","","","","","",""
"","ISI","","html-keyboard-response","458","687422","0.0-1.0-615.0","0","0","65015","","null","","","null","68","NaN","","","","","","","","","","","","","","",""
"","S2","","html-keyboard-response","459","687678","0.0-1.0-616.0","0","0","65015","","null","","","null","68","","NaN","","","","","","","","","","","","","",""
"","response","","html-keyboard-response","460","688373","0.0-1.0-617.0-0.0","0","0","65015","","692","","","68","68","","","2","68","training","adjacent","DE","4","5","N.jpg","P.jpg","0","1","0","",""
"","feedback","","html-keyboard-response","461","689385","0.0-1.0-618.0-0.0","0","0","65015","","null","","","null","68","","","","","","","","","","","","","","","",""
"","time_out","","html-keyboard-response","462","691390","0.0-1.0-620.0-0.0","0","0","65015","","null","","","null","68","","","","","","","","","","","","","","","",""
"","ITI","","html-keyboard-response","463","692398","0.0-1.0-621.0","0","0","65015","","null","","","null","68","","","","","","","","","","","","","","","NaN",""
"","S1","","html-keyboard-response","464","692654","0.0-1.0-623.0","0","0","65015","","null","","","null","69","","","","","","","","","","","","","","","",""
"","ISI","","html-keyboard-response","465","693662","0.0-1.0-624.0","0","0","65015","","null","","","null","69","NaN","","","","","","","","","","","","","","",""
"","S2","","html-keyboard-response","466","693918","0.0-1.0-625.0","0","0","65015","","null","","","null","69","","NaN","","","","","","","","","","","","","",""
"","response","","html-keyboard-response","467","695122","0.0-1.0-626.0-0.0","0","0","65015","","1201","","","75","69","","","2","69","training","adjacent","BC","2","3","O.jpg","M.jpg","1","1","1","",""
"","feedback","","html-keyboard-response","468","696137","0.0-1.0-627.0-0.0","0","0","65015","","null","","","null","69","","","","","","","","","","","","","","","",""
"","ITI","","html-keyboard-response","469","697144","0.0-1.0-630.0","0","0","65015","","null","","","null","69","","","","","","","","","","","","","","","NaN",""
"","S1","","html-keyboard-response","470","697406","0.0-1.0-632.0","0","0","65015","","null","","","null","70","","","","","","","","","","","","","","","",""
"","ISI","","html-keyboard-response","471","698414","0.0-1.0-633.0","0","0","65015","","null","","","null","70","NaN","","","","","","","","","","","","","","",""
"","S2","","html-keyboard-response","472","698670","0.0-1.0-634.0","0","0","65015","","null","","","null","70","","NaN","","","","","","","","","","","","","",""
"","response","","html-keyboard-response","473","699492","0.0-1.0-635.0-0.0","0","0","65015","","820","","","68","70","","","2","70","training","adjacent","BA","2","1","O.jpg","L.jpg","0","0","1","",""
"","feedback","","html-keyboard-response","474","700505","0.0-1.0-636.0-0.0","0","0","65015","","null","","","null","70","","","","","","","","","","","","","","","",""
"","ITI","","html-keyboard-response","475","701512","0.0-1.0-639.0","0","0","65015","","null","","","null","70","","","","","","","","","","","","","","","NaN",""
"","S1","","html-keyboard-response","476","701774","0.0-1.0-641.0","0","0","65015","","null","","","null","71","","","","","","","","","","","","","","","",""
"","ISI","","html-keyboard-response","477","702782","0.0-1.0-642.0","0","0","65015","","null","","","null","71","NaN","","","","","","","","","","","","","","",""
"","S2","","html-keyboard-response","478","703038","0.0-1.0-643.0","0","0","65015","","null","","","null","71","","NaN","","","","","","","","","","","","","",""
"","response","","html-keyboard-response","479","704576","0.0-1.0-644.0-0.0","0","0","65015","","1535","","","68","71","","","2","71","training","adjacent","BC","2","3","O.jpg","M.jpg","0","1","0","",""
"","feedback","","html-keyboard-response","480","705582","0.0-1.0-645.0-0.0","0","0","65015","","null","","","null","71","","","","","","","","","","","","","","","",""
"","time_out","","html-keyboard-response","481","707592","0.0-1.0-647.0-0.0","0","0","65015","","null","","","null","71","","","","","","","","","","","","","","","",""
"","ITI","","html-keyboard-response","482","708600","0.0-1.0-648.0","0","0","65015","","null","","","null","71","","","","","","","","","","","","","","","NaN",""
"","S1","","html-keyboard-response","483","708862","0.0-1.0-650.0","0","0","65015","","null","","","null","72","","","","","","","","","","","","","","","",""
"","ISI","","html-keyboard-response","484","709870","0.0-1.0-651.0","0","0","65015","","null","","","null","72","NaN","","","","","","","","","","","","","","",""
"","S2","","html-keyboard-response","485","710126","0.0-1.0-652.0","0","0","65015","","null","","","null","72","","NaN","","","","","","","","","","","","","",""
"","response","","html-keyboard-response","486","711608","0.0-1.0-653.0-0.0","0","0","65015","","1480","","","75","72","","","2","72","training","adjacent","ED","5","4","P.jpg","N.jpg","1","0","0","",""
"","feedback","","html-keyboard-response","487","712616","0.0-1.0-654.0-0.0","0","0","65015","","null","","","null","72","","","","","","","","","","","","","","","",""
"","time_out","","html-keyboard-response","488","714622","0.0-1.0-656.0-0.0","0","0","65015","","null","","","null","72","","","","","","","","","","","","","","","",""
"","ITI","","html-keyboard-response","489","715629","0.0-1.0-657.0","0","0","65015","","null","","","null","72","","","","","","","","","","","","","","","NaN",""
"","S1","","html-keyboard-response","490","715886","0.0-1.0-659.0","0","0","65015","","null","","","null","73","","","","","","","","","","","","","","","",""
"","ISI","","html-keyboard-response","491","716894","0.0-1.0-660.0","0","0","65015","","null","","","null","73","NaN","","","","","","","","","","","","","","",""
"","S2","","html-keyboard-response","492","717150","0.0-1.0-661.0","0","0","65015","","null","","","null","73","","NaN","","","","","","","","","","","","","",""
"","response","","html-keyboard-response","493","718442","0.0-1.0-662.0-0.0","0","0","65015","","1289","","","75","73","","","2","73","training","adjacent","CB","3","2","M.jpg","O.jpg","1","0","0","",""
"","feedback","","html-keyboard-response","494","719454","0.0-1.0-663.0-0.0","0","0","65015","","null","","","null","73","","","","","","","","","","","","","","","",""
"","time_out","","html-keyboard-response","495","721464","0.0-1.0-665.0-0.0","0","0","65015","","null","","","null","73","","","","","","","","","","","","","","","",""
"","ITI","","html-keyboard-response","496","722472","0.0-1.0-666.0","0","0","65015","","null","","","null","73","","","","","","","","","","","","","","","NaN",""
"","S1","","html-keyboard-response","497","722734","0.0-1.0-668.0","0","0","65015","","null","","","null","74","","","","","","","","","","","","","","","",""
"","ISI","","html-keyboard-response","498","723741","0.0-1.0-669.0","0","0","65015","","null","","","null","74","NaN","","","","","","","","","","","","","","",""
"","S2","","html-keyboard-response","499","723998","0.0-1.0-670.0","0","0","65015","","null","","","null","74","","NaN","","","","","","","","","","","","","",""
"","response","","html-keyboard-response","500","724850","0.0-1.0-671.0-0.0","0","0","65015","","849","","","68","74","","","2","74","training","adjacent","BA","2","1","O.jpg","L.jpg","0","0","1","",""
"","feedback","","html-keyboard-response","501","725864","0.0-1.0-672.0-0.0","0","0","65015","","null","","","null","74","","","","","","","","","","","","","","","",""
"","ITI","","html-keyboard-response","502","726871","0.0-1.0-675.0","0","0","65015","","null","","","null","74","","","","","","","","","","","","","","","NaN",""
"","S1","","html-keyboard-response","503","727134","0.0-1.0-677.0","0","0","65015","","null","","","null","75","","","","","","","","","","","","","","","",""
"","ISI","","html-keyboard-response","504","728141","0.0-1.0-678.0","0","0","65015","","null","","","null","75","NaN","","","","","","","","","","","","","","",""
"","S2","","html-keyboard-response","505","728397","0.0-1.0-679.0","0","0","65015","","null","","","null","75","","NaN","","","","","","","","","","","","","",""
"","response","","html-keyboard-response","506","729158","0.0-1.0-680.0-0.0","0","0","65015","","758","","","68","75","","","2","75","training","adjacent","ED","5","4","P.jpg","N.jpg","0","0","1","",""
"","feedback","","html-keyboard-response","507","730168","0.0-1.0-681.0-0.0","0","0","65015","","null","","","null","75","","","","","","","","","","","","","","","",""
"","ITI","","html-keyboard-response","508","731175","0.0-1.0-684.0","0","0","65015","","null","","","null","75","","","","","","","","","","","","","","","NaN",""
"","S1","","html-keyboard-response","509","731437","0.0-1.0-686.0","0","0","65015","","null","","","null","76","","","","","","","","","","","","","","","",""
"","ISI","","html-keyboard-response","510","732445","0.0-1.0-687.0","0","0","65015","","null","","","null","76","NaN","","","","","","","","","","","","","","",""
"","S2","","html-keyboard-response","511","732702","0.0-1.0-688.0","0","0","65015","","null","","","null","76","","NaN","","","","","","","","","","","","","",""
"","response","","html-keyboard-response","512","733541","0.0-1.0-689.0-0.0","0","0","65015","","836","","","68","76","","","2","76","training","adjacent","EF","5","6","P.jpg","Q.jpg","0","1","0","",""
"","feedback","","html-keyboard-response","513","734552","0.0-1.0-690.0-0.0","0","0","65015","","null","","","null","76","","","","","","","","","","","","","","","",""
"","time_out","","html-keyboard-response","514","736557","0.0-1.0-692.0-0.0","0","0","65015","","null","","","null","76","","","","","","","","","","","","","","","",""
"","ITI","","html-keyboard-response","515","737565","0.0-1.0-693.0","0","0","65015","","null","","","null","76","","","","","","","","","","","","","","","NaN",""
"","S1","","html-keyboard-response","516","737821","0.0-1.0-695.0","0","0","65015","","null","","","null","77","","","","","","","","","","","","","","","",""
"","ISI","","html-keyboard-response","517","738829","0.0-1.0-696.0","0","0","65015","","null","","","null","77","NaN","","","","","","","","","","","","","","",""
"","S2","","html-keyboard-response","518","739085","0.0-1.0-697.0","0","0","65015","","null","","","null","77","","NaN","","","","","","","","","","","","","",""
"","response","","html-keyboard-response","519","740180","0.0-1.0-698.0-0.0","0","0","65015","","1092","","","75","77","","","2","77","training","adjacent","CB","3","2","M.jpg","O.jpg","1","0","0","",""
"","feedback","","html-keyboard-response","520","741192","0.0-1.0-699.0-0.0","0","0","65015","","null","","","null","77","","","","","","","","","","","","","","","",""
"","time_out","","html-keyboard-response","521","743197","0.0-1.0-701.0-0.0","0","0","65015","","null","","","null","77","","","","","","","","","","","","","","","",""
"","ITI","","html-keyboard-response","522","744205","0.0-1.0-702.0","0","0","65015","","null","","","null","77","","","","","","","","","","","","","","","NaN",""
"","S1","","html-keyboard-response","523","744461","0.0-1.0-704.0","0","0","65015","","null","","","null","78","","","","","","","","","","","","","","","",""
"","ISI","","html-keyboard-response","524","745469","0.0-1.0-705.0","0","0","65015","","null","","","null","78","NaN","","","","","","","","","","","","","","",""
"","S2","","html-keyboard-response","525","745724","0.0-1.0-706.0","0","0","65015","","null","","","null","78","","NaN","","","","","","","","","","","","","",""
"","response","","html-keyboard-response","526","747485","0.0-1.0-707.0-0.0","0","0","65015","","null","","","null","78","","","2","78","training","adjacent","EF","5","6","P.jpg","Q.jpg","NaN","1","0","",""
"","too_slow_prompt","","html-keyboard-response","527","748493","0.0-1.0-709.0-0.0","1","0","65015","","null","","","null","","","","","","","","","","","","","","","","",""
"","time_out","","html-keyboard-response","528","750504","0.0-1.0-710.0-0.0","0","0","65015","","null","","","null","78","","","","","","","","","","","","","","","",""
"","ITI","","html-keyboard-response","529","751511","0.0-1.0-711.0","0","0","65015","","null","","","null","78","","","","","","","","","","","","","","","NaN",""
"","S1","","html-keyboard-response","530","751773","0.0-1.0-713.0","0","0","65015","","null","","","null","79","","","","","","","","","","","","","","","",""
"","ISI","","html-keyboard-response","531","752781","0.0-1.0-714.0","0","0","65015","","null","","","null","79","NaN","","","","","","","","","","","","","","",""
"","S2","","html-keyboard-response","532","753037","0.0-1.0-715.0","0","0","65015","","null","","","null","79","","NaN","","","","","","","","","","","","","",""
"","response","","html-keyboard-response","533","753409","0.0-1.0-716.0-0.0","0","0","65015","","370","","","75","79","","","2","79","training","adjacent","DC","4","3","N.jpg","M.jpg","1","0","0","",""
"","feedback","","html-keyboard-response","534","754424","0.0-1.0-717.0-0.0","0","0","65015","","null","","","null","79","","","","","","","","","","","","","","","",""
"","time_out","","html-keyboard-response","535","756429","0.0-1.0-719.0-0.0","0","0","65015","","null","","","null","79","","","","","","","","","","","","","","","",""
"","ITI","","html-keyboard-response","536","757437","0.0-1.0-720.0","0","0","65015","","null","","","null","79","","","","","","","","","","","","","","","NaN",""
"","S1","","html-keyboard-response","537","757693","0.0-1.0-722.0","0","0","65015","","null","","","null","80","","","","","","","","","","","","","","","",""
"","ISI","","html-keyboard-response","538","758701","0.0-1.0-723.0","0","0","65015","","null","","","null","80","NaN","","","","","","","","","","","","","","",""
"","S2","","html-keyboard-response","539","758957","0.0-1.0-724.0","0","0","65015","","null","","","null","80","","NaN","","","","","","","","","","","","","",""
"","response","","html-keyboard-response","540","759447","0.0-1.0-725.0-0.0","0","0","65015","","488","","","68","80","","","2","80","training","adjacent","GF","7","6","R.jpg","Q.jpg","0","0","1","",""
"","feedback","","html-keyboard-response","541","760456","0.0-1.0-726.0-0.0","0","0","65015","","null","","","null","80","","","","","","","","","","","","","","","",""
"","ITI","","html-keyboard-response","542","761463","0.0-1.0-729.0","0","0","65015","","null","","","null","80","","","","","","","","","","","","","","","NaN",""
"","S1","","html-keyboard-response","543","761728","0.0-1.0-731.0","0","0","65015","","null","","","null","81","","","","","","","","","","","","","","","",""
"","ISI","","html-keyboard-response","544","762733","0.0-1.0-732.0","0","0","65015","","null","","","null","81","NaN","","","","","","","","","","","","","","",""
"","S2","","html-keyboard-response","545","762989","0.0-1.0-733.0","0","0","65015","","null","","","null","81","","NaN","","","","","","","","","","","","","",""
"","response","","html-keyboard-response","546","763569","0.0-1.0-734.0-0.0","0","0","65015","","577","","","68","81","","","2","81","training","adjacent","DE","4","5","N.jpg","P.jpg","0","1","0","",""
"","feedback","","html-keyboard-response","547","764584","0.0-1.0-735.0-0.0","0","0","65015","","null","","","null","81","","","","","","","","","","","","","","","",""
"","time_out","","html-keyboard-response","548","766589","0.0-1.0-737.0-0.0","0","0","65015","","null","","","null","81","","","","","","","","","","","","","","","",""
"","ITI","","html-keyboard-response","549","767596","0.0-1.0-738.0","0","0","65015","","null","","","null","81","","","","","","","","","","","","","","","NaN",""
"","S1","","html-keyboard-response","550","767853","0.0-1.0-740.0","0","0","65015","","null","","","null","82","","","","","","","","","","","","","","","",""
"","ISI","","html-keyboard-response","551","768861","0.0-1.0-741.0","0","0","65015","","null","","","null","82","NaN","","","","","","","","","","","","","","",""
"","S2","","html-keyboard-response","552","769117","0.0-1.0-742.0","0","0","65015","","null","","","null","82","","NaN","","","","","","","","","","","","","",""
"","response","","html-keyboard-response","553","769795","0.0-1.0-743.0-0.0","0","0","65015","","675","","","75","82","","","2","82","training","adjacent","FG","6","7","Q.jpg","R.jpg","1","1","1","",""
"","feedback","","html-keyboard-response","554","770808","0.0-1.0-744.0-0.0","0","0","65015","","null","","","null","82","","","","","","","","","","","","","","","",""
"","ITI","","html-keyboard-response","555","771813","0.0-1.0-747.0","0","0","65015","","null","","","null","82","","","","","","","","","","","","","","","NaN",""
"","S1","","html-keyboard-response","556","772072","0.0-1.0-749.0","0","0","65015","","null","","","null","83","","","","","","","","","","","","","","","",""
"","ISI","","html-keyboard-response","557","773080","0.0-1.0-750.0","0","0","65015","","null","","","null","83","NaN","","","","","","","","","","","","","","",""
"","S2","","html-keyboard-response","558","773341","0.0-1.0-751.0","0","0","65015","","null","","","null","83","","NaN","","","","","","","","","","","","","",""
"","response","","html-keyboard-response","559","774118","0.0-1.0-752.0-0.0","0","0","65015","","775","","","68","83","","","2","83","training","adjacent","GF","7","6","R.jpg","Q.jpg","0","0","1","",""
"","feedback","","html-keyboard-response","560","775128","0.0-1.0-753.0-0.0","0","0","65015","","null","","","null","83","","","","","","","","","","","","","","","",""
"","ITI","","html-keyboard-response","561","776135","0.0-1.0-756.0","0","0","65015","","null","","","null","83","","","","","","","","","","","","","","","NaN",""
"","S1","","html-keyboard-response","562","776397","0.0-1.0-758.0","0","0","65015","","null","","","null","84","","","","","","","","","","","","","","","",""
"","ISI","","html-keyboard-response","563","777405","0.0-1.0-759.0","0","0","65015","","null","","","null","84","NaN","","","","","","","","","","","","","","",""
"","S2","","html-keyboard-response","564","777661","0.0-1.0-760.0","0","0","65015","","null","","","null","84","","NaN","","","","","","","","","","","","","",""
"","response","","html-keyboard-response","565","778419","0.0-1.0-761.0-0.0","0","0","65015","","755","","","75","84","","","2","84","training","adjacent","ED","5","4","P.jpg","N.jpg","1","0","0","",""
"","feedback","","html-keyboard-response","566","779432","0.0-1.0-762.0-0.0","0","0","65015","","null","","","null","84","","","","","","","","","","","","","","","",""
"","time_out","","html-keyboard-response","567","781437","0.0-1.0-764.0-0.0","0","0","65015","","null","","","null","84","","","","","","","","","","","","","","","",""
"","ITI","","html-keyboard-response","568","782445","0.0-1.0-765.0","0","0","65015","","null","","","null","84","","","","","","","","","","","","","","","NaN",""
"","S1","","html-keyboard-response","569","782701","0.0-1.0-767.0","0","0","65015","","null","","","null","85","","","","","","","","","","","","","","","",""
"","ISI","","html-keyboard-response","570","783709","0.0-1.0-768.0","0","0","65015","","null","","","null","85","NaN","","","","","","","","","","","","","","",""
"","S2","","html-keyboard-response","571","783965","0.0-1.0-769.0","0","0","65015","","null","","","null","85","","NaN","","","","","","","","","","","","","",""
