"success","ttype","start_time","trial_type","trial_index","time_elapsed","internal_node_id","warning","missed_checkup","PID","view_history","rt","responses","repeat_instructions","key_press","index","keypress_isi","keypress_S2","block","trial_num","phase","group_type","pair_type","S1_stim","S2_stim","S1_img","S2_img","S1_chosen","S1_higher","accuracy","keypress_iti","total_bonus_tally"
"true","full_screen","d07292022hr2240","fullscreen","0","201033","0.0-0.0","0","0","39991","","","","","","","","","","","","","","","","","","","","","",""
"","instructions","","instructions","1","217495","0.0-1.0-0.0-0.0","0","0","39991","[{""page_index"":0,""viewing_time"":3038},{""page_index"":1,""viewing_time"":4916},{""page_index"":2,""viewing_time"":7438},{""page_index"":3,""viewing_time"":1066}]","16459","","","","","","","","","","","","","","","","","","","",""
"","comprehension_check","","survey-multi-choice","2","231165","0.0-1.0-0.0-1.0","0","0","39991","","13666","{""Q0"":""True"",""Q1"":""D"",""Q2"":""When you see the prompt 'MAKE A CHOICE' after the second image was presented"",""Q3"":""Green mark"",""Q4"":""either D or K""}","1","","","","","","","","","","","","","","","","","",""
"","missed_instruction_checkup","","html-keyboard-response","3","232962","0.0-1.0-0.0-2.0-0.0","0","1","39991","","1791","","","32","","","","","","","","","","","","","","","","",""
"","instructions","","instructions","4","245542","0.0-1.0-0.1-0.1","0","0","39991","[{""page_index"":0,""viewing_time"":7315},{""page_index"":1,""viewing_time"":2342},{""page_index"":2,""viewing_time"":2033},{""page_index"":3,""viewing_time"":887}]","12578","","","","","","","","","","","","","","","","","","","",""
"","comprehension_check","","survey-multi-choice","5","266492","0.0-1.0-0.1-1.1","0","0","39991","","20946","{""Q0"":""True"",""Q1"":""K"",""Q2"":""When you see the prompt 'MAKE A CHOICE' after the second image was presented"",""Q3"":""Green mark"",""Q4"":""either D or K""}","0","","","","","","","","","","","","","","","","","",""
"","start_exp","","html-keyboard-response","6","267696","0.0-1.0-1.0","0","0","39991","","1200","","","32","","","","","","","","","","","","","","","","",""
"","S1","","html-keyboard-response","7","267949","0.0-1.0-2.0","0","0","39991","","null","","","null","0","","","","","","","","","","","","","","","",""
"","ISI","","html-keyboard-response","8","269951","0.0-1.0-3.0","0","0","39991","","null","","","null","0","NaN","","","","","","","","","","","","","","",""
"","S2","","html-keyboard-response","9","270203","0.0-1.0-4.0","0","0","39991","","null","","","null","0","","NaN","","","","","","","","","","","","","",""
"","response","","html-keyboard-response","10","270997","0.0-1.0-5.0","0","0","39991","","792","","","68","0","","","1","0","training","adjacent","FE","6","5","R.jpg","N.jpg","0","0","1","",""
"","feedback","","html-keyboard-response","11","272000","0.0-1.0-6.0-0.0","0","0","39991","","null","","","null","0","","","","","","","","","","","","","","","",""
"","ITI","","html-keyboard-response","12","273002","0.0-1.0-9.0","0","0","39991","","null","","","null","0","","","","","","","","","","","","","","","NaN",""
"","S1","","html-keyboard-response","13","273265","0.0-1.0-11.0","0","0","39991","","null","","","null","1","","","","","","","","","","","","","","","",""
"","ISI","","html-keyboard-response","14","275267","0.0-1.0-12.0","0","0","39991","","null","","","null","1","NaN","","","","","","","","","","","","","","",""
"","S2","","html-keyboard-response","15","275519","0.0-1.0-13.0","0","0","39991","","null","","","null","1","","NaN","","","","","","","","","","","","","",""
"","response","","html-keyboard-response","16","276074","0.0-1.0-14.0","0","0","39991","","554","","","75","1","","","1","1","training","adjacent","GF","7","6","M.jpg","R.jpg","1","0","0","",""
"","feedback","","html-keyboard-response","17","277076","0.0-1.0-15.0-0.0","0","0","39991","","null","","","null","1","","","","","","","","","","","","","","","",""
"","time_out","","html-keyboard-response","18","279079","0.0-1.0-17.0-0.0","0","0","39991","","null","","","null","1","","","","","","","","","","","","","","","",""
"","ITI","","html-keyboard-response","19","280081","0.0-1.0-18.0","0","0","39991","","null","","","null","1","","","","","","","","","","","","","","","NaN",""
"","S1","","html-keyboard-response","20","280334","0.0-1.0-20.0","0","0","39991","","null","","","null","2","","","","","","","","","","","","","","","",""
"","ISI","","html-keyboard-response","21","282336","0.0-1.0-21.0","0","0","39991","","null","","","null","2","NaN","","","","","","","","","","","","","","",""
"","S2","","html-keyboard-response","22","282589","0.0-1.0-22.0","0","0","39991","","null","","","null","2","","NaN","","","","","","","","","","","","","",""
"","response","","html-keyboard-response","23","283096","0.0-1.0-23.0","0","0","39991","","504","","","68","2","","","1","2","training","adjacent","BA","2","1","O.jpg","L.jpg","0","0","1","",""
"","feedback","","html-keyboard-response","24","284098","0.0-1.0-24.0-0.0","0","0","39991","","null","","","null","2","","","","","","","","","","","","","","","",""
"","ITI","","html-keyboard-response","25","285101","0.0-1.0-27.0","0","0","39991","","null","","","null","2","","","","","","","","","","","","","","","NaN",""
"","S1","","html-keyboard-response","26","285353","0.0-1.0-29.0","0","0","39991","","null","","","null","3","","","","","","","","","","","","","","","",""
"","ISI","","html-keyboard-response","27","287356","0.0-1.0-30.0","0","0","39991","","null","","","null","3","NaN","","","","","","","","","","","","","","",""
"","S2","","html-keyboard-response","28","287609","0.0-1.0-31.0","0","0","39991","","null","","","null","3","","NaN","","","","","","","","","","","","","",""
"","response","","html-keyboard-response","29","288052","0.0-1.0-32.0","0","0","39991","","441","","","75","3","","","1","3","training","adjacent","CD","3","4","P.jpg","Q.jpg","1","1","1","",""
"","feedback","","html-keyboard-response","30","289055","0.0-1.0-33.0-0.0","0","0","39991","","null","","","null","3","","","","","","","","","","","","","","","",""
"","ITI","","html-keyboard-response","31","290056","0.0-1.0-36.0","0","0","39991","","null","","","null","3","","","","","","","","","","","","","","","NaN",""
"","S1","","html-keyboard-response","32","290310","0.0-1.0-38.0","0","0","39991","","null","","","null","4","","","","","","","","","","","","","","","",""
"","ISI","","html-keyboard-response","33","292312","0.0-1.0-39.0","0","0","39991","","null","","","null","4","NaN","","","","","","","","","","","","","","",""
"","S2","","html-keyboard-response","34","292577","0.0-1.0-40.0","0","0","39991","","null","","","null","4","","NaN","","","","","","","","","","","","","",""
"","response","","html-keyboard-response","35","292705","0.0-1.0-41.0","0","0","39991","","126","","","75","4","","","1","4","training","adjacent","FE","6","5","R.jpg","N.jpg","1","0","0","",""
"","feedback","","html-keyboard-response","36","293709","0.0-1.0-42.0-0.0","0","0","39991","","null","","","null","4","","","","","","","","","","","","","","","",""
"","time_out","","html-keyboard-response","37","295712","0.0-1.0-44.0-0.0","0","0","39991","","null","","","null","4","","","","","","","","","","","","","","","",""
"","ITI","","html-keyboard-response","38","296716","0.0-1.0-45.0","0","0","39991","","null","","","null","4","","","","","","","","","","","","","","","NaN",""
"","S1","","html-keyboard-response","39","296970","0.0-1.0-47.0","0","0","39991","","null","","","null","5","","","","","","","","","","","","","","","",""
"","ISI","","html-keyboard-response","40","298972","0.0-1.0-48.0","0","0","39991","","null","","","null","5","NaN","","","","","","","","","","","","","","",""
"","S2","","html-keyboard-response","41","299228","0.0-1.0-49.0","0","0","39991","","null","","","null","5","","NaN","","","","","","","","","","","","","",""
"","response","","html-keyboard-response","42","299598","0.0-1.0-50.0","0","0","39991","","369","","","68","5","","","1","5","training","adjacent","CB","3","2","P.jpg","O.jpg","0","0","1","",""
"","feedback","","html-keyboard-response","43","300601","0.0-1.0-51.0-0.0","0","0","39991","","null","","","null","5","","","","","","","","","","","","","","","",""
"","ITI","","html-keyboard-response","44","301604","0.0-1.0-54.0","0","0","39991","","null","","","null","5","","","","","","","","","","","","","","","NaN",""
"","S1","","html-keyboard-response","45","301856","0.0-1.0-56.0","0","0","39991","","null","","","null","6","","","","","","","","","","","","","","","",""
"","ISI","","html-keyboard-response","46","303858","0.0-1.0-57.0","0","0","39991","","null","","","null","6","NaN","","","","","","","","","","","","","","",""
"","S2","","html-keyboard-response","47","304111","0.0-1.0-58.0","0","0","39991","","null","","","null","6","","NaN","","","","","","","","","","","","","",""
"","response","","html-keyboard-response","48","304737","0.0-1.0-59.0","0","0","39991","","623","","","75","6","","","1","6","training","adjacent","CB","3","2","P.jpg","O.jpg","1","0","0","",""
"","feedback","","html-keyboard-response","49","305740","0.0-1.0-60.0-0.0","0","0","39991","","null","","","null","6","","","","","","","","","","","","","","","",""
"","time_out","","html-keyboard-response","50","307743","0.0-1.0-62.0-0.0","0","0","39991","","null","","","null","6","","","","","","","","","","","","","","","",""
"","ITI","","html-keyboard-response","51","308747","0.0-1.0-63.0","0","0","39991","","null","","","null","6","","","","","","","","","","","","","","","NaN",""
"","S1","","html-keyboard-response","52","309000","0.0-1.0-65.0","0","0","39991","","null","","","null","7","","","","","","","","","","","","","","","",""
"","ISI","","html-keyboard-response","53","311003","0.0-1.0-66.0","0","0","39991","","null","","","null","7","NaN","","","","","","","","","","","","","","",""
"","S2","","html-keyboard-response","54","311257","0.0-1.0-67.0","0","0","39991","","null","","","null","7","","NaN","","","","","","","","","","","","","",""
"","response","","html-keyboard-response","55","311820","0.0-1.0-68.0","0","0","39991","","561","","","68","7","","","1","7","training","adjacent","GF","7","6","M.jpg","R.jpg","0","0","1","",""
"","feedback","","html-keyboard-response","56","312823","0.0-1.0-69.0-0.0","0","0","39991","","null","","","null","7","","","","","","","","","","","","","","","",""
"","ITI","","html-keyboard-response","57","313826","0.0-1.0-72.0","0","0","39991","","null","","","null","7","","","","","","","","","","","","","","","NaN",""
"","S1","","html-keyboard-response","58","314079","0.0-1.0-74.0","0","0","39991","","null","","","null","8","","","","","","","","","","","","","","","",""
"","ISI","","html-keyboard-response","59","316083","0.0-1.0-75.0","0","0","39991","","null","","","null","8","NaN","","","","","","","","","","","","","","",""
"","S2","","html-keyboard-response","60","316336","0.0-1.0-76.0","0","0","39991","","null","","","null","8","","NaN","","","","","","","","","","","","","",""
"","response","","html-keyboard-response","61","317394","0.0-1.0-77.0","0","0","39991","","1056","","","75","8","","","1","8","training","adjacent","CD","3","4","P.jpg","Q.jpg","1","1","1","",""
"","feedback","","html-keyboard-response","62","318397","0.0-1.0-78.0-0.0","0","0","39991","","null","","","null","8","","","","","","","","","","","","","","","",""
"","ITI","","html-keyboard-response","63","319400","0.0-1.0-81.0","0","0","39991","","null","","","null","8","","","","","","","","","","","","","","","NaN",""
"","S1","","html-keyboard-response","64","319653","0.0-1.0-83.0","0","0","39991","","null","","","null","9","","","","","","","","","","","","","","","",""
"","ISI","","html-keyboard-response","65","321656","0.0-1.0-84.0","0","0","39991","","null","","","null","9","NaN","","","","","","","","","","","","","","",""
"","S2","","html-keyboard-response","66","321909","0.0-1.0-85.0","0","0","39991","","null","","","null","9","","NaN","","","","","","","","","","","","","",""
"","response","","html-keyboard-response","67","322516","0.0-1.0-86.0","0","0","39991","","604","","","68","9","","","1","9","training","adjacent","AB","1","2","L.jpg","O.jpg","0","1","0","",""
"","feedback","","html-keyboard-response","68","323519","0.0-1.0-87.0-0.0","0","0","39991","","null","","","null","9","","","","","","","","","","","","","","","",""
"","time_out","","html-keyboard-response","69","325523","0.0-1.0-89.0-0.0","0","0","39991","","null","","","null","9","","","","","","","","","","","","","","","",""
"","ITI","","html-keyboard-response","70","326526","0.0-1.0-90.0","0","0","39991","","null","","","null","9","","","","","","","","","","","","","","","NaN",""
"","S1","","html-keyboard-response","71","326779","0.0-1.0-92.0","0","0","39991","","null","","","null","10","","","","","","","","","","","","","","","",""
"","ISI","","html-keyboard-response","72","328782","0.0-1.0-93.0","0","0","39991","","null","","","null","10","NaN","","","","","","","","","","","","","","",""
"","S2","","html-keyboard-response","73","329036","0.0-1.0-94.0","0","0","39991","","134","","","75","10","","k","","","","","","","","","","","","","",""
"","response","","html-keyboard-response","74","329475","0.0-1.0-95.0","0","0","39991","","437","","","75","10","","","1","10","training","adjacent","GF","7","6","M.jpg","R.jpg","1","0","0","",""
"","feedback","","html-keyboard-response","75","330478","0.0-1.0-96.0-0.0","0","0","39991","","null","","","null","10","","","","","","","","","","","","","","","",""
"","time_out","","html-keyboard-response","76","332481","0.0-1.0-98.0-0.0","0","0","39991","","null","","","null","10","","","","","","","","","","","","","","","",""
"","ITI","","html-keyboard-response","77","333485","0.0-1.0-99.0","0","0","39991","","null","","","null","10","","","","","","","","","","","","","","","NaN",""
"","S1","","html-keyboard-response","78","333738","0.0-1.0-101.0","0","0","39991","","null","","","null","11","","","","","","","","","","","","","","","",""
"","ISI","","html-keyboard-response","79","335742","0.0-1.0-102.0","0","0","39991","","1590","","","68","11","d","","","","","","","","","","","","","","",""
"","S2","","html-keyboard-response","80","335995","0.0-1.0-103.0","0","0","39991","","null","","","null","11","","NaN","","","","","","","","","","","","","",""
"","response","","html-keyboard-response","81","336043","0.0-1.0-104.0","0","0","39991","","46","","","68","11","","","1","11","training","adjacent","EF","5","6","N.jpg","R.jpg","0","1","0","",""
"","feedback","","html-keyboard-response","82","337046","0.0-1.0-105.0-0.0","0","0","39991","","null","","","null","11","","","","","","","","","","","","","","","",""
"","time_out","","html-keyboard-response","83","339049","0.0-1.0-107.0-0.0","0","0","39991","","null","","","null","11","","","","","","","","","","","","","","","",""
"","ITI","","html-keyboard-response","84","340052","0.0-1.0-108.0","0","0","39991","","null","","","null","11","","","","","","","","","","","","","","","NaN",""
"","S1","","html-keyboard-response","85","340311","0.0-1.0-110.0","0","0","39991","","null","","","null","12","","","","","","","","","","","","","","","",""
"","ISI","","html-keyboard-response","86","342315","0.0-1.0-111.0","0","0","39991","","null","","","null","12","NaN","","","","","","","","","","","","","","",""
"","S2","","html-keyboard-response","87","342589","0.0-1.0-112.0","0","0","39991","","null","","","null","12","","NaN","","","","","","","","","","","","","",""
"","response","","html-keyboard-response","88","343069","0.0-1.0-113.0","0","0","39991","","478","","","75","12","","","1","12","training","adjacent","BC","2","3","O.jpg","P.jpg","1","1","1","",""
"","feedback","","html-keyboard-response","89","344072","0.0-1.0-114.0-0.0","0","0","39991","","null","","","null","12","","","","","","","","","","","","","","","",""
"","ITI","","html-keyboard-response","90","345074","0.0-1.0-117.0","0","0","39991","","null","","","null","12","","","","","","","","","","","","","","","NaN",""
"","S1","","html-keyboard-response","91","345327","0.0-1.0-119.0","0","0","39991","","null","","","null","13","","","","","","","","","","","","","","","",""
"","ISI","","html-keyboard-response","92","347329","0.0-1.0-120.0","0","0","39991","","null","","","null","13","NaN","","","","","","","","","","","","","","",""
"","S2","","html-keyboard-response","93","347583","0.0-1.0-121.0","0","0","39991","","null","","","null","13","","NaN","","","","","","","","","","","","","",""
"","response","","html-keyboard-response","94","348035","0.0-1.0-122.0","0","0","39991","","451","","","68","13","","","1","13","training","adjacent","DC","4","3","Q.jpg","P.jpg","0","0","1","",""
"","feedback","","html-keyboard-response","95","349038","0.0-1.0-123.0-0.0","0","0","39991","","null","","","null","13","","","","","","","","","","","","","","","",""
"","ITI","","html-keyboard-response","96","350040","0.0-1.0-126.0","0","0","39991","","null","","","null","13","","","","","","","","","","","","","","","NaN",""
"","S1","","html-keyboard-response","97","350293","0.0-1.0-128.0","0","0","39991","","null","","","null","14","","","","","","","","","","","","","","","",""
"","ISI","","html-keyboard-response","98","352295","0.0-1.0-129.0","0","0","39991","","null","","","null","14","NaN","","","","","","","","","","","","","","",""
"","S2","","html-keyboard-response","99","352548","0.0-1.0-130.0","0","0","39991","","null","","","null","14","","NaN","","","","","","","","","","","","","",""
"","response","","html-keyboard-response","100","352601","0.0-1.0-131.0","0","0","39991","","51","","","68","14","","","1","14","training","adjacent","FE","6","5","R.jpg","N.jpg","0","0","1","",""
"","feedback","","html-keyboard-response","101","353604","0.0-1.0-132.0-0.0","0","0","39991","","null","","","null","14","","","","","","","","","","","","","","","",""
"","ITI","","html-keyboard-response","102","354607","0.0-1.0-135.0","0","0","39991","","null","","","null","14","","","","","","","","","","","","","","","NaN",""
"","S1","","html-keyboard-response","103","354860","0.0-1.0-137.0","0","0","39991","","null","","","null","15","","","","","","","","","","","","","","","",""
"","ISI","","html-keyboard-response","104","356863","0.0-1.0-138.0","0","0","39991","","null","","","null","15","NaN","","","","","","","","","","","","","","",""
"","S2","","html-keyboard-response","105","357117","0.0-1.0-139.0","0","0","39991","","null","","","null","15","","NaN","","","","","","","","","","","","","",""
"","response","","html-keyboard-response","106","357697","0.0-1.0-140.0","0","0","39991","","577","","","75","15","","","1","15","training","adjacent","FG","6","7","R.jpg","M.jpg","1","1","1","",""
"","feedback","","html-keyboard-response","107","358700","0.0-1.0-141.0-0.0","0","0","39991","","null","","","null","15","","","","","","","","","","","","","","","",""
"","ITI","","html-keyboard-response","108","359702","0.0-1.0-144.0","0","0","39991","","null","","","null","15","","","","","","","","","","","","","","","NaN",""
"","S1","","html-keyboard-response","109","359955","0.0-1.0-146.0","0","0","39991","","null","","","null","16","","","","","","","","","","","","","","","",""
"","ISI","","html-keyboard-response","110","361958","0.0-1.0-147.0","0","0","39991","","null","","","null","16","NaN","","","","","","","","","","","","","","",""
"","S2","","html-keyboard-response","111","362211","0.0-1.0-148.0","0","0","39991","","null","","","null","16","","NaN","","","","","","","","","","","","","",""
"","response","","html-keyboard-response","112","362721","0.0-1.0-149.0","0","0","39991","","508","","","75","16","","","1","16","training","adjacent","BA","2","1","O.jpg","L.jpg","1","0","0","",""
"","feedback","","html-keyboard-response","113","363724","0.0-1.0-150.0-0.0","0","0","39991","","null","","","null","16","","","","","","","","","","","","","","","",""
"","time_out","","html-keyboard-response","114","365726","0.0-1.0-152.0-0.0","0","0","39991","","null","","","null","16","","","","","","","","","","","","","","","",""
"","ITI","","html-keyboard-response","115","366730","0.0-1.0-153.0","0","0","39991","","null","","","null","16","","","","","","","","","","","","","","","NaN",""
"","S1","","html-keyboard-response","116","366983","0.0-1.0-155.0","0","0","39991","","null","","","null","17","","","","","","","","","","","","","","","",""
"","ISI","","html-keyboard-response","117","368986","0.0-1.0-156.0","0","0","39991","","null","","","null","17","NaN","","","","","","","","","","","","","","",""
"","S2","","html-keyboard-response","118","369238","0.0-1.0-157.0","0","0","39991","","null","","","null","17","","NaN","","","","","","","","","","","","","",""
"","response","","html-keyboard-response","119","369599","0.0-1.0-158.0","0","0","39991","","360","","","68","17","","","1","17","training","adjacent","DE","4","5","Q.jpg","N.jpg","0","1","0","",""
"","feedback","","html-keyboard-response","120","370602","0.0-1.0-159.0-0.0","0","0","39991","","null","","","null","17","","","","","","","","","","","","","","","",""
"","time_out","","html-keyboard-response","121","372604","0.0-1.0-161.0-0.0","0","0","39991","","null","","","null","17","","","","","","","","","","","","","","","",""
"","ITI","","html-keyboard-response","122","373607","0.0-1.0-162.0","0","0","39991","","null","","","null","17","","","","","","","","","","","","","","","NaN",""
"","S1","","html-keyboard-response","123","373860","0.0-1.0-164.0","0","0","39991","","null","","","null","18","","","","","","","","","","","","","","","",""
"","ISI","","html-keyboard-response","124","375863","0.0-1.0-165.0","0","0","39991","","null","","","null","18","NaN","","","","","","","","","","","","","","",""
"","S2","","html-keyboard-response","125","376116","0.0-1.0-166.0","0","0","39991","","null","","","null","18","","NaN","","","","","","","","","","","","","",""
"","response","","html-keyboard-response","126","376606","0.0-1.0-167.0","0","0","39991","","488","","","68","18","","","1","18","training","adjacent","AB","1","2","L.jpg","O.jpg","0","1","0","",""
"","feedback","","html-keyboard-response","127","377609","0.0-1.0-168.0-0.0","0","0","39991","","null","","","null","18","","","","","","","","","","","","","","","",""
"","time_out","","html-keyboard-response","128","379612","0.0-1.0-170.0-0.0","0","0","39991","","null","","","null","18","","","","","","","","","","","","","","","",""
"","ITI","","html-keyboard-response","129","380614","0.0-1.0-171.0","0","0","39991","","null","","","null","18","","","","","","","","","","","","","","","NaN",""
"","S1","","html-keyboard-response","130","380867","0.0-1.0-173.0","0","0","39991","","null","","","null","19","","","","","","","","","","","","","","","",""
"","ISI","","html-keyboard-response","131","382870","0.0-1.0-174.0","0","0","39991","","null","","","null","19","NaN","","","","","","","","","","","","","","",""
"","S2","","html-keyboard-response","132","383123","0.0-1.0-175.0","0","0","39991","","null","","","null","19","","NaN","","","","","","","","","","","","","",""
"","response","","html-keyboard-response","133","383782","0.0-1.0-176.0","0","0","39991","","658","","","75","19","","","1","19","training","adjacent","FE","6","5","R.jpg","N.jpg","1","0","0","",""
"","feedback","","html-keyboard-response","134","384785","0.0-1.0-177.0-0.0","0","0","39991","","null","","","null","19","","","","","","","","","","","","","","","",""
"","time_out","","html-keyboard-response","135","386788","0.0-1.0-179.0-0.0","0","0","39991","","null","","","null","19","","","","","","","","","","","","","","","",""
"","ITI","","html-keyboard-response","136","387795","0.0-1.0-180.0","0","0","39991","","null","","","null","19","","","","","","","","","","","","","","","NaN",""
"","S1","","html-keyboard-response","137","388049","0.0-1.0-182.0","0","0","39991","","null","","","null","20","","","","","","","","","","","","","","","",""
"","ISI","","html-keyboard-response","138","390051","0.0-1.0-183.0","0","0","39991","","1517","","","68","20","d","","","","","","","","","","","","","","",""
"","S2","","html-keyboard-response","139","390304","0.0-1.0-184.0","0","0","39991","","null","","","null","20","","NaN","","","","","","","","","","","","","",""
"","response","","html-keyboard-response","140","391150","0.0-1.0-185.0","0","0","39991","","844","","","68","20","","","1","20","training","adjacent","ED","5","4","N.jpg","Q.jpg","0","0","1","",""
"","feedback","","html-keyboard-response","141","392153","0.0-1.0-186.0-0.0","0","0","39991","","null","","","null","20","","","","","","","","","","","","","","","",""
"","ITI","","html-keyboard-response","142","393156","0.0-1.0-189.0","0","0","39991","","null","","","null","20","","","","","","","","","","","","","","","NaN",""
"","S1","","html-keyboard-response","143","393409","0.0-1.0-191.0","0","0","39991","","null","","","null","21","","","","","","","","","","","","","","","",""
"","ISI","","html-keyboard-response","144","395412","0.0-1.0-192.0","0","0","39991","","1944","","","75","21","k","","","","","","","","","","","","","","",""
"","S2","","html-keyboard-response","145","395665","0.0-1.0-193.0","0","0","39991","","null","","","null","21","","NaN","","","","","","","","","","","","","",""
"","response","","html-keyboard-response","146","395805","0.0-1.0-194.0","0","0","39991","","138","","","75","21","","","1","21","training","adjacent","AB","1","2","L.jpg","O.jpg","1","1","1","",""
"","feedback","","html-keyboard-response","147","396809","0.0-1.0-195.0-0.0","0","0","39991","","null","","","null","21","","","","","","","","","","","","","","","",""
"","ITI","","html-keyboard-response","148","397825","0.0-1.0-198.0","0","0","39991","","null","","","null","21","","","","","","","","","","","","","","","NaN",""
"","S1","","html-keyboard-response","149","398079","0.0-1.0-200.0","0","0","39991","","null","","","null","22","","","","","","","","","","","","","","","",""
"","ISI","","html-keyboard-response","150","400081","0.0-1.0-201.0","0","0","39991","","null","","","null","22","NaN","","","","","","","","","","","","","","",""
"","S2","","html-keyboard-response","151","400333","0.0-1.0-202.0","0","0","39991","","null","","","null","22","","NaN","","","","","","","","","","","","","",""
"","response","","html-keyboard-response","152","401773","0.0-1.0-203.0","0","0","39991","","1438","","","75","22","","","1","22","training","adjacent","GF","7","6","M.jpg","R.jpg","1","0","0","",""
"","feedback","","html-keyboard-response","153","402777","0.0-1.0-204.0-0.0","0","0","39991","","null","","","null","22","","","","","","","","","","","","","","","",""
"","time_out","","html-keyboard-response","154","404780","0.0-1.0-206.0-0.0","0","0","39991","","null","","","null","22","","","","","","","","","","","","","","","",""
"","ITI","","html-keyboard-response","155","405783","0.0-1.0-207.0","0","0","39991","","null","","","null","22","","","","","","","","","","","","","","","NaN",""
"","S1","","html-keyboard-response","156","406036","0.0-1.0-209.0","0","0","39991","","null","","","null","23","","","","","","","","","","","","","","","",""
"","ISI","","html-keyboard-response","157","408039","0.0-1.0-210.0","0","0","39991","","null","","","null","23","NaN","","","","","","","","","","","","","","",""
"","S2","","html-keyboard-response","158","408291","0.0-1.0-211.0","0","0","39991","","null","","","null","23","","NaN","","","","","","","","","","","","","",""
"","response","","html-keyboard-response","159","408927","0.0-1.0-212.0","0","0","39991","","634","","","68","23","","","1","23","training","adjacent","ED","5","4","N.jpg","Q.jpg","0","0","1","",""
"","feedback","","html-keyboard-response","160","409930","0.0-1.0-213.0-0.0","0","0","39991","","null","","","null","23","","","","","","","","","","","","","","","",""
"","ITI","","html-keyboard-response","161","410933","0.0-1.0-216.0","0","0","39991","","null","","","null","23","","","","","","","","","","","","","","","NaN",""
"","S1","","html-keyboard-response","162","411186","0.0-1.0-218.0","0","0","39991","","null","","","null","24","","","","","","","","","","","","","","","",""
"","ISI","","html-keyboard-response","163","413190","0.0-1.0-219.0","0","0","39991","","null","","","null","24","NaN","","","","","","","","","","","","","","",""
"","S2","","html-keyboard-response","164","413444","0.0-1.0-220.0","0","0","39991","","null","","","null","24","","NaN","","","","","","","","","","","","","",""
"","response","","html-keyboard-response","165","414575","0.0-1.0-221.0","0","0","39991","","1128","","","75","24","","","1","24","training","adjacent","ED","5","4","N.jpg","Q.jpg","1","0","0","",""
"","feedback","","html-keyboard-response","166","415578","0.0-1.0-222.0-0.0","0","0","39991","","null","","","null","24","","","","","","","","","","","","","","","",""
"","time_out","","html-keyboard-response","167","417581","0.0-1.0-224.0-0.0","0","0","39991","","null","","","null","24","","","","","","","","","","","","","","","",""
"","ITI","","html-keyboard-response","168","418584","0.0-1.0-225.0","0","0","39991","","null","","","null","24","","","","","","","","","","","","","","","NaN",""
"","S1","","html-keyboard-response","169","418837","0.0-1.0-227.0","0","0","39991","","null","","","null","25","","","","","","","","","","","","","","","",""
"","ISI","","html-keyboard-response","170","420840","0.0-1.0-228.0","0","0","39991","","null","","","null","25","NaN","","","","","","","","","","","","","","",""
"","S2","","html-keyboard-response","171","421092","0.0-1.0-229.0","0","0","39991","","null","","","null","25","","NaN","","","","","","","","","","","","","",""
"","response","","html-keyboard-response","172","421680","0.0-1.0-230.0","0","0","39991","","587","","","68","25","","","1","25","training","adjacent","BA","2","1","O.jpg","L.jpg","0","0","1","",""
"","feedback","","html-keyboard-response","173","422683","0.0-1.0-231.0-0.0","0","0","39991","","null","","","null","25","","","","","","","","","","","","","","","",""
"","ITI","","html-keyboard-response","174","423685","0.0-1.0-234.0","0","0","39991","","null","","","null","25","","","","","","","","","","","","","","","NaN",""
"","S1","","html-keyboard-response","175","423942","0.0-1.0-236.0","0","0","39991","","null","","","null","26","","","","","","","","","","","","","","","",""
"","ISI","","html-keyboard-response","176","425945","0.0-1.0-237.0","0","0","39991","","null","","","null","26","NaN","","","","","","","","","","","","","","",""
"","S2","","html-keyboard-response","177","426198","0.0-1.0-238.0","0","0","39991","","null","","","null","26","","NaN","","","","","","","","","","","","","",""
"","response","","html-keyboard-response","178","427199","0.0-1.0-239.0","0","0","39991","","999","","","75","26","","","1","26","training","adjacent","DE","4","5","Q.jpg","N.jpg","1","1","1","",""
"","feedback","","html-keyboard-response","179","428202","0.0-1.0-240.0-0.0","0","0","39991","","null","","","null","26","","","","","","","","","","","","","","","",""
"","ITI","","html-keyboard-response","180","429206","0.0-1.0-243.0","0","0","39991","","null","","","null","26","","","","","","","","","","","","","","","NaN",""
"","S1","","html-keyboard-response","181","429459","0.0-1.0-245.0","0","0","39991","","null","","","null","27","","","","","","","","","","","","","","","",""
"","ISI","","html-keyboard-response","182","431463","0.0-1.0-246.0","0","0","39991","","null","","","null","27","NaN","","","","","","","","","","","","","","",""
"","S2","","html-keyboard-response","183","431717","0.0-1.0-247.0","0","0","39991","","null","","","null","27","","NaN","","","","","","","","","","","","","",""
"","response","","html-keyboard-response","184","431884","0.0-1.0-248.0","0","0","39991","","165","","","68","27","","","1","27","training","adjacent","ED","5","4","N.jpg","Q.jpg","0","0","1","",""
"","feedback","","html-keyboard-response","185","432887","0.0-1.0-249.0-0.0","0","0","39991","","null","","","null","27","","","","","","","","","","","","","","","",""
"","ITI","","html-keyboard-response","186","433891","0.0-1.0-252.0","0","0","39991","","null","","","null","27","","","","","","","","","","","","","","","NaN",""
"","S1","","html-keyboard-response","187","434144","0.0-1.0-254.0","0","0","39991","","null","","","null","28","","","","","","","","","","","","","","","",""
"","ISI","","html-keyboard-response","188","436146","0.0-1.0-255.0","0","0","39991","","null","","","null","28","NaN","","","","","","","","","","","","","","",""
"","S2","","html-keyboard-response","189","436399","0.0-1.0-256.0","0","0","39991","","null","","","null","28","","NaN","","","","","","","","","","","","","",""
"","response","","html-keyboard-response","190","437142","0.0-1.0-257.0","0","0","39991","","741","","","75","28","","","1","28","training","adjacent","BA","2","1","O.jpg","L.jpg","1","0","0","",""
"","feedback","","html-keyboard-response","191","438145","0.0-1.0-258.0-0.0","0","0","39991","","null","","","null","28","","","","","","","","","","","","","","","",""
"","time_out","","html-keyboard-response","192","440148","0.0-1.0-260.0-0.0","0","0","39991","","null","","","null","28","","","","","","","","","","","","","","","",""
"","ITI","","html-keyboard-response","193","441151","0.0-1.0-261.0","0","0","39991","","null","","","null","28","","","","","","","","","","","","","","","NaN",""
"","S1","","html-keyboard-response","194","441404","0.0-1.0-263.0","0","0","39991","","null","","","null","29","","","","","","","","","","","","","","","",""
"","ISI","","html-keyboard-response","195","443408","0.0-1.0-264.0","0","0","39991","","null","","","null","29","NaN","","","","","","","","","","","","","","",""
"","S2","","html-keyboard-response","196","443661","0.0-1.0-265.0","0","0","39991","","null","","","null","29","","NaN","","","","","","","","","","","","","",""
"","response","","html-keyboard-response","197","444692","0.0-1.0-266.0","0","0","39991","","1029","","","68","29","","","1","29","training","adjacent","DC","4","3","Q.jpg","P.jpg","0","0","1","",""
"","feedback","","html-keyboard-response","198","445696","0.0-1.0-267.0-0.0","0","0","39991","","null","","","null","29","","","","","","","","","","","","","","","",""
"","ITI","","html-keyboard-response","199","446699","0.0-1.0-270.0","0","0","39991","","null","","","null","29","","","","","","","","","","","","","","","NaN",""
"","S1","","html-keyboard-response","200","446952","0.0-1.0-272.0","0","0","39991","","null","","","null","30","","","","","","","","","","","","","","","",""
"","ISI","","html-keyboard-response","201","448955","0.0-1.0-273.0","0","0","39991","","null","","","null","30","NaN","","","","","","","","","","","","","","",""
"","S2","","html-keyboard-response","202","449209","0.0-1.0-274.0","0","0","39991","","null","","","null","30","","NaN","","","","","","","","","","","","","",""
"","response","","html-keyboard-response","203","449961","0.0-1.0-275.0","0","0","39991","","751","","","68","30","","","1","30","training","adjacent","DC","4","3","Q.jpg","P.jpg","0","0","1","",""
"","feedback","","html-keyboard-response","204","450964","0.0-1.0-276.0-0.0","0","0","39991","","null","","","null","30","","","","","","","","","","","","","","","",""
"","ITI","","html-keyboard-response","205","451966","0.0-1.0-279.0","0","0","39991","","null","","","null","30","","","","","","","","","","","","","","","NaN",""
"","S1","","html-keyboard-response","206","452224","0.0-1.0-281.0","0","0","39991","","null","","","null","31","","","","","","","","","","","","","","","",""
"","ISI","","html-keyboard-response","207","454226","0.0-1.0-282.0","0","0","39991","","null","","","null","31","NaN","","","","","","","","","","","","","","",""
"","S2","","html-keyboard-response","208","454480","0.0-1.0-283.0","0","0","39991","","null","","","null","31","","NaN","","","","","","","","","","","","","",""
"","response","","html-keyboard-response","209","455622","0.0-1.0-284.0","0","0","39991","","1140","","","75","31","","","1","31","training","adjacent","CB","3","2","P.jpg","O.jpg","1","0","0","",""
"","feedback","","html-keyboard-response","210","456625","0.0-1.0-285.0-0.0","0","0","39991","","null","","","null","31","","","","","","","","","","","","","","","",""
"","time_out","","html-keyboard-response","211","458627","0.0-1.0-287.0-0.0","0","0","39991","","null","","","null","31","","","","","","","","","","","","","","","",""
"","ITI","","html-keyboard-response","212","459629","0.0-1.0-288.0","0","0","39991","","null","","","null","31","","","","","","","","","","","","","","","NaN",""
"","S1","","html-keyboard-response","213","459883","0.0-1.0-290.0","0","0","39991","","null","","","null","32","","","","","","","","","","","","","","","",""
"","ISI","","html-keyboard-response","214","461886","0.0-1.0-291.0","0","0","39991","","null","","","null","32","NaN","","","","","","","","","","","","","","",""
"","S2","","html-keyboard-response","215","462138","0.0-1.0-292.0","0","0","39991","","null","","","null","32","","NaN","","","","","","","","","","","","","",""
"","response","","html-keyboard-response","216","462263","0.0-1.0-293.0","0","0","39991","","123","","","75","32","","","1","32","training","adjacent","FG","6","7","R.jpg","M.jpg","1","1","1","",""
"","feedback","","html-keyboard-response","217","463265","0.0-1.0-294.0-0.0","0","0","39991","","null","","","null","32","","","","","","","","","","","","","","","",""
"","ITI","","html-keyboard-response","218","464268","0.0-1.0-297.0","0","0","39991","","null","","","null","32","","","","","","","","","","","","","","","NaN",""
"","S1","","html-keyboard-response","219","464520","0.0-1.0-299.0","0","0","39991","","null","","","null","33","","","","","","","","","","","","","","","",""
"","ISI","","html-keyboard-response","220","466524","0.0-1.0-300.0","0","0","39991","","null","","","null","33","NaN","","","","","","","","","","","","","","",""
"","S2","","html-keyboard-response","221","466790","0.0-1.0-301.0","0","0","39991","","null","","","null","33","","NaN","","","","","","","","","","","","","",""
"","response","","html-keyboard-response","222","467258","0.0-1.0-302.0","0","0","39991","","466","","","68","33","","","1","33","training","adjacent","EF","5","6","N.jpg","R.jpg","0","1","0","",""
"","feedback","","html-keyboard-response","223","468261","0.0-1.0-303.0-0.0","0","0","39991","","null","","","null","33","","","","","","","","","","","","","","","",""
"","time_out","","html-keyboard-response","224","470264","0.0-1.0-305.0-0.0","0","0","39991","","null","","","null","33","","","","","","","","","","","","","","","",""
"","ITI","","html-keyboard-response","225","471268","0.0-1.0-306.0","0","0","39991","","null","","","null","33","","","","","","","","","","","","","","","NaN",""
"","S1","","html-keyboard-response","226","471521","0.0-1.0-308.0","0","0","39991","","null","","","null","34","","","","","","","","","","","","","","","",""
"","ISI","","html-keyboard-response","227","473524","0.0-1.0-309.0","0","0","39991","","null","","","null","34","NaN","","","","","","","","","","","","","","",""
"","S2","","html-keyboard-response","228","473777","0.0-1.0-310.0","0","0","39991","","null","","","null","34","","NaN","","","","","","","","","","","","","",""
"","response","","html-keyboard-response","229","473786","0.0-1.0-311.0","0","0","39991","","7","","","68","34","","","1","34","training","adjacent","BC","2","3","O.jpg","P.jpg","0","1","0","",""
"","feedback","","html-keyboard-response","230","474789","0.0-1.0-312.0-0.0","0","0","39991","","null","","","null","34","","","","","","","","","","","","","","","",""
"","time_out","","html-keyboard-response","231","476792","0.0-1.0-314.0-0.0","0","0","39991","","null","","","null","34","","","","","","","","","","","","","","","",""
"","ITI","","html-keyboard-response","232","477795","0.0-1.0-315.0","0","0","39991","","null","","","null","34","","","","","","","","","","","","","","","NaN",""
"","S1","","html-keyboard-response","233","478048","0.0-1.0-317.0","0","0","39991","","null","","","null","35","","","","","","","","","","","","","","","",""
"","ISI","","html-keyboard-response","234","480050","0.0-1.0-318.0","0","0","39991","","null","","","null","35","NaN","","","","","","","","","","","","","","",""
"","S2","","html-keyboard-response","235","480304","0.0-1.0-319.0","0","0","39991","","null","","","null","35","","NaN","","","","","","","","","","","","","",""
"","response","","html-keyboard-response","236","480635","0.0-1.0-320.0","0","0","39991","","330","","","75","35","","","1","35","training","adjacent","CD","3","4","P.jpg","Q.jpg","1","1","1","",""
"","feedback","","html-keyboard-response","237","481639","0.0-1.0-321.0-0.0","0","0","39991","","null","","","null","35","","","","","","","","","","","","","","","",""
"","ITI","","html-keyboard-response","238","482643","0.0-1.0-324.0","0","0","39991","","null","","","null","35","","","","","","","","","","","","","","","NaN",""
"","S1","","html-keyboard-response","239","482897","0.0-1.0-326.0","0","0","39991","","null","","","null","36","","","","","","","","","","","","","","","",""
"","ISI","","html-keyboard-response","240","484899","0.0-1.0-327.0","0","0","39991","","null","","","null","36","NaN","","","","","","","","","","","","","","",""
"","S2","","html-keyboard-response","241","485153","0.0-1.0-328.0","0","0","39991","","null","","","null","36","","NaN","","","","","","","","","","","","","",""
"","response","","html-keyboard-response","242","485780","0.0-1.0-329.0","0","0","39991","","626","","","68","36","","","1","36","training","adjacent","EF","5","6","N.jpg","R.jpg","0","1","0","",""
"","feedback","","html-keyboard-response","243","486785","0.0-1.0-330.0-0.0","0","0","39991","","null","","","null","36","","","","","","","","","","","","","","","",""
"","time_out","","html-keyboard-response","244","488787","0.0-1.0-332.0-0.0","0","0","39991","","null","","","null","36","","","","","","","","","","","","","","","",""
"","ITI","","html-keyboard-response","245","489798","0.0-1.0-333.0","0","0","39991","","467","","","68","36","","","","","","","","","","","","","","","d",""
"","S1","","html-keyboard-response","246","490051","0.0-1.0-335.0","0","0","39991","","null","","","null","37","","","","","","","","","","","","","","","",""
"","ISI","","html-keyboard-response","247","492054","0.0-1.0-336.0","0","0","39991","","null","","","null","37","NaN","","","","","","","","","","","","","","",""
"","S2","","html-keyboard-response","248","492307","0.0-1.0-337.0","0","0","39991","","null","","","null","37","","NaN","","","","","","","","","","","","","",""
"","response","","html-keyboard-response","249","492685","0.0-1.0-338.0","0","0","39991","","375","","","75","37","","","1","37","training","adjacent","DE","4","5","Q.jpg","N.jpg","1","1","1","",""
"","feedback","","html-keyboard-response","250","493689","0.0-1.0-339.0-0.0","0","0","39991","","null","","","null","37","","","","","","","","","","","","","","","",""
"","ITI","","html-keyboard-response","251","494692","0.0-1.0-342.0","0","0","39991","","null","","","null","37","","","","","","","","","","","","","","","NaN",""
"","S1","","html-keyboard-response","252","494945","0.0-1.0-344.0","0","0","39991","","null","","","null","38","","","","","","","","","","","","","","","",""
"","ISI","","html-keyboard-response","253","496948","0.0-1.0-345.0","0","0","39991","","null","","","null","38","NaN","","","","","","","","","","","","","","",""
"","S2","","html-keyboard-response","254","497200","0.0-1.0-346.0","0","0","39991","","null","","","null","38","","NaN","","","","","","","","","","","","","",""
"","response","","html-keyboard-response","255","498270","0.0-1.0-347.0","0","0","39991","","1068","","","68","38","","","1","38","training","adjacent","FG","6","7","R.jpg","M.jpg","0","1","0","",""
"","feedback","","html-keyboard-response","256","499274","0.0-1.0-348.0-0.0","0","0","39991","","null","","","null","38","","","","","","","","","","","","","","","",""
"","time_out","","html-keyboard-response","257","501278","0.0-1.0-350.0-0.0","0","0","39991","","null","","","null","38","","","","","","","","","","","","","","","",""
"","ITI","","html-keyboard-response","258","502281","0.0-1.0-351.0","0","0","39991","","null","","","null","38","","","","","","","","","","","","","","","NaN",""
"","S1","","html-keyboard-response","259","502535","0.0-1.0-353.0","0","0","39991","","null","","","null","39","","","","","","","","","","","","","","","",""
"","ISI","","html-keyboard-response","260","504537","0.0-1.0-354.0","0","0","39991","","1656","","","75","39","k","","","","","","","","","","","","","","",""
"","S2","","html-keyboard-response","261","504790","0.0-1.0-355.0","0","0","39991","","null","","","null","39","","NaN","","","","","","","","","","","","","",""
"","response","","html-keyboard-response","262","504795","0.0-1.0-356.0","0","0","39991","","3","","","75","39","","","1","39","training","adjacent","DC","4","3","Q.jpg","P.jpg","1","0","0","",""
"","feedback","","html-keyboard-response","263","505799","0.0-1.0-357.0-0.0","0","0","39991","","null","","","null","39","","","","","","","","","","","","","","","",""
"","time_out","","html-keyboard-response","264","507802","0.0-1.0-359.0-0.0","0","0","39991","","null","","","null","39","","","","","","","","","","","","","","","",""
"","ITI","","html-keyboard-response","265","508805","0.0-1.0-360.0","0","0","39991","","null","","","null","39","","","","","","","","","","","","","","","NaN",""
"","S1","","html-keyboard-response","266","509058","0.0-1.0-362.0","0","0","39991","","null","","","null","40","","","","","","","","","","","","","","","",""
"","ISI","","html-keyboard-response","267","511061","0.0-1.0-363.0","0","0","39991","","null","","","null","40","NaN","","","","","","","","","","","","","","",""
"","S2","","html-keyboard-response","268","511314","0.0-1.0-364.0","0","0","39991","","null","","","null","40","","NaN","","","","","","","","","","","","","",""
"","response","","html-keyboard-response","269","511377","0.0-1.0-365.0","0","0","39991","","60","","","68","40","","","1","40","training","adjacent","CD","3","4","P.jpg","Q.jpg","0","1","0","",""
"","feedback","","html-keyboard-response","270","512382","0.0-1.0-366.0-0.0","0","0","39991","","null","","","null","40","","","","","","","","","","","","","","","",""
"","time_out","","html-keyboard-response","271","514385","0.0-1.0-368.0-0.0","0","0","39991","","null","","","null","40","","","","","","","","","","","","","","","",""
"","ITI","","html-keyboard-response","272","515387","0.0-1.0-369.0","0","0","39991","","null","","","null","40","","","","","","","","","","","","","","","NaN",""
"","S1","","html-keyboard-response","273","515641","0.0-1.0-371.0","0","0","39991","","null","","","null","41","","","","","","","","","","","","","","","",""
"","ISI","","html-keyboard-response","274","517643","0.0-1.0-372.0","0","0","39991","","null","","","null","41","NaN","","","","","","","","","","","","","","",""
"","S2","","html-keyboard-response","275","517897","0.0-1.0-373.0","0","0","39991","","null","","","null","41","","NaN","","","","","","","","","","","","","",""
"","response","","html-keyboard-response","276","517982","0.0-1.0-374.0","0","0","39991","","84","","","75","41","","","1","41","training","adjacent","EF","5","6","N.jpg","R.jpg","1","1","1","",""
"","feedback","","html-keyboard-response","277","518986","0.0-1.0-375.0-0.0","0","0","39991","","null","","","null","41","","","","","","","","","","","","","","","",""
"","ITI","","html-keyboard-response","278","519989","0.0-1.0-378.0","0","0","39991","","null","","","null","41","","","","","","","","","","","","","","","NaN",""
"","S1","","html-keyboard-response","279","520241","0.0-1.0-380.0","0","0","39991","","null","","","null","42","","","","","","","","","","","","","","","",""
"","ISI","","html-keyboard-response","280","522245","0.0-1.0-381.0","0","0","39991","","null","","","null","42","NaN","","","","","","","","","","","","","","",""
"","S2","","html-keyboard-response","281","522498","0.0-1.0-382.0","0","0","39991","","null","","","null","42","","NaN","","","","","","","","","","","","","",""
"","response","","html-keyboard-response","282","523060","0.0-1.0-383.0","0","0","39991","","559","","","68","42","","","1","42","training","adjacent","CB","3","2","P.jpg","O.jpg","0","0","1","",""
"","feedback","","html-keyboard-response","283","524066","0.0-1.0-384.0-0.0","0","0","39991","","null","","","null","42","","","","","","","","","","","","","","","",""
"","ITI","","html-keyboard-response","284","525069","0.0-1.0-387.0","0","0","39991","","null","","","null","42","","","","","","","","","","","","","","","NaN",""
"","S1","","html-keyboard-response","285","525334","0.0-1.0-389.0","0","0","39991","","null","","","null","43","","","","","","","","","","","","","","","",""
"","ISI","","html-keyboard-response","286","527336","0.0-1.0-390.0","0","0","39991","","null","","","null","43","NaN","","","","","","","","","","","","","","",""
"","S2","","html-keyboard-response","287","527589","0.0-1.0-391.0","0","0","39991","","null","","","null","43","","NaN","","","","","","","","","","","","","",""
"","response","","html-keyboard-response","288","527756","0.0-1.0-392.0","0","0","39991","","164","","","75","43","","","1","43","training","adjacent","BC","2","3","O.jpg","P.jpg","1","1","1","",""
"","feedback","","html-keyboard-response","289","528758","0.0-1.0-393.0-0.0","0","0","39991","","null","","","null","43","","","","","","","","","","","","","","","",""
"","ITI","","html-keyboard-response","290","529761","0.0-1.0-396.0","0","0","39991","","null","","","null","43","","","","","","","","","","","","","","","NaN",""
"","S1","","html-keyboard-response","291","530014","0.0-1.0-398.0","0","0","39991","","null","","","null","44","","","","","","","","","","","","","","","",""
"","ISI","","html-keyboard-response","292","532017","0.0-1.0-399.0","0","0","39991","","null","","","null","44","NaN","","","","","","","","","","","","","","",""
"","S2","","html-keyboard-response","293","532269","0.0-1.0-400.0","0","0","39991","","null","","","null","44","","NaN","","","","","","","","","","","","","",""
"","response","","html-keyboard-response","294","532945","0.0-1.0-401.0","0","0","39991","","674","","","68","44","","","1","44","training","adjacent","FG","6","7","R.jpg","M.jpg","0","1","0","",""
"","feedback","","html-keyboard-response","295","533949","0.0-1.0-402.0-0.0","0","0","39991","","null","","","null","44","","","","","","","","","","","","","","","",""
"","time_out","","html-keyboard-response","296","535952","0.0-1.0-404.0-0.0","0","0","39991","","null","","","null","44","","","","","","","","","","","","","","","",""
"","ITI","","html-keyboard-response","297","536963","0.0-1.0-405.0","0","0","39991","","null","","","null","44","","","","","","","","","","","","","","","NaN",""
"","S1","","html-keyboard-response","298","537216","0.0-1.0-407.0","0","0","39991","","null","","","null","45","","","","","","","","","","","","","","","",""
"","ISI","","html-keyboard-response","299","539220","0.0-1.0-408.0","0","0","39991","","null","","","null","45","NaN","","","","","","","","","","","","","","",""
"","S2","","html-keyboard-response","300","539473","0.0-1.0-409.0","0","0","39991","","null","","","null","45","","NaN","","","","","","","","","","","","","",""
"","response","","html-keyboard-response","301","539611","0.0-1.0-410.0","0","0","39991","","136","","","68","45","","","1","45","training","adjacent","DE","4","5","Q.jpg","N.jpg","0","1","0","",""
"","feedback","","html-keyboard-response","302","540614","0.0-1.0-411.0-0.0","0","0","39991","","null","","","null","45","","","","","","","","","","","","","","","",""
"","time_out","","html-keyboard-response","303","542616","0.0-1.0-413.0-0.0","0","0","39991","","null","","","null","45","","","","","","","","","","","","","","","",""
"","ITI","","html-keyboard-response","304","543620","0.0-1.0-414.0","0","0","39991","","null","","","null","45","","","","","","","","","","","","","","","NaN",""
"","S1","","html-keyboard-response","305","543873","0.0-1.0-416.0","0","0","39991","","null","","","null","46","","","","","","","","","","","","","","","",""
"","ISI","","html-keyboard-response","306","545876","0.0-1.0-417.0","0","0","39991","","null","","","null","46","NaN","","","","","","","","","","","","","","",""
"","S2","","html-keyboard-response","307","546128","0.0-1.0-418.0","0","0","39991","","null","","","null","46","","NaN","","","","","","","","","","","","","",""
"","response","","html-keyboard-response","308","546717","0.0-1.0-419.0","0","0","39991","","587","","","75","46","","","1","46","training","adjacent","BC","2","3","O.jpg","P.jpg","1","1","1","",""
"","feedback","","html-keyboard-response","309","547720","0.0-1.0-420.0-0.0","0","0","39991","","null","","","null","46","","","","","","","","","","","","","","","",""
"","ITI","","html-keyboard-response","310","548723","0.0-1.0-423.0","0","0","39991","","null","","","null","46","","","","","","","","","","","","","","","NaN",""
"","S1","","html-keyboard-response","311","548977","0.0-1.0-425.0","0","0","39991","","null","","","null","47","","","","","","","","","","","","","","","",""
"","ISI","","html-keyboard-response","312","550981","0.0-1.0-426.0","0","0","39991","","null","","","null","47","NaN","","","","","","","","","","","","","","",""
"","S2","","html-keyboard-response","313","551235","0.0-1.0-427.0","0","0","39991","","null","","","null","47","","NaN","","","","","","","","","","","","","",""
"","response","","html-keyboard-response","314","551707","0.0-1.0-428.0","0","0","39991","","470","","","75","47","","","1","47","training","adjacent","AB","1","2","L.jpg","O.jpg","1","1","1","",""
"","feedback","","html-keyboard-response","315","552711","0.0-1.0-429.0-0.0","0","0","39991","","null","","","null","47","","","","","","","","","","","","","","","",""
"","ITI","","html-keyboard-response","316","553715","0.0-1.0-432.0","0","0","39991","","null","","","null","47","","","","","","","","","","","","","","","NaN",""
"","block_over","","html-keyboard-response","317","556365","0.0-1.0-433.0-0.0","0","0","39991","","2648","","","32","47","","","","","","","","","","","","","","","",""
"","S1","","html-keyboard-response","318","556619","0.0-1.0-434.0","0","0","39991","","null","","","null","48","","","","","","","","","","","","","","","",""
"","ISI","","html-keyboard-response","319","558622","0.0-1.0-435.0","0","0","39991","","1559","","","68","48","d","","","","","","","","","","","","","","",""
"","S2","","html-keyboard-response","320","558874","0.0-1.0-436.0","0","0","39991","","null","","","null","48","","NaN","","","","","","","","","","","","","",""
"","response","","html-keyboard-response","321","559286","0.0-1.0-437.0","0","0","39991","","409","","","68","48","","","2","48","training","adjacent","DE","4","5","Q.jpg","N.jpg","0","1","0","",""
"","feedback","","html-keyboard-response","322","560288","0.0-1.0-438.0-0.0","0","0","39991","","null","","","null","48","","","","","","","","","","","","","","","",""
"","time_out","","html-keyboard-response","323","562291","0.0-1.0-440.0-0.0","0","0","39991","","null","","","null","48","","","","","","","","","","","","","","","",""
"","ITI","","html-keyboard-response","324","563293","0.0-1.0-441.0","0","0","39991","","null","","","null","48","","","","","","","","","","","","","","","NaN",""
"","S1","","html-keyboard-response","325","563550","0.0-1.0-443.0","0","0","39991","","null","","","null","49","","","","","","","","","","","","","","","",""
"","ISI","","html-keyboard-response","326","565557","0.0-1.0-444.0","0","0","39991","","1258","","","75","49","k","","","","","","","","","","","","","","",""
"","S2","","html-keyboard-response","327","565810","0.0-1.0-445.0","0","0","39991","","null","","","null","49","","NaN","","","","","","","","","","","","","",""
"","response","","html-keyboard-response","328","565896","0.0-1.0-446.0","0","0","39991","","85","","","75","49","","","2","49","training","adjacent","DE","4","5","Q.jpg","N.jpg","1","1","1","",""
"","feedback","","html-keyboard-response","329","566899","0.0-1.0-447.0-0.0","0","0","39991","","null","","","null","49","","","","","","","","","","","","","","","",""
"","ITI","","html-keyboard-response","330","567907","0.0-1.0-450.0","0","0","39991","","null","","","null","49","","","","","","","","","","","","","","","NaN",""
"","S1","","html-keyboard-response","331","568160","0.0-1.0-452.0","0","0","39991","","null","","","null","50","","","","","","","","","","","","","","","",""
"","ISI","","html-keyboard-response","332","570162","0.0-1.0-453.0","0","0","39991","","null","","","null","50","NaN","","","","","","","","","","","","","","",""
"","S2","","html-keyboard-response","333","570415","0.0-1.0-454.0","0","0","39991","","null","","","null","50","","NaN","","","","","","","","","","","","","",""
"","response","","html-keyboard-response","334","571303","0.0-1.0-455.0","0","0","39991","","885","","","68","50","","","2","50","training","adjacent","ED","5","4","N.jpg","Q.jpg","0","0","1","",""
"","feedback","","html-keyboard-response","335","572306","0.0-1.0-456.0-0.0","0","0","39991","","null","","","null","50","","","","","","","","","","","","","","","",""
"","ITI","","html-keyboard-response","336","573309","0.0-1.0-459.0","0","0","39991","","null","","","null","50","","","","","","","","","","","","","","","NaN",""
"","S1","","html-keyboard-response","337","573562","0.0-1.0-461.0","0","0","39991","","null","","","null","51","","","","","","","","","","","","","","","",""
"","ISI","","html-keyboard-response","338","575564","0.0-1.0-462.0","0","0","39991","","null","","","null","51","NaN","","","","","","","","","","","","","","",""
"","S2","","html-keyboard-response","339","575816","0.0-1.0-463.0","0","0","39991","","null","","","null","51","","NaN","","","","","","","","","","","","","",""
"","response","","html-keyboard-response","340","576285","0.0-1.0-464.0","0","0","39991","","466","","","75","51","","","2","51","training","adjacent","FE","6","5","R.jpg","N.jpg","1","0","0","",""
"","feedback","","html-keyboard-response","341","577288","0.0-1.0-465.0-0.0","0","0","39991","","null","","","null","51","","","","","","","","","","","","","","","",""
"","time_out","","html-keyboard-response","342","579291","0.0-1.0-467.0-0.0","0","0","39991","","null","","","null","51","","","","","","","","","","","","","","","",""
"","ITI","","html-keyboard-response","343","580309","0.0-1.0-468.0","0","0","39991","","null","","","null","51","","","","","","","","","","","","","","","NaN",""
"","S1","","html-keyboard-response","344","580562","0.0-1.0-470.0","0","0","39991","","null","","","null","52","","","","","","","","","","","","","","","",""
"","ISI","","html-keyboard-response","345","582564","0.0-1.0-471.0","0","0","39991","","null","","","null","52","NaN","","","","","","","","","","","","","","",""
"","S2","","html-keyboard-response","346","582817","0.0-1.0-472.0","0","0","39991","","null","","","null","52","","NaN","","","","","","","","","","","","","",""
"","response","","html-keyboard-response","347","583245","0.0-1.0-473.0","0","0","39991","","426","","","75","52","","","2","52","training","adjacent","DC","4","3","Q.jpg","P.jpg","1","0","0","",""
"","feedback","","html-keyboard-response","348","584248","0.0-1.0-474.0-0.0","0","0","39991","","null","","","null","52","","","","","","","","","","","","","","","",""
"","time_out","","html-keyboard-response","349","586252","0.0-1.0-476.0-0.0","0","0","39991","","null","","","null","52","","","","","","","","","","","","","","","",""
"","ITI","","html-keyboard-response","350","587260","0.0-1.0-477.0","0","0","39991","","null","","","null","52","","","","","","","","","","","","","","","NaN",""
"","S1","","html-keyboard-response","351","587512","0.0-1.0-479.0","0","0","39991","","null","","","null","53","","","","","","","","","","","","","","","",""
"","ISI","","html-keyboard-response","352","589515","0.0-1.0-480.0","0","0","39991","","null","","","null","53","NaN","","","","","","","","","","","","","","",""
"","S2","","html-keyboard-response","353","589768","0.0-1.0-481.0","0","0","39991","","null","","","null","53","","NaN","","","","","","","","","","","","","",""
"","response","","html-keyboard-response","354","589859","0.0-1.0-482.0","0","0","39991","","90","","","68","53","","","2","53","training","adjacent","DE","4","5","Q.jpg","N.jpg","0","1","0","",""
"","feedback","","html-keyboard-response","355","590861","0.0-1.0-483.0-0.0","0","0","39991","","null","","","null","53","","","","","","","","","","","","","","","",""
"","time_out","","html-keyboard-response","356","592864","0.0-1.0-485.0-0.0","0","0","39991","","null","","","null","53","","","","","","","","","","","","","","","",""
"","ITI","","html-keyboard-response","357","593867","0.0-1.0-486.0","0","0","39991","","null","","","null","53","","","","","","","","","","","","","","","NaN",""
"","S1","","html-keyboard-response","358","594121","0.0-1.0-488.0","0","0","39991","","null","","","null","54","","","","","","","","","","","","","","","",""
"","ISI","","html-keyboard-response","359","596123","0.0-1.0-489.0","0","0","39991","","null","","","null","54","NaN","","","","","","","","","","","","","","",""
"","S2","","html-keyboard-response","360","596376","0.0-1.0-490.0","0","0","39991","","null","","","null","54","","NaN","","","","","","","","","","","","","",""
"","response","","html-keyboard-response","361","596888","0.0-1.0-491.0","0","0","39991","","511","","","75","54","","","2","54","training","adjacent","AB","1","2","L.jpg","O.jpg","1","1","1","",""
"","feedback","","html-keyboard-response","362","597892","0.0-1.0-492.0-0.0","0","0","39991","","null","","","null","54","","","","","","","","","","","","","","","",""
"","ITI","","html-keyboard-response","363","598895","0.0-1.0-495.0","0","0","39991","","null","","","null","54","","","","","","","","","","","","","","","NaN",""
"","S1","","html-keyboard-response","364","599148","0.0-1.0-497.0","0","0","39991","","null","","","null","55","","","","","","","","","","","","","","","",""
"","ISI","","html-keyboard-response","365","601150","0.0-1.0-498.0","0","0","39991","","null","","","null","55","NaN","","","","","","","","","","","","","","",""
"","S2","","html-keyboard-response","366","601404","0.0-1.0-499.0","0","0","39991","","null","","","null","55","","NaN","","","","","","","","","","","","","",""
"","response","","html-keyboard-response","367","601713","0.0-1.0-500.0","0","0","39991","","307","","","75","55","","","2","55","training","adjacent","BC","2","3","O.jpg","P.jpg","1","1","1","",""
"","feedback","","html-keyboard-response","368","602717","0.0-1.0-501.0-0.0","0","0","39991","","null","","","null","55","","","","","","","","","","","","","","","",""
"","ITI","","html-keyboard-response","369","603721","0.0-1.0-504.0","0","0","39991","","null","","","null","55","","","","","","","","","","","","","","","NaN",""
"","S1","","html-keyboard-response","370","603974","0.0-1.0-506.0","0","0","39991","","null","","","null","56","","","","","","","","","","","","","","","",""
"","ISI","","html-keyboard-response","371","605977","0.0-1.0-507.0","0","0","39991","","null","","","null","56","NaN","","","","","","","","","","","","","","",""
"","S2","","html-keyboard-response","372","606230","0.0-1.0-508.0","0","0","39991","","null","","","null","56","","NaN","","","","","","","","","","","","","",""
"","response","","html-keyboard-response","373","606813","0.0-1.0-509.0","0","0","39991","","581","","","75","56","","","2","56","training","adjacent","AB","1","2","L.jpg","O.jpg","1","1","1","",""
"","feedback","","html-keyboard-response","374","607815","0.0-1.0-510.0-0.0","0","0","39991","","null","","","null","56","","","","","","","","","","","","","","","",""
"","ITI","","html-keyboard-response","375","608819","0.0-1.0-513.0","0","0","39991","","null","","","null","56","","","","","","","","","","","","","","","NaN",""
"","S1","","html-keyboard-response","376","609072","0.0-1.0-515.0","0","0","39991","","null","","","null","57","","","","","","","","","","","","","","","",""
"","ISI","","html-keyboard-response","377","611075","0.0-1.0-516.0","0","0","39991","","null","","","null","57","NaN","","","","","","","","","","","","","","",""
"","S2","","html-keyboard-response","378","611328","0.0-1.0-517.0","0","0","39991","","null","","","null","57","","NaN","","","","","","","","","","","","","",""
"","response","","html-keyboard-response","379","611653","0.0-1.0-518.0","0","0","39991","","322","","","75","57","","","2","57","training","adjacent","BA","2","1","O.jpg","L.jpg","1","0","0","",""
"","feedback","","html-keyboard-response","380","612657","0.0-1.0-519.0-0.0","0","0","39991","","null","","","null","57","","","","","","","","","","","","","","","",""
"","time_out","","html-keyboard-response","381","614660","0.0-1.0-521.0-0.0","0","0","39991","","null","","","null","57","","","","","","","","","","","","","","","",""
"","ITI","","html-keyboard-response","382","615663","0.0-1.0-522.0","0","0","39991","","null","","","null","57","","","","","","","","","","","","","","","NaN",""
"","S1","","html-keyboard-response","383","615916","0.0-1.0-524.0","0","0","39991","","null","","","null","58","","","","","","","","","","","","","","","",""
"","ISI","","html-keyboard-response","384","617917","0.0-1.0-525.0","0","0","39991","","null","","","null","58","NaN","","","","","","","","","","","","","","",""
"","S2","","html-keyboard-response","385","618171","0.0-1.0-526.0","0","0","39991","","null","","","null","58","","NaN","","","","","","","","","","","","","",""
"","response","","html-keyboard-response","386","618504","0.0-1.0-527.0","0","0","39991","","330","","","68","58","","","2","58","training","adjacent","DC","4","3","Q.jpg","P.jpg","0","0","1","",""
"","feedback","","html-keyboard-response","387","619507","0.0-1.0-528.0-0.0","0","0","39991","","null","","","null","58","","","","","","","","","","","","","","","",""
"","ITI","","html-keyboard-response","388","620510","0.0-1.0-531.0","0","0","39991","","null","","","null","58","","","","","","","","","","","","","","","NaN",""
"","S1","","html-keyboard-response","389","620763","0.0-1.0-533.0","0","0","39991","","null","","","null","59","","","","","","","","","","","","","","","",""
"","ISI","","html-keyboard-response","390","622766","0.0-1.0-534.0","0","0","39991","","null","","","null","59","NaN","","","","","","","","","","","","","","",""
"","S2","","html-keyboard-response","391","623019","0.0-1.0-535.0","0","0","39991","","null","","","null","59","","NaN","","","","","","","","","","","","","",""
"","response","","html-keyboard-response","392","623825","0.0-1.0-536.0","0","0","39991","","804","","","75","59","","","2","59","training","adjacent","CB","3","2","P.jpg","O.jpg","1","0","0","",""
"","feedback","","html-keyboard-response","393","624828","0.0-1.0-537.0-0.0","0","0","39991","","null","","","null","59","","","","","","","","","","","","","","","",""
"","time_out","","html-keyboard-response","394","626832","0.0-1.0-539.0-0.0","0","0","39991","","null","","","null","59","","","","","","","","","","","","","","","",""
"","ITI","","html-keyboard-response","395","627836","0.0-1.0-540.0","0","0","39991","","null","","","null","59","","","","","","","","","","","","","","","NaN",""
"","S1","","html-keyboard-response","396","628090","0.0-1.0-542.0","0","0","39991","","null","","","null","60","","","","","","","","","","","","","","","",""
"","ISI","","html-keyboard-response","397","630093","0.0-1.0-543.0","0","0","39991","","null","","","null","60","NaN","","","","","","","","","","","","","","",""
"","S2","","html-keyboard-response","398","630347","0.0-1.0-544.0","0","0","39991","","null","","","null","60","","NaN","","","","","","","","","","","","","",""
"","response","","html-keyboard-response","399","630833","0.0-1.0-545.0","0","0","39991","","485","","","75","60","","","2","60","training","adjacent","CD","3","4","P.jpg","Q.jpg","1","1","1","",""
"","feedback","","html-keyboard-response","400","631837","0.0-1.0-546.0-0.0","0","0","39991","","null","","","null","60","","","","","","","","","","","","","","","",""
"","ITI","","html-keyboard-response","401","632840","0.0-1.0-549.0","0","0","39991","","null","","","null","60","","","","","","","","","","","","","","","NaN",""
"","S1","","html-keyboard-response","402","633093","0.0-1.0-551.0","0","0","39991","","null","","","null","61","","","","","","","","","","","","","","","",""
"","ISI","","html-keyboard-response","403","635096","0.0-1.0-552.0","0","0","39991","","null","","","null","61","NaN","","","","","","","","","","","","","","",""
"","S2","","html-keyboard-response","404","635349","0.0-1.0-553.0","0","0","39991","","null","","","null","61","","NaN","","","","","","","","","","","","","",""
"","response","","html-keyboard-response","405","635799","0.0-1.0-554.0","0","0","39991","","448","","","75","61","","","2","61","training","adjacent","DC","4","3","Q.jpg","P.jpg","1","0","0","",""
"","feedback","","html-keyboard-response","406","636803","0.0-1.0-555.0-0.0","0","0","39991","","null","","","null","61","","","","","","","","","","","","","","","",""
"","time_out","","html-keyboard-response","407","638806","0.0-1.0-557.0-0.0","0","0","39991","","null","","","null","61","","","","","","","","","","","","","","","",""
"","ITI","","html-keyboard-response","408","639809","0.0-1.0-558.0","0","0","39991","","null","","","null","61","","","","","","","","","","","","","","","NaN",""
"","S1","","html-keyboard-response","409","640062","0.0-1.0-560.0","0","0","39991","","null","","","null","62","","","","","","","","","","","","","","","",""
"","ISI","","html-keyboard-response","410","642065","0.0-1.0-561.0","0","0","39991","","null","","","null","62","NaN","","","","","","","","","","","","","","",""
"","S2","","html-keyboard-response","411","642318","0.0-1.0-562.0","0","0","39991","","null","","","null","62","","NaN","","","","","","","","","","","","","",""
"","response","","html-keyboard-response","412","642635","0.0-1.0-563.0","0","0","39991","","315","","","68","62","","","2","62","training","adjacent","BA","2","1","O.jpg","L.jpg","0","0","1","",""
"","feedback","","html-keyboard-response","413","643639","0.0-1.0-564.0-0.0","0","0","39991","","null","","","null","62","","","","","","","","","","","","","","","",""
"","ITI","","html-keyboard-response","414","644641","0.0-1.0-567.0","0","0","39991","","null","","","null","62","","","","","","","","","","","","","","","NaN",""
"","S1","","html-keyboard-response","415","644894","0.0-1.0-569.0","0","0","39991","","null","","","null","63","","","","","","","","","","","","","","","",""
"","ISI","","html-keyboard-response","416","646898","0.0-1.0-570.0","0","0","39991","","null","","","null","63","NaN","","","","","","","","","","","","","","",""
"","S2","","html-keyboard-response","417","647150","0.0-1.0-571.0","0","0","39991","","null","","","null","63","","NaN","","","","","","","","","","","","","",""
"","response","","html-keyboard-response","418","647790","0.0-1.0-572.0","0","0","39991","","638","","","75","63","","","2","63","training","adjacent","BC","2","3","O.jpg","P.jpg","1","1","1","",""
"","feedback","","html-keyboard-response","419","648793","0.0-1.0-573.0-0.0","0","0","39991","","null","","","null","63","","","","","","","","","","","","","","","",""
"","ITI","","html-keyboard-response","420","649796","0.0-1.0-576.0","0","0","39991","","null","","","null","63","","","","","","","","","","","","","","","NaN",""
"","S1","","html-keyboard-response","421","650049","0.0-1.0-578.0","0","0","39991","","null","","","null","64","","","","","","","","","","","","","","","",""
"","ISI","","html-keyboard-response","422","652051","0.0-1.0-579.0","0","0","39991","","null","","","null","64","NaN","","","","","","","","","","","","","","",""
"","S2","","html-keyboard-response","423","652304","0.0-1.0-580.0","0","0","39991","","null","","","null","64","","NaN","","","","","","","","","","","","","",""
"","response","","html-keyboard-response","424","652840","0.0-1.0-581.0","0","0","39991","","534","","","68","64","","","2","64","training","adjacent","CD","3","4","P.jpg","Q.jpg","0","1","0","",""
"","feedback","","html-keyboard-response","425","653844","0.0-1.0-582.0-0.0","0","0","39991","","null","","","null","64","","","","","","","","","","","","","","","",""
"","time_out","","html-keyboard-response","426","655847","0.0-1.0-584.0-0.0","0","0","39991","","null","","","null","64","","","","","","","","","","","","","","","",""
"","ITI","","html-keyboard-response","427","656850","0.0-1.0-585.0","0","0","39991","","null","","","null","64","","","","","","","","","","","","","","","NaN",""
"","S1","","html-keyboard-response","428","657103","0.0-1.0-587.0","0","0","39991","","null","","","null","65","","","","","","","","","","","","","","","",""
"","ISI","","html-keyboard-response","429","659105","0.0-1.0-588.0","0","0","39991","","null","","","null","65","NaN","","","","","","","","","","","","","","",""
"","S2","","html-keyboard-response","430","659359","0.0-1.0-589.0","0","0","39991","","null","","","null","65","","NaN","","","","","","","","","","","","","",""
"","response","","html-keyboard-response","431","659696","0.0-1.0-590.0","0","0","39991","","335","","","75","65","","","2","65","training","adjacent","FE","6","5","R.jpg","N.jpg","1","0","0","",""
"","feedback","","html-keyboard-response","432","660699","0.0-1.0-591.0-0.0","0","0","39991","","null","","","null","65","","","","","","","","","","","","","","","",""
"","time_out","","html-keyboard-response","433","662702","0.0-1.0-593.0-0.0","0","0","39991","","null","","","null","65","","","","","","","","","","","","","","","",""
"","ITI","","html-keyboard-response","434","663705","0.0-1.0-594.0","0","0","39991","","null","","","null","65","","","","","","","","","","","","","","","NaN",""
"","S1","","html-keyboard-response","435","663959","0.0-1.0-596.0","0","0","39991","","null","","","null","66","","","","","","","","","","","","","","","",""
"","ISI","","html-keyboard-response","436","665963","0.0-1.0-597.0","0","0","39991","","null","","","null","66","NaN","","","","","","","","","","","","","","",""
"","S2","","html-keyboard-response","437","666216","0.0-1.0-598.0","0","0","39991","","null","","","null","66","","NaN","","","","","","","","","","","","","",""
"","response","","html-keyboard-response","438","667129","0.0-1.0-599.0","0","0","39991","","911","","","68","66","","","2","66","training","adjacent","CD","3","4","P.jpg","Q.jpg","0","1","0","",""
"","feedback","","html-keyboard-response","439","668131","0.0-1.0-600.0-0.0","0","0","39991","","null","","","null","66","","","","","","","","","","","","","","","",""
"","time_out","","html-keyboard-response","440","670134","0.0-1.0-602.0-0.0","0","0","39991","","null","","","null","66","","","","","","","","","","","","","","","",""
"","ITI","","html-keyboard-response","441","671139","0.0-1.0-603.0","0","0","39991","","null","","","null","66","","","","","","","","","","","","","","","NaN",""
"","S1","","html-keyboard-response","442","671392","0.0-1.0-605.0","0","0","39991","","null","","","null","67","","","","","","","","","","","","","","","",""
"","ISI","","html-keyboard-response","443","673395","0.0-1.0-606.0","0","0","39991","","null","","","null","67","NaN","","","","","","","","","","","","","","",""
"","S2","","html-keyboard-response","444","673685","0.0-1.0-607.0","0","0","39991","","null","","","null","67","","NaN","","","","","","","","","","","","","",""
"","response","","html-keyboard-response","445","674166","0.0-1.0-608.0","0","0","39991","","480","","","75","67","","","2","67","training","adjacent","FE","6","5","R.jpg","N.jpg","1","0","0","",""
"","feedback","","html-keyboard-response","446","675170","0.0-1.0-609.0-0.0","0","0","39991","","null","","","null","67","","","","","","","","","","","","","","","",""
"","time_out","","html-keyboard-response","447","677173","0.0-1.0-611.0-0.0","0","0","39991","","null","","","null","67","","","","","","","","","","","","","","","",""
"","ITI","","html-keyboard-response","448","678176","0.0-1.0-612.0","0","0","39991","","null","","","null","67","","","","","","","","","","","","","","","NaN",""
"","S1","","html-keyboard-response","449","678430","0.0-1.0-614.0","0","0","39991","","null","","","null","68","","","","","","","","","","","","","","","",""
"","ISI","","html-keyboard-response","450","680433","0.0-1.0-615.0","0","0","39991","","null","","","null","68","NaN","","","","","","","","","","","","","","",""
"","S2","","html-keyboard-response","451","680687","0.0-1.0-616.0","0","0","39991","","null","","","null","68","","NaN","","","","","","","","","","","","","",""
"","response","","html-keyboard-response","452","681027","0.0-1.0-617.0","0","0","39991","","338","","","68","68","","","2","68","training","adjacent","DE","4","5","Q.jpg","N.jpg","0","1","0","",""
"","feedback","","html-keyboard-response","453","682030","0.0-1.0-618.0-0.0","0","0","39991","","null","","","null","68","","","","","","","","","","","","","","","",""
"","time_out","","html-keyboard-response","454","684033","0.0-1.0-620.0-0.0","0","0","39991","","null","","","null","68","","","","","","","","","","","","","","","",""
"","ITI","","html-keyboard-response","455","685037","0.0-1.0-621.0","0","0","39991","","null","","","null","68","","","","","","","","","","","","","","","NaN",""
"","S1","","html-keyboard-response","456","685290","0.0-1.0-623.0","0","0","39991","","null","","","null","69","","","","","","","","","","","","","","","",""
"","ISI","","html-keyboard-response","457","687293","0.0-1.0-624.0","0","0","39991","","null","","","null","69","NaN","","","","","","","","","","","","","","",""
"","S2","","html-keyboard-response","458","687545","0.0-1.0-625.0","0","0","39991","","null","","","null","69","","NaN","","","","","","","","","","","","","",""
"","response","","html-keyboard-response","459","688030","0.0-1.0-626.0","0","0","39991","","483","","","75","69","","","2","69","training","adjacent","CB","3","2","P.jpg","O.jpg","1","0","0","",""
"","feedback","","html-keyboard-response","460","689035","0.0-1.0-627.0-0.0","0","0","39991","","null","","","null","69","","","","","","","","","","","","","","","",""
"","time_out","","html-keyboard-response","461","691039","0.0-1.0-629.0-0.0","0","0","39991","","null","","","null","69","","","","","","","","","","","","","","","",""
"","ITI","","html-keyboard-response","462","692042","0.0-1.0-630.0","0","0","39991","","null","","","null","69","","","","","","","","","","","","","","","NaN",""
"","S1","","html-keyboard-response","463","692295","0.0-1.0-632.0","0","0","39991","","null","","","null","70","","","","","","","","","","","","","","","",""
"","ISI","","html-keyboard-response","464","694298","0.0-1.0-633.0","0","0","39991","","null","","","null","70","NaN","","","","","","","","","","","","","","",""
"","S2","","html-keyboard-response","465","694551","0.0-1.0-634.0","0","0","39991","","null","","","null","70","","NaN","","","","","","","","","","","","","",""
"","response","","html-keyboard-response","466","695023","0.0-1.0-635.0","0","0","39991","","470","","","75","70","","","2","70","training","adjacent","BC","2","3","O.jpg","P.jpg","1","1","1","",""
"","feedback","","html-keyboard-response","467","696026","0.0-1.0-636.0-0.0","0","0","39991","","null","","","null","70","","","","","","","","","","","","","","","",""
"","ITI","","html-keyboard-response","468","697028","0.0-1.0-639.0","0","0","39991","","null","","","null","70","","","","","","","","","","","","","","","NaN",""
"","S1","","html-keyboard-response","469","697282","0.0-1.0-641.0","0","0","39991","","null","","","null","71","","","","","","","","","","","","","","","",""
"","ISI","","html-keyboard-response","470","699285","0.0-1.0-642.0","0","0","39991","","null","","","null","71","NaN","","","","","","","","","","","","","","",""
"","S2","","html-keyboard-response","471","699538","0.0-1.0-643.0","0","0","39991","","null","","","null","71","","NaN","","","","","","","","","","","","","",""
"","response","","html-keyboard-response","472","700056","0.0-1.0-644.0","0","0","39991","","516","","","75","71","","","2","71","training","adjacent","BA","2","1","O.jpg","L.jpg","1","0","0","",""
"","feedback","","html-keyboard-response","473","701059","0.0-1.0-645.0-0.0","0","0","39991","","null","","","null","71","","","","","","","","","","","","","","","",""
"","time_out","","html-keyboard-response","474","703062","0.0-1.0-647.0-0.0","0","0","39991","","null","","","null","71","","","","","","","","","","","","","","","",""
"","ITI","","html-keyboard-response","475","704066","0.0-1.0-648.0","0","0","39991","","null","","","null","71","","","","","","","","","","","","","","","NaN",""
"","S1","","html-keyboard-response","476","704319","0.0-1.0-650.0","0","0","39991","","null","","","null","72","","","","","","","","","","","","","","","",""
"","ISI","","html-keyboard-response","477","706321","0.0-1.0-651.0","0","0","39991","","null","","","null","72","NaN","","","","","","","","","","","","","","",""
"","S2","","html-keyboard-response","478","706574","0.0-1.0-652.0","0","0","39991","","null","","","null","72","","NaN","","","","","","","","","","","","","",""
"","response","","html-keyboard-response","479","707065","0.0-1.0-653.0","0","0","39991","","489","","","68","72","","","2","72","training","adjacent","ED","5","4","N.jpg","Q.jpg","0","0","1","",""
"","feedback","","html-keyboard-response","480","708068","0.0-1.0-654.0-0.0","0","0","39991","","null","","","null","72","","","","","","","","","","","","","","","",""
"","ITI","","html-keyboard-response","481","709071","0.0-1.0-657.0","0","0","39991","","null","","","null","72","","","","","","","","","","","","","","","NaN",""
"","S1","","html-keyboard-response","482","709324","0.0-1.0-659.0","0","0","39991","","null","","","null","73","","","","","","","","","","","","","","","",""
"","ISI","","html-keyboard-response","483","711327","0.0-1.0-660.0","0","0","39991","","null","","","null","73","NaN","","","","","","","","","","","","","","",""
"","S2","","html-keyboard-response","484","711580","0.0-1.0-661.0","0","0","39991","","null","","","null","73","","NaN","","","","","","","","","","","","","",""
"","response","","html-keyboard-response","485","712097","0.0-1.0-662.0","0","0","39991","","516","","","75","73","","","2","73","training","adjacent","GF","7","6","M.jpg","R.jpg","1","0","0","",""
"","feedback","","html-keyboard-response","486","713100","0.0-1.0-663.0-0.0","0","0","39991","","null","","","null","73","","","","","","","","","","","","","","","",""
"","time_out","","html-keyboard-response","487","715104","0.0-1.0-665.0-0.0","0","0","39991","","null","","","null","73","","","","","","","","","","","","","","","",""
"","ITI","","html-keyboard-response","488","716106","0.0-1.0-666.0","0","0","39991","","null","","","null","73","","","","","","","","","","","","","","","NaN",""
"","S1","","html-keyboard-response","489","716359","0.0-1.0-668.0","0","0","39991","","null","","","null","74","","","","","","","","","","","","","","","",""
"","ISI","","html-keyboard-response","490","718361","0.0-1.0-669.0","0","0","39991","","null","","","null","74","NaN","","","","","","","","","","","","","","",""
"","S2","","html-keyboard-response","491","718615","0.0-1.0-670.0","0","0","39991","","null","","","null","74","","NaN","","","","","","","","","","","","","",""
"","response","","html-keyboard-response","492","718944","0.0-1.0-671.0","0","0","39991","","327","","","68","74","","","2","74","training","adjacent","FG","6","7","R.jpg","M.jpg","0","1","0","",""
"","feedback","","html-keyboard-response","493","719947","0.0-1.0-672.0-0.0","0","0","39991","","null","","","null","74","","","","","","","","","","","","","","","",""
"","time_out","","html-keyboard-response","494","721954","0.0-1.0-674.0-0.0","0","0","39991","","null","","","null","74","","","","","","","","","","","","","","","",""
"","ITI","","html-keyboard-response","495","722957","0.0-1.0-675.0","0","0","39991","","null","","","null","74","","","","","","","","","","","","","","","NaN",""
"","S1","","html-keyboard-response","496","723210","0.0-1.0-677.0","0","0","39991","","null","","","null","75","","","","","","","","","","","","","","","",""
"","ISI","","html-keyboard-response","497","725214","0.0-1.0-678.0","0","0","39991","","null","","","null","75","NaN","","","","","","","","","","","","","","",""
"","S2","","html-keyboard-response","498","725467","0.0-1.0-679.0","0","0","39991","","null","","","null","75","","NaN","","","","","","","","","","","","","",""
"","response","","html-keyboard-response","499","725633","0.0-1.0-680.0","0","0","39991","","164","","","75","75","","","2","75","training","adjacent","FG","6","7","R.jpg","M.jpg","1","1","1","",""
"","feedback","","html-keyboard-response","500","726635","0.0-1.0-681.0-0.0","0","0","39991","","null","","","null","75","","","","","","","","","","","","","","","",""
"","ITI","","html-keyboard-response","501","727638","0.0-1.0-684.0","0","0","39991","","null","","","null","75","","","","","","","","","","","","","","","NaN",""
"","S1","","html-keyboard-response","502","727892","0.0-1.0-686.0","0","0","39991","","null","","","null","76","","","","","","","","","","","","","","","",""
"","ISI","","html-keyboard-response","503","729900","0.0-1.0-687.0","0","0","39991","","null","","","null","76","NaN","","","","","","","","","","","","","","",""
"","S2","","html-keyboard-response","504","730153","0.0-1.0-688.0","0","0","39991","","null","","","null","76","","NaN","","","","","","","","","","","","","",""
"","response","","html-keyboard-response","505","730948","0.0-1.0-689.0","0","0","39991","","792","","","75","76","","","2","76","training","adjacent","CB","3","2","P.jpg","O.jpg","1","0","0","",""
"","feedback","","html-keyboard-response","506","731951","0.0-1.0-690.0-0.0","0","0","39991","","null","","","null","76","","","","","","","","","","","","","","","",""
"","time_out","","html-keyboard-response","507","733954","0.0-1.0-692.0-0.0","0","0","39991","","null","","","null","76","","","","","","","","","","","","","","","",""
"","ITI","","html-keyboard-response","508","734957","0.0-1.0-693.0","0","0","39991","","null","","","null","76","","","","","","","","","","","","","","","NaN",""
"","S1","","html-keyboard-response","509","735210","0.0-1.0-695.0","0","0","39991","","null","","","null","77","","","","","","","","","","","","","","","",""
"","ISI","","html-keyboard-response","510","737212","0.0-1.0-696.0","0","0","39991","","null","","","null","77","NaN","","","","","","","","","","","","","","",""
"","S2","","html-keyboard-response","511","737466","0.0-1.0-697.0","0","0","39991","","null","","","null","77","","NaN","","","","","","","","","","","","","",""
"","response","","html-keyboard-response","512","738116","0.0-1.0-698.0","0","0","39991","","649","","","68","77","","","2","77","training","adjacent","GF","7","6","M.jpg","R.jpg","0","0","1","",""
"","feedback","","html-keyboard-response","513","739119","0.0-1.0-699.0-0.0","0","0","39991","","null","","","null","77","","","","","","","","","","","","","","","",""
"","ITI","","html-keyboard-response","514","740121","0.0-1.0-702.0","0","0","39991","","null","","","null","77","","","","","","","","","","","","","","","NaN",""
"","S1","","html-keyboard-response","515","740375","0.0-1.0-704.0","0","0","39991","","null","","","null","78","","","","","","","","","","","","","","","",""
"","ISI","","html-keyboard-response","516","742379","0.0-1.0-705.0","0","0","39991","","null","","","null","78","NaN","","","","","","","","","","","","","","",""
"","S2","","html-keyboard-response","517","742632","0.0-1.0-706.0","0","0","39991","","null","","","null","78","","NaN","","","","","","","","","","","","","",""
"","response","","html-keyboard-response","518","742993","0.0-1.0-707.0","0","0","39991","","359","","","68","78","","","2","78","training","adjacent","EF","5","6","N.jpg","R.jpg","0","1","0","",""
"","feedback","","html-keyboard-response","519","743996","0.0-1.0-708.0-0.0","0","0","39991","","null","","","null","78","","","","","","","","","","","","","","","",""
"","time_out","","html-keyboard-response","520","745999","0.0-1.0-710.0-0.0","0","0","39991","","null","","","null","78","","","","","","","","","","","","","","","",""
"","ITI","","html-keyboard-response","521","747002","0.0-1.0-711.0","0","0","39991","","null","","","null","78","","","","","","","","","","","","","","","NaN",""
"","S1","","html-keyboard-response","522","747255","0.0-1.0-713.0","0","0","39991","","null","","","null","79","","","","","","","","","","","","","","","",""
"","ISI","","html-keyboard-response","523","749259","0.0-1.0-714.0","0","0","39991","","null","","","null","79","NaN","","","","","","","","","","","","","","",""
"","S2","","html-keyboard-response","524","749512","0.0-1.0-715.0","0","0","39991","","null","","","null","79","","NaN","","","","","","","","","","","","","",""
"","response","","html-keyboard-response","525","750063","0.0-1.0-716.0","0","0","39991","","549","","","75","79","","","2","79","training","adjacent","BA","2","1","O.jpg","L.jpg","1","0","0","",""
"","feedback","","html-keyboard-response","526","751067","0.0-1.0-717.0-0.0","0","0","39991","","null","","","null","79","","","","","","","","","","","","","","","",""
"","time_out","","html-keyboard-response","527","753071","0.0-1.0-719.0-0.0","0","0","39991","","null","","","null","79","","","","","","","","","","","","","","","",""
"","ITI","","html-keyboard-response","528","754074","0.0-1.0-720.0","0","0","39991","","null","","","null","79","","","","","","","","","","","","","","","NaN",""
"","S1","","html-keyboard-response","529","754327","0.0-1.0-722.0","0","0","39991","","null","","","null","80","","","","","","","","","","","","","","","",""
"","ISI","","html-keyboard-response","530","756329","0.0-1.0-723.0","0","0","39991","","null","","","null","80","NaN","","","","","","","","","","","","","","",""
"","S2","","html-keyboard-response","531","756581","0.0-1.0-724.0","0","0","39991","","null","","","null","80","","NaN","","","","","","","","","","","","","",""
"","response","","html-keyboard-response","532","757378","0.0-1.0-725.0","0","0","39991","","795","","","75","80","","","2","80","training","adjacent","FG","6","7","R.jpg","M.jpg","1","1","1","",""
"","feedback","","html-keyboard-response","533","758383","0.0-1.0-726.0-0.0","0","0","39991","","null","","","null","80","","","","","","","","","","","","","","","",""
"","ITI","","html-keyboard-response","534","759387","0.0-1.0-729.0","0","0","39991","","null","","","null","80","","","","","","","","","","","","","","","NaN",""
"","S1","","html-keyboard-response","535","759646","0.0-1.0-731.0","0","0","39991","","null","","","null","81","","","","","","","","","","","","","","","",""
"","ISI","","html-keyboard-response","536","761650","0.0-1.0-732.0","0","0","39991","","null","","","null","81","NaN","","","","","","","","","","","","","","",""
"","S2","","html-keyboard-response","537","761902","0.0-1.0-733.0","0","0","39991","","null","","","null","81","","NaN","","","","","","","","","","","","","",""
"","response","","html-keyboard-response","538","762261","0.0-1.0-734.0","0","0","39991","","357","","","68","81","","","2","81","training","adjacent","DC","4","3","Q.jpg","P.jpg","0","0","1","",""
"","feedback","","html-keyboard-response","539","763263","0.0-1.0-735.0-0.0","0","0","39991","","null","","","null","81","","","","","","","","","","","","","","","",""
"","ITI","","html-keyboard-response","540","764268","0.0-1.0-738.0","0","0","39991","","null","","","null","81","","","","","","","","","","","","","","","NaN",""
"","S1","","html-keyboard-response","541","764523","0.0-1.0-740.0","0","0","39991","","null","","","null","82","","","","","","","","","","","","","","","",""
"","ISI","","html-keyboard-response","542","766525","0.0-1.0-741.0","0","0","39991","","null","","","null","82","NaN","","","","","","","","","","","","","","",""
"","S2","","html-keyboard-response","543","766778","0.0-1.0-742.0","0","0","39991","","null","","","null","82","","NaN","","","","","","","","","","","","","",""
"","response","","html-keyboard-response","544","767121","0.0-1.0-743.0","0","0","39991","","342","","","75","82","","","2","82","training","adjacent","GF","7","6","M.jpg","R.jpg","1","0","0","",""
"","feedback","","html-keyboard-response","545","768124","0.0-1.0-744.0-0.0","0","0","39991","","null","","","null","82","","","","","","","","","","","","","","","",""
"","time_out","","html-keyboard-response","546","770128","0.0-1.0-746.0-0.0","0","0","39991","","null","","","null","82","","","","","","","","","","","","","","","",""
"","ITI","","html-keyboard-response","547","771131","0.0-1.0-747.0","0","0","39991","","null","","","null","82","","","","","","","","","","","","","","","NaN",""
"","S1","","html-keyboard-response","548","771385","0.0-1.0-749.0","0","0","39991","","null","","","null","83","","","","","","","","","","","","","","","",""
"","ISI","","html-keyboard-response","549","773387","0.0-1.0-750.0","0","0","39991","","null","","","null","83","NaN","","","","","","","","","","","","","","",""
"","S2","","html-keyboard-response","550","773640","0.0-1.0-751.0","0","0","39991","","null","","","null","83","","NaN","","","","","","","","","","","","","",""
"","response","","html-keyboard-response","551","774133","0.0-1.0-752.0","0","0","39991","","492","","","68","83","","","2","83","training","adjacent","GF","7","6","M.jpg","R.jpg","0","0","1","",""
"","feedback","","html-keyboard-response","552","775137","0.0-1.0-753.0-0.0","0","0","39991","","null","","","null","83","","","","","","","","","","","","","","","",""
"","ITI","","html-keyboard-response","553","776153","0.0-1.0-756.0","0","0","39991","","null","","","null","83","","","","","","","","","","","","","","","NaN",""
"","S1","","html-keyboard-response","554","776407","0.0-1.0-758.0","0","0","39991","","null","","","null","84","","","","","","","","","","","","","","","",""
"","ISI","","html-keyboard-response","555","778409","0.0-1.0-759.0","0","0","39991","","null","","","null","84","NaN","","","","","","","","","","","","","","",""
"","S2","","html-keyboard-response","556","778663","0.0-1.0-760.0","0","0","39991","","null","","","null","84","","NaN","","","","","","","","","","","","","",""
"","response","","html-keyboard-response","557","779230","0.0-1.0-761.0","0","0","39991","","564","","","75","84","","","2","84","training","adjacent","EF","5","6","N.jpg","R.jpg","1","1","1","",""
"","feedback","","html-keyboard-response","558","780235","0.0-1.0-762.0-0.0","0","0","39991","","null","","","null","84","","","","","","","","","","","","","","","",""
"","ITI","","html-keyboard-response","559","781239","0.0-1.0-765.0","0","0","39991","","null","","","null","84","","","","","","","","","","","","","","","NaN",""
"","S1","","html-keyboard-response","560","781492","0.0-1.0-767.0","0","0","39991","","null","","","null","85","","","","","","","","","","","","","","","",""
"","ISI","","html-keyboard-response","561","783495","0.0-1.0-768.0","0","0","39991","","null","","","null","85","NaN","","","","","","","","","","","","","","",""
"","S2","","html-keyboard-response","562","783749","0.0-1.0-769.0","0","0","39991","","null","","","null","85","","NaN","","","","","","","","","","","","","",""
"","response","","html-keyboard-response","563","784221","0.0-1.0-770.0","0","0","39991","","470","","","68","85","","","2","85","training","adjacent","FE","6","5","R.jpg","N.jpg","0","0","1","",""
"","feedback","","html-keyboard-response","564","785226","0.0-1.0-771.0-0.0","0","0","39991","","null","","","null","85","","","","","","","","","","","","","","","",""
"","ITI","","html-keyboard-response","565","786231","0.0-1.0-774.0","0","0","39991","","null","","","null","85","","","","","","","","","","","","","","","NaN",""
"","S1","","html-keyboard-response","566","786485","0.0-1.0-776.0","0","0","39991","","null","","","null","86","","","","","","","","","","","","","","","",""
"","ISI","","html-keyboard-response","567","788488","0.0-1.0-777.0","0","0","39991","","null","","","null","86","NaN","","","","","","","","","","","","","","",""
"","S2","","html-keyboard-response","568","788741","0.0-1.0-778.0","0","0","39991","","null","","","null","86","","NaN","","","","","","","","","","","","","",""
"","response","","html-keyboard-response","569","789335","0.0-1.0-779.0","0","0","39991","","592","","","75","86","","","2","86","training","adjacent","EF","5","6","N.jpg","R.jpg","1","1","1","",""
"","feedback","","html-keyboard-response","570","790339","0.0-1.0-780.0-0.0","0","0","39991","","null","","","null","86","","","","","","","","","","","","","","","",""
"","ITI","","html-keyboard-response","571","791341","0.0-1.0-783.0","0","0","39991","","null","","","null","86","","","","","","","","","","","","","","","NaN",""
"","S1","","html-keyboard-response","572","791605","0.0-1.0-785.0","0","0","39991","","null","","","null","87","","","","","","","","","","","","","","","",""
"","ISI","","html-keyboard-response","573","793608","0.0-1.0-786.0","0","0","39991","","null","","","null","87","NaN","","","","","","","","","","","","","","",""
"","S2","","html-keyboard-response","574","793861","0.0-1.0-787.0","0","0","39991","","null","","","null","87","","NaN","","","","","","","","","","","","","",""
"","response","","html-keyboard-response","575","795178","0.0-1.0-788.0","0","0","39991","","1316","","","68","87","","","2","87","training","adjacent","ED","5","4","N.jpg","Q.jpg","0","0","1","",""
"","feedback","","html-keyboard-response","576","796182","0.0-1.0-789.0-0.0","0","0","39991","","null","","","null","87","","","","","","","","","","","","","","","",""
"","ITI","","html-keyboard-response","577","797185","0.0-1.0-792.0","0","0","39991","","null","","","null","87","","","","","","","","","","","","","","","NaN",""
"","S1","","html-keyboard-response","578","797437","0.0-1.0-794.0","0","0","39991","","null","","","null","88","","","","","","","","","","","","","","","",""
"","ISI","","html-keyboard-response","579","799440","0.0-1.0-795.0","0","0","39991","","null","","","null","88","NaN","","","","","","","","","","","","","","",""
"","S2","","html-keyboard-response","580","799694","0.0-1.0-796.0","0","0","39991","","null","","","null","88","","NaN","","","","","","","","","","","","","",""
"","response","","html-keyboard-response","581","800297","0.0-1.0-797.0","0","0","39991","","601","","","75","88","","","2","88","training","adjacent","ED","5","4","N.jpg","Q.jpg","1","0","0","",""
"","feedback","","html-keyboard-response","582","801303","0.0-1.0-798.0-0.0","0","0","39991","","null","","","null","88","","","","","","","","","","","","","","","",""
