"success","ttype","start_time","trial_type","trial_index","time_elapsed","internal_node_id","warning","missed_checkup","PID","view_history","rt","responses","repeat_instructions","key_press","index","keypress_isi","keypress_S2","block","trial_num","phase","group_type","pair_type","S1_stim","S2_stim","S1_img","S2_img","S1_chosen","S1_higher","accuracy","keypress_iti","total_bonus_tally"
"true","full_screen","d03082023hr1932","fullscreen","0","10871","0.0-0.0","0","0","69464","","","","","","","","","","","","","","","","","","","","","",""
"","instructions","","instructions","1","61343","0.0-1.0-0.0-0.0","0","0","69464","[{""page_index"":0,""viewing_time"":6320},{""page_index"":1,""viewing_time"":29728},{""page_index"":2,""viewing_time"":11952},{""page_index"":3,""viewing_time"":2465}]","50466","","","","","","","","","","","","","","","","","","","",""
"","comprehension_check","","survey-multi-choice","2","83582","0.0-1.0-0.0-1.0","0","0","69464","","22227","{""Q0"":""True"",""Q1"":""D"",""Q2"":""Once the second image appears and while the screen 'MAKE A CHOICE' is shown"",""Q3"":""Green mark"",""Q4"":""either D or K""}","0","","","","","","","","","","","","","","","","","",""
"","start_exp","","html-keyboard-response","3","85630","0.0-1.0-1.0","0","0","69464","","2040","","","32","","","","","","","","","","","","","","","","",""
"","S1","","html-keyboard-response","4","85888","0.0-1.0-2.0","0","0","69464","","null","","","null","0","","","","","","","","","","","","","","","",""
"","ISI","","html-keyboard-response","5","86043","0.0-1.0-3.0","0","0","69464","","null","","","null","0","NaN","","","","","","","","","","","","","","",""
"","S2","","html-keyboard-response","6","86301","0.0-1.0-4.0","0","0","69464","","null","","","null","0","","NaN","","","","","","","","","","","","","",""
"","response","","html-keyboard-response","7","88018","0.0-1.0-5.0-0.0","0","0","69464","","1713","","","75","0","","","1","0","training","adjacent","FE","6","5","Q.jpg","L.jpg","0","0","1","",""
"","feedback","","html-keyboard-response","8","89025","0.0-1.0-6.0-0.0","0","0","69464","","null","","","null","0","","","","","","","","","","","","","","","",""
"","ITI","","html-keyboard-response","9","90030","0.0-1.0-9.0","0","0","69464","","null","","","null","0","","","","","","","","","","","","","","","NaN",""
"","S1","","html-keyboard-response","10","90287","0.0-1.0-11.0","0","0","69464","","null","","","null","1","","","","","","","","","","","","","","","",""
"","ISI","","html-keyboard-response","11","90442","0.0-1.0-12.0","0","0","69464","","null","","","null","1","NaN","","","","","","","","","","","","","","",""
"","S2","","html-keyboard-response","12","90699","0.0-1.0-13.0","0","0","69464","","null","","","null","1","","NaN","","","","","","","","","","","","","",""
"","response","","html-keyboard-response","13","91736","0.0-1.0-14.0-0.0","0","0","69464","","1034","","","75","1","","","1","1","training","adjacent","CD","3","4","P.jpg","M.jpg","0","1","0","",""
"","feedback","","html-keyboard-response","14","92741","0.0-1.0-15.0-0.0","0","0","69464","","null","","","null","1","","","","","","","","","","","","","","","",""
"","time_out","","html-keyboard-response","15","94746","0.0-1.0-17.0-0.0","0","0","69464","","null","","","null","1","","","","","","","","","","","","","","","",""
"","ITI","","html-keyboard-response","16","95750","0.0-1.0-18.0","0","0","69464","","null","","","null","1","","","","","","","","","","","","","","","NaN",""
"","S1","","html-keyboard-response","17","96005","0.0-1.0-20.0","0","0","69464","","null","","","null","2","","","","","","","","","","","","","","","",""
"","ISI","","html-keyboard-response","18","96162","0.0-1.0-21.0","0","0","69464","","null","","","null","2","NaN","","","","","","","","","","","","","","",""
"","S2","","html-keyboard-response","19","96418","0.0-1.0-22.0","0","0","69464","","null","","","null","2","","NaN","","","","","","","","","","","","","",""
"","response","","html-keyboard-response","20","98075","0.0-1.0-23.0-0.0","0","0","69464","","1652","","","68","2","","","1","2","training","adjacent","BA","2","1","O.jpg","N.jpg","1","0","0","",""
"","feedback","","html-keyboard-response","21","99080","0.0-1.0-24.0-0.0","0","0","69464","","null","","","null","2","","","","","","","","","","","","","","","",""
"","time_out","","html-keyboard-response","22","101085","0.0-1.0-26.0-0.0","0","0","69464","","null","","","null","2","","","","","","","","","","","","","","","",""
"","ITI","","html-keyboard-response","23","102088","0.0-1.0-27.0","0","0","69464","","null","","","null","2","","","","","","","","","","","","","","","NaN",""
"","S1","","html-keyboard-response","24","102344","0.0-1.0-29.0","0","0","69464","","null","","","null","3","","","","","","","","","","","","","","","",""
"","ISI","","html-keyboard-response","25","102499","0.0-1.0-30.0","0","0","69464","","null","","","null","3","NaN","","","","","","","","","","","","","","",""
"","S2","","html-keyboard-response","26","102756","0.0-1.0-31.0","0","0","69464","","null","","","null","3","","NaN","","","","","","","","","","","","","",""
"","response","","html-keyboard-response","27","102978","0.0-1.0-32.0-0.0","0","0","69464","","219","","","75","3","","","1","3","training","adjacent","CB","3","2","P.jpg","O.jpg","0","0","1","",""
"","feedback","","html-keyboard-response","28","103984","0.0-1.0-33.0-0.0","0","0","69464","","null","","","null","3","","","","","","","","","","","","","","","",""
"","ITI","","html-keyboard-response","29","104988","0.0-1.0-36.0","0","0","69464","","null","","","null","3","","","","","","","","","","","","","","","NaN",""
"","S1","","html-keyboard-response","30","105242","0.0-1.0-38.0","0","0","69464","","null","","","null","4","","","","","","","","","","","","","","","",""
"","ISI","","html-keyboard-response","31","105396","0.0-1.0-39.0","0","0","69464","","null","","","null","4","NaN","","","","","","","","","","","","","","",""
"","S2","","html-keyboard-response","32","105651","0.0-1.0-40.0","0","0","69464","","null","","","null","4","","NaN","","","","","","","","","","","","","",""
"","response","","html-keyboard-response","33","105949","0.0-1.0-41.0-0.0","0","0","69464","","291","","","75","4","","","1","4","training","adjacent","FE","6","5","Q.jpg","L.jpg","0","0","1","",""
"","feedback","","html-keyboard-response","34","106959","0.0-1.0-42.0-0.0","0","0","69464","","null","","","null","4","","","","","","","","","","","","","","","",""
"","ITI","","html-keyboard-response","35","107966","0.0-1.0-45.0","0","0","69464","","null","","","null","4","","","","","","","","","","","","","","","NaN",""
"","S1","","html-keyboard-response","36","108223","0.0-1.0-47.0","0","0","69464","","null","","","null","5","","","","","","","","","","","","","","","",""
"","ISI","","html-keyboard-response","37","108377","0.0-1.0-48.0","0","0","69464","","null","","","null","5","NaN","","","","","","","","","","","","","","",""
"","S2","","html-keyboard-response","38","108632","0.0-1.0-49.0","0","0","69464","","null","","","null","5","","NaN","","","","","","","","","","","","","",""
"","response","","html-keyboard-response","39","108963","0.0-1.0-50.0-0.0","0","0","69464","","326","","","75","5","","","1","5","training","adjacent","AB","1","2","N.jpg","O.jpg","0","1","0","",""
"","feedback","","html-keyboard-response","40","109969","0.0-1.0-51.0-0.0","0","0","69464","","null","","","null","5","","","","","","","","","","","","","","","",""
"","time_out","","html-keyboard-response","41","111975","0.0-1.0-53.0-0.0","0","0","69464","","null","","","null","5","","","","","","","","","","","","","","","",""
"","ITI","","html-keyboard-response","42","112980","0.0-1.0-54.0","0","0","69464","","null","","","null","5","","","","","","","","","","","","","","","NaN",""
"","S1","","html-keyboard-response","43","113236","0.0-1.0-56.0","0","0","69464","","null","","","null","6","","","","","","","","","","","","","","","",""
"","ISI","","html-keyboard-response","44","113390","0.0-1.0-57.0","0","0","69464","","null","","","null","6","NaN","","","","","","","","","","","","","","",""
"","S2","","html-keyboard-response","45","113645","0.0-1.0-58.0","0","0","69464","","null","","","null","6","","NaN","","","","","","","","","","","","","",""
"","response","","html-keyboard-response","46","114180","0.0-1.0-59.0-0.0","0","0","69464","","529","","","68","6","","","1","6","training","adjacent","FG","6","7","Q.jpg","R.jpg","1","1","1","",""
"","feedback","","html-keyboard-response","47","115185","0.0-1.0-60.0-0.0","0","0","69464","","null","","","null","6","","","","","","","","","","","","","","","",""
"","ITI","","html-keyboard-response","48","116191","0.0-1.0-63.0","0","0","69464","","null","","","null","6","","","","","","","","","","","","","","","NaN",""
"","S1","","html-keyboard-response","49","116445","0.0-1.0-65.0","0","0","69464","","null","","","null","7","","","","","","","","","","","","","","","",""
"","ISI","","html-keyboard-response","50","116600","0.0-1.0-66.0","0","0","69464","","null","","","null","7","NaN","","","","","","","","","","","","","","",""
"","S2","","html-keyboard-response","51","116856","0.0-1.0-67.0","0","0","69464","","null","","","null","7","","NaN","","","","","","","","","","","","","",""
"","response","","html-keyboard-response","52","117290","0.0-1.0-68.0-0.0","0","0","69464","","430","","","68","7","","","1","7","training","adjacent","BA","2","1","O.jpg","N.jpg","1","0","0","",""
"","feedback","","html-keyboard-response","53","118296","0.0-1.0-69.0-0.0","0","0","69464","","null","","","null","7","","","","","","","","","","","","","","","",""
"","time_out","","html-keyboard-response","54","120301","0.0-1.0-71.0-0.0","0","0","69464","","null","","","null","7","","","","","","","","","","","","","","","",""
"","ITI","","html-keyboard-response","55","121306","0.0-1.0-72.0","0","0","69464","","null","","","null","7","","","","","","","","","","","","","","","NaN",""
"","S1","","html-keyboard-response","56","121562","0.0-1.0-74.0","0","0","69464","","null","","","null","8","","","","","","","","","","","","","","","",""
"","ISI","","html-keyboard-response","57","121716","0.0-1.0-75.0","0","0","69464","","null","","","null","8","NaN","","","","","","","","","","","","","","",""
"","S2","","html-keyboard-response","58","121972","0.0-1.0-76.0","0","0","69464","","null","","","null","8","","NaN","","","","","","","","","","","","","",""
"","response","","html-keyboard-response","59","122107","0.0-1.0-77.0-0.0","0","0","69464","","132","","","75","8","","","1","8","training","adjacent","DE","4","5","M.jpg","L.jpg","0","1","0","",""
"","feedback","","html-keyboard-response","60","123114","0.0-1.0-78.0-0.0","0","0","69464","","null","","","null","8","","","","","","","","","","","","","","","",""
"","time_out","","html-keyboard-response","61","125120","0.0-1.0-80.0-0.0","0","0","69464","","null","","","null","8","","","","","","","","","","","","","","","",""
"","ITI","","html-keyboard-response","62","126126","0.0-1.0-81.0","0","0","69464","","null","","","null","8","","","","","","","","","","","","","","","NaN",""
"","S1","","html-keyboard-response","63","126380","0.0-1.0-83.0","0","0","69464","","null","","","null","9","","","","","","","","","","","","","","","",""
"","ISI","","html-keyboard-response","64","126535","0.0-1.0-84.0","0","0","69464","","null","","","null","9","NaN","","","","","","","","","","","","","","",""
"","S2","","html-keyboard-response","65","126790","0.0-1.0-85.0","0","0","69464","","null","","","null","9","","NaN","","","","","","","","","","","","","",""
"","response","","html-keyboard-response","66","127083","0.0-1.0-86.0-0.0","0","0","69464","","288","","","75","9","","","1","9","training","adjacent","FE","6","5","Q.jpg","L.jpg","0","0","1","",""
"","feedback","","html-keyboard-response","67","128089","0.0-1.0-87.0-0.0","0","0","69464","","null","","","null","9","","","","","","","","","","","","","","","",""
"","ITI","","html-keyboard-response","68","129095","0.0-1.0-90.0","0","0","69464","","null","","","null","9","","","","","","","","","","","","","","","NaN",""
"","S1","","html-keyboard-response","69","129350","0.0-1.0-92.0","0","0","69464","","null","","","null","10","","","","","","","","","","","","","","","",""
"","ISI","","html-keyboard-response","70","129505","0.0-1.0-93.0","0","0","69464","","null","","","null","10","NaN","","","","","","","","","","","","","","",""
"","S2","","html-keyboard-response","71","129761","0.0-1.0-94.0","0","0","69464","","null","","","null","10","","NaN","","","","","","","","","","","","","",""
"","response","","html-keyboard-response","72","130210","0.0-1.0-95.0-0.0","0","0","69464","","445","","","75","10","","","1","10","training","adjacent","FG","6","7","Q.jpg","R.jpg","0","1","0","",""
"","feedback","","html-keyboard-response","73","131216","0.0-1.0-96.0-0.0","0","0","69464","","null","","","null","10","","","","","","","","","","","","","","","",""
"","time_out","","html-keyboard-response","74","133222","0.0-1.0-98.0-0.0","0","0","69464","","null","","","null","10","","","","","","","","","","","","","","","",""
"","ITI","","html-keyboard-response","75","134228","0.0-1.0-99.0","0","0","69464","","null","","","null","10","","","","","","","","","","","","","","","NaN",""
"","S1","","html-keyboard-response","76","134484","0.0-1.0-101.0","0","0","69464","","null","","","null","11","","","","","","","","","","","","","","","",""
"","ISI","","html-keyboard-response","77","134639","0.0-1.0-102.0","0","0","69464","","null","","","null","11","NaN","","","","","","","","","","","","","","",""
"","S2","","html-keyboard-response","78","134895","0.0-1.0-103.0","0","0","69464","","null","","","null","11","","NaN","","","","","","","","","","","","","",""
"","response","","html-keyboard-response","79","135348","0.0-1.0-104.0-0.0","0","0","69464","","448","","","75","11","","","1","11","training","adjacent","AB","1","2","N.jpg","O.jpg","0","1","0","",""
"","feedback","","html-keyboard-response","80","136353","0.0-1.0-105.0-0.0","0","0","69464","","null","","","null","11","","","","","","","","","","","","","","","",""
"","time_out","","html-keyboard-response","81","138357","0.0-1.0-107.0-0.0","0","0","69464","","null","","","null","11","","","","","","","","","","","","","","","",""
"","ITI","","html-keyboard-response","82","139364","0.0-1.0-108.0","0","0","69464","","null","","","null","11","","","","","","","","","","","","","","","NaN",""
"","S1","","html-keyboard-response","83","139622","0.0-1.0-110.0","0","0","69464","","null","","","null","12","","","","","","","","","","","","","","","",""
"","ISI","","html-keyboard-response","84","139776","0.0-1.0-111.0","0","0","69464","","null","","","null","12","NaN","","","","","","","","","","","","","","",""
"","S2","","html-keyboard-response","85","140033","0.0-1.0-112.0","0","0","69464","","null","","","null","12","","NaN","","","","","","","","","","","","","",""
"","response","","html-keyboard-response","86","141002","0.0-1.0-113.0-0.0","0","0","69464","","965","","","68","12","","","1","12","training","adjacent","ED","5","4","L.jpg","M.jpg","1","0","0","",""
"","feedback","","html-keyboard-response","87","142008","0.0-1.0-114.0-0.0","0","0","69464","","null","","","null","12","","","","","","","","","","","","","","","",""
"","time_out","","html-keyboard-response","88","144011","0.0-1.0-116.0-0.0","0","0","69464","","null","","","null","12","","","","","","","","","","","","","","","",""
"","ITI","","html-keyboard-response","89","145016","0.0-1.0-117.0","0","0","69464","","null","","","null","12","","","","","","","","","","","","","","","NaN",""
"","S1","","html-keyboard-response","90","145271","0.0-1.0-119.0","0","0","69464","","null","","","null","13","","","","","","","","","","","","","","","",""
"","ISI","","html-keyboard-response","91","145424","0.0-1.0-120.0","0","0","69464","","null","","","null","13","NaN","","","","","","","","","","","","","","",""
"","S2","","html-keyboard-response","92","145679","0.0-1.0-121.0","0","0","69464","","null","","","null","13","","NaN","","","","","","","","","","","","","",""
"","response","","html-keyboard-response","93","145859","0.0-1.0-122.0-0.0","0","0","69464","","175","","","75","13","","","1","13","training","adjacent","GF","7","6","R.jpg","Q.jpg","0","0","1","",""
"","feedback","","html-keyboard-response","94","146865","0.0-1.0-123.0-0.0","0","0","69464","","null","","","null","13","","","","","","","","","","","","","","","",""
"","ITI","","html-keyboard-response","95","147870","0.0-1.0-126.0","0","0","69464","","null","","","null","13","","","","","","","","","","","","","","","NaN",""
"","S1","","html-keyboard-response","96","148126","0.0-1.0-128.0","0","0","69464","","null","","","null","14","","","","","","","","","","","","","","","",""
"","ISI","","html-keyboard-response","97","148279","0.0-1.0-129.0","0","0","69464","","null","","","null","14","NaN","","","","","","","","","","","","","","",""
"","S2","","html-keyboard-response","98","148537","0.0-1.0-130.0","0","0","69464","","null","","","null","14","","NaN","","","","","","","","","","","","","",""
"","response","","html-keyboard-response","99","148979","0.0-1.0-131.0-0.0","0","0","69464","","437","","","75","14","","","1","14","training","adjacent","ED","5","4","L.jpg","M.jpg","0","0","1","",""
"","feedback","","html-keyboard-response","100","149985","0.0-1.0-132.0-0.0","0","0","69464","","null","","","null","14","","","","","","","","","","","","","","","",""
"","ITI","","html-keyboard-response","101","150991","0.0-1.0-135.0","0","0","69464","","null","","","null","14","","","","","","","","","","","","","","","NaN",""
"","S1","","html-keyboard-response","102","151246","0.0-1.0-137.0","0","0","69464","","null","","","null","15","","","","","","","","","","","","","","","",""
"","ISI","","html-keyboard-response","103","151399","0.0-1.0-138.0","0","0","69464","","null","","","null","15","NaN","","","","","","","","","","","","","","",""
"","S2","","html-keyboard-response","104","151655","0.0-1.0-139.0","0","0","69464","","null","","","null","15","","NaN","","","","","","","","","","","","","",""
"","response","","html-keyboard-response","105","152234","0.0-1.0-140.0-0.0","0","0","69464","","576","","","68","15","","","1","15","training","adjacent","GF","7","6","R.jpg","Q.jpg","1","0","0","",""
"","feedback","","html-keyboard-response","106","153240","0.0-1.0-141.0-0.0","0","0","69464","","null","","","null","15","","","","","","","","","","","","","","","",""
"","time_out","","html-keyboard-response","107","155246","0.0-1.0-143.0-0.0","0","0","69464","","null","","","null","15","","","","","","","","","","","","","","","",""
"","ITI","","html-keyboard-response","108","156251","0.0-1.0-144.0","0","0","69464","","null","","","null","15","","","","","","","","","","","","","","","NaN",""
"","S1","","html-keyboard-response","109","156506","0.0-1.0-146.0","0","0","69464","","null","","","null","16","","","","","","","","","","","","","","","",""
"","ISI","","html-keyboard-response","110","156661","0.0-1.0-147.0","0","0","69464","","null","","","null","16","NaN","","","","","","","","","","","","","","",""
"","S2","","html-keyboard-response","111","156916","0.0-1.0-148.0","0","0","69464","","null","","","null","16","","NaN","","","","","","","","","","","","","",""
"","response","","html-keyboard-response","112","157098","0.0-1.0-149.0-0.0","0","0","69464","","178","","","75","16","","","1","16","training","adjacent","EF","5","6","L.jpg","Q.jpg","0","1","0","",""
"","feedback","","html-keyboard-response","113","158105","0.0-1.0-150.0-0.0","0","0","69464","","null","","","null","16","","","","","","","","","","","","","","","",""
"","time_out","","html-keyboard-response","114","160111","0.0-1.0-152.0-0.0","0","0","69464","","null","","","null","16","","","","","","","","","","","","","","","",""
"","ITI","","html-keyboard-response","115","161117","0.0-1.0-153.0","0","0","69464","","null","","","null","16","","","","","","","","","","","","","","","NaN",""
"","S1","","html-keyboard-response","116","161373","0.0-1.0-155.0","0","0","69464","","null","","","null","17","","","","","","","","","","","","","","","",""
"","ISI","","html-keyboard-response","117","161527","0.0-1.0-156.0","0","0","69464","","null","","","null","17","NaN","","","","","","","","","","","","","","",""
"","S2","","html-keyboard-response","118","161783","0.0-1.0-157.0","0","0","69464","","null","","","null","17","","NaN","","","","","","","","","","","","","",""
"","response","","html-keyboard-response","119","161930","0.0-1.0-158.0-0.0","0","0","69464","","144","","","75","17","","","1","17","training","adjacent","EF","5","6","L.jpg","Q.jpg","0","1","0","",""
"","feedback","","html-keyboard-response","120","162936","0.0-1.0-159.0-0.0","0","0","69464","","null","","","null","17","","","","","","","","","","","","","","","",""
"","time_out","","html-keyboard-response","121","164942","0.0-1.0-161.0-0.0","0","0","69464","","null","","","null","17","","","","","","","","","","","","","","","",""
"","ITI","","html-keyboard-response","122","165949","0.0-1.0-162.0","0","0","69464","","null","","","null","17","","","","","","","","","","","","","","","NaN",""
"","S1","","html-keyboard-response","123","166205","0.0-1.0-164.0","0","0","69464","","null","","","null","18","","","","","","","","","","","","","","","",""
"","ISI","","html-keyboard-response","124","166361","0.0-1.0-165.0","0","0","69464","","null","","","null","18","NaN","","","","","","","","","","","","","","",""
"","S2","","html-keyboard-response","125","166618","0.0-1.0-166.0","0","0","69464","","null","","","null","18","","NaN","","","","","","","","","","","","","",""
"","response","","html-keyboard-response","126","168372","0.0-1.0-167.0-0.0","0","0","69464","","null","","","null","18","","","1","18","training","adjacent","BC","2","3","O.jpg","P.jpg","NaN","1","0","",""
"","too_slow_prompt","","html-keyboard-response","127","169377","0.0-1.0-169.0-0.0","1","0","69464","","null","","","null","","","","","","","","","","","","","","","","",""
"","time_out","","html-keyboard-response","128","171383","0.0-1.0-170.0-0.0","0","0","69464","","null","","","null","18","","","","","","","","","","","","","","","",""
"","ITI","","html-keyboard-response","129","172387","0.0-1.0-171.0","0","0","69464","","null","","","null","18","","","","","","","","","","","","","","","NaN",""
"","S1","","html-keyboard-response","130","172642","0.0-1.0-173.0","0","0","69464","","null","","","null","19","","","","","","","","","","","","","","","",""
"","ISI","","html-keyboard-response","131","172797","0.0-1.0-174.0","0","0","69464","","null","","","null","19","NaN","","","","","","","","","","","","","","",""
"","S2","","html-keyboard-response","132","173052","0.0-1.0-175.0","0","0","69464","","null","","","null","19","","NaN","","","","","","","","","","","","","",""
"","response","","html-keyboard-response","133","173314","0.0-1.0-176.0-0.0","0","0","69464","","258","","","75","19","","","1","19","training","adjacent","AB","1","2","N.jpg","O.jpg","0","1","0","",""
"","feedback","","html-keyboard-response","134","174320","0.0-1.0-177.0-0.0","0","0","69464","","null","","","null","19","","","","","","","","","","","","","","","",""
"","time_out","","html-keyboard-response","135","176327","0.0-1.0-179.0-0.0","0","0","69464","","null","","","null","19","","","","","","","","","","","","","","","",""
"","ITI","","html-keyboard-response","136","177333","0.0-1.0-180.0","0","0","69464","","null","","","null","19","","","","","","","","","","","","","","","NaN",""
"","S1","","html-keyboard-response","137","177589","0.0-1.0-182.0","0","0","69464","","null","","","null","20","","","","","","","","","","","","","","","",""
"","ISI","","html-keyboard-response","138","177744","0.0-1.0-183.0","0","0","69464","","null","","","null","20","NaN","","","","","","","","","","","","","","",""
"","S2","","html-keyboard-response","139","177770","0.0-1.0-184.0","0","0","69464","","21","","","68","20","","d","1","20","training","adjacent","BA","2","1","O.jpg","N.jpg","1","0","0","",""
"","feedback","","html-keyboard-response","140","178778","0.0-1.0-186.0-0.0","0","0","69464","","null","","","null","20","","","","","","","","","","","","","","","",""
"","time_out","","html-keyboard-response","141","180783","0.0-1.0-188.0-0.0","0","0","69464","","null","","","null","20","","","","","","","","","","","","","","","",""
"","ITI","","html-keyboard-response","142","181788","0.0-1.0-189.0","0","0","69464","","null","","","null","20","","","","","","","","","","","","","","","NaN",""
"","S1","","html-keyboard-response","143","182043","0.0-1.0-191.0","0","0","69464","","null","","","null","21","","","","","","","","","","","","","","","",""
"","ISI","","html-keyboard-response","144","182198","0.0-1.0-192.0","0","0","69464","","null","","","null","21","NaN","","","","","","","","","","","","","","",""
"","S2","","html-keyboard-response","145","182454","0.0-1.0-193.0","0","0","69464","","null","","","null","21","","NaN","","","","","","","","","","","","","",""
"","response","","html-keyboard-response","146","182594","0.0-1.0-194.0-0.0","0","0","69464","","136","","","75","21","","","1","21","training","adjacent","BC","2","3","O.jpg","P.jpg","0","1","0","",""
"","feedback","","html-keyboard-response","147","183600","0.0-1.0-195.0-0.0","0","0","69464","","null","","","null","21","","","","","","","","","","","","","","","",""
"","time_out","","html-keyboard-response","148","185606","0.0-1.0-197.0-0.0","0","0","69464","","null","","","null","21","","","","","","","","","","","","","","","",""
"","ITI","","html-keyboard-response","149","186611","0.0-1.0-198.0","0","0","69464","","null","","","null","21","","","","","","","","","","","","","","","NaN",""
"","S1","","html-keyboard-response","150","186867","0.0-1.0-200.0","0","0","69464","","null","","","null","22","","","","","","","","","","","","","","","",""
"","ISI","","html-keyboard-response","151","187022","0.0-1.0-201.0","0","0","69464","","null","","","null","22","NaN","","","","","","","","","","","","","","",""
"","S2","","html-keyboard-response","152","187277","0.0-1.0-202.0","0","0","69464","","null","","","null","22","","NaN","","","","","","","","","","","","","",""
"","response","","html-keyboard-response","153","187452","0.0-1.0-203.0-0.0","0","0","69464","","170","","","68","22","","","1","22","training","adjacent","CD","3","4","P.jpg","M.jpg","1","1","1","",""
"","feedback","","html-keyboard-response","154","188458","0.0-1.0-204.0-0.0","0","0","69464","","null","","","null","22","","","","","","","","","","","","","","","",""
"","ITI","","html-keyboard-response","155","189463","0.0-1.0-207.0","0","0","69464","","null","","","null","22","","","","","","","","","","","","","","","NaN",""
"","S1","","html-keyboard-response","156","189719","0.0-1.0-209.0","0","0","69464","","null","","","null","23","","","","","","","","","","","","","","","",""
"","ISI","","html-keyboard-response","157","189875","0.0-1.0-210.0","0","0","69464","","null","","","null","23","NaN","","","","","","","","","","","","","","",""
"","S2","","html-keyboard-response","158","190131","0.0-1.0-211.0","0","0","69464","","null","","","null","23","","NaN","","","","","","","","","","","","","",""
"","response","","html-keyboard-response","159","190554","0.0-1.0-212.0-0.0","0","0","69464","","419","","","75","23","","","1","23","training","adjacent","EF","5","6","L.jpg","Q.jpg","0","1","0","",""
"","feedback","","html-keyboard-response","160","191559","0.0-1.0-213.0-0.0","0","0","69464","","null","","","null","23","","","","","","","","","","","","","","","",""
"","time_out","","html-keyboard-response","161","193564","0.0-1.0-215.0-0.0","0","0","69464","","null","","","null","23","","","","","","","","","","","","","","","",""
"","ITI","","html-keyboard-response","162","194570","0.0-1.0-216.0","0","0","69464","","null","","","null","23","","","","","","","","","","","","","","","NaN",""
"","S1","","html-keyboard-response","163","194826","0.0-1.0-218.0","0","0","69464","","null","","","null","24","","","","","","","","","","","","","","","",""
"","ISI","","html-keyboard-response","164","194981","0.0-1.0-219.0","0","0","69464","","null","","","null","24","NaN","","","","","","","","","","","","","","",""
"","S2","","html-keyboard-response","165","195237","0.0-1.0-220.0","0","0","69464","","null","","","null","24","","NaN","","","","","","","","","","","","","",""
"","response","","html-keyboard-response","166","195424","0.0-1.0-221.0-0.0","0","0","69464","","184","","","68","24","","","1","24","training","adjacent","CD","3","4","P.jpg","M.jpg","1","1","1","",""
"","feedback","","html-keyboard-response","167","196427","0.0-1.0-222.0-0.0","0","0","69464","","null","","","null","24","","","","","","","","","","","","","","","",""
"","ITI","","html-keyboard-response","168","197434","0.0-1.0-225.0","0","0","69464","","null","","","null","24","","","","","","","","","","","","","","","NaN",""
"","S1","","html-keyboard-response","169","197689","0.0-1.0-227.0","0","0","69464","","null","","","null","25","","","","","","","","","","","","","","","",""
"","ISI","","html-keyboard-response","170","197844","0.0-1.0-228.0","0","0","69464","","null","","","null","25","NaN","","","","","","","","","","","","","","",""
"","S2","","html-keyboard-response","171","198100","0.0-1.0-229.0","0","0","69464","","null","","","null","25","","NaN","","","","","","","","","","","","","",""
"","response","","html-keyboard-response","172","198267","0.0-1.0-230.0-0.0","0","0","69464","","162","","","75","25","","","1","25","training","adjacent","DE","4","5","M.jpg","L.jpg","0","1","0","",""
"","feedback","","html-keyboard-response","173","199273","0.0-1.0-231.0-0.0","0","0","69464","","null","","","null","25","","","","","","","","","","","","","","","",""
"","time_out","","html-keyboard-response","174","201278","0.0-1.0-233.0-0.0","0","0","69464","","null","","","null","25","","","","","","","","","","","","","","","",""
"","ITI","","html-keyboard-response","175","202283","0.0-1.0-234.0","0","0","69464","","null","","","null","25","","","","","","","","","","","","","","","NaN",""
"","S1","","html-keyboard-response","176","202539","0.0-1.0-236.0","0","0","69464","","null","","","null","26","","","","","","","","","","","","","","","",""
"","ISI","","html-keyboard-response","177","202694","0.0-1.0-237.0","0","0","69464","","null","","","null","26","NaN","","","","","","","","","","","","","","",""
"","S2","","html-keyboard-response","178","202950","0.0-1.0-238.0","0","0","69464","","null","","","null","26","","NaN","","","","","","","","","","","","","",""
"","response","","html-keyboard-response","179","203258","0.0-1.0-239.0-0.0","0","0","69464","","304","","","68","26","","","1","26","training","adjacent","CB","3","2","P.jpg","O.jpg","1","0","0","",""
"","feedback","","html-keyboard-response","180","204265","0.0-1.0-240.0-0.0","0","0","69464","","null","","","null","26","","","","","","","","","","","","","","","",""
"","time_out","","html-keyboard-response","181","206271","0.0-1.0-242.0-0.0","0","0","69464","","null","","","null","26","","","","","","","","","","","","","","","",""
"","ITI","","html-keyboard-response","182","207276","0.0-1.0-243.0","0","0","69464","","null","","","null","26","","","","","","","","","","","","","","","NaN",""
"","S1","","html-keyboard-response","183","207531","0.0-1.0-245.0","0","0","69464","","null","","","null","27","","","","","","","","","","","","","","","",""
"","ISI","","html-keyboard-response","184","207687","0.0-1.0-246.0","0","0","69464","","null","","","null","27","NaN","","","","","","","","","","","","","","",""
"","S2","","html-keyboard-response","185","207714","0.0-1.0-247.0","0","0","69464","","23","","","75","27","","k","1","27","training","adjacent","FG","6","7","Q.jpg","R.jpg","0","1","0","",""
"","feedback","","html-keyboard-response","186","208720","0.0-1.0-249.0-0.0","0","0","69464","","null","","","null","27","","","","","","","","","","","","","","","",""
"","time_out","","html-keyboard-response","187","210725","0.0-1.0-251.0-0.0","0","0","69464","","null","","","null","27","","","","","","","","","","","","","","","",""
"","ITI","","html-keyboard-response","188","211731","0.0-1.0-252.0","0","0","69464","","null","","","null","27","","","","","","","","","","","","","","","NaN",""
"","S1","","html-keyboard-response","189","211986","0.0-1.0-254.0","0","0","69464","","null","","","null","28","","","","","","","","","","","","","","","",""
"","ISI","","html-keyboard-response","190","212140","0.0-1.0-255.0","0","0","69464","","null","","","null","28","NaN","","","","","","","","","","","","","","",""
"","S2","","html-keyboard-response","191","212395","0.0-1.0-256.0","0","0","69464","","null","","","null","28","","NaN","","","","","","","","","","","","","",""
"","response","","html-keyboard-response","192","212554","0.0-1.0-257.0-0.0","0","0","69464","","156","","","68","28","","","1","28","training","adjacent","AB","1","2","N.jpg","O.jpg","1","1","1","",""
"","feedback","","html-keyboard-response","193","213558","0.0-1.0-258.0-0.0","0","0","69464","","null","","","null","28","","","","","","","","","","","","","","","",""
"","ITI","","html-keyboard-response","194","214564","0.0-1.0-261.0","0","0","69464","","null","","","null","28","","","","","","","","","","","","","","","NaN",""
"","S1","","html-keyboard-response","195","214818","0.0-1.0-263.0","0","0","69464","","null","","","null","29","","","","","","","","","","","","","","","",""
"","ISI","","html-keyboard-response","196","214973","0.0-1.0-264.0","0","0","69464","","null","","","null","29","NaN","","","","","","","","","","","","","","",""
"","S2","","html-keyboard-response","197","215228","0.0-1.0-265.0","0","0","69464","","null","","","null","29","","NaN","","","","","","","","","","","","","",""
"","response","","html-keyboard-response","198","215306","0.0-1.0-266.0-0.0","0","0","69464","","74","","","75","29","","","1","29","training","adjacent","DE","4","5","M.jpg","L.jpg","0","1","0","",""
"","feedback","","html-keyboard-response","199","216312","0.0-1.0-267.0-0.0","0","0","69464","","null","","","null","29","","","","","","","","","","","","","","","",""
"","time_out","","html-keyboard-response","200","218319","0.0-1.0-269.0-0.0","0","0","69464","","null","","","null","29","","","","","","","","","","","","","","","",""
"","ITI","","html-keyboard-response","201","219325","0.0-1.0-270.0","0","0","69464","","null","","","null","29","","","","","","","","","","","","","","","NaN",""
"","S1","","html-keyboard-response","202","219581","0.0-1.0-272.0","0","0","69464","","null","","","null","30","","","","","","","","","","","","","","","",""
"","ISI","","html-keyboard-response","203","219736","0.0-1.0-273.0","0","0","69464","","null","","","null","30","NaN","","","","","","","","","","","","","","",""
"","S2","","html-keyboard-response","204","219992","0.0-1.0-274.0","0","0","69464","","null","","","null","30","","NaN","","","","","","","","","","","","","",""
"","response","","html-keyboard-response","205","220130","0.0-1.0-275.0-0.0","0","0","69464","","133","","","68","30","","","1","30","training","adjacent","EF","5","6","L.jpg","Q.jpg","1","1","1","",""
"","feedback","","html-keyboard-response","206","221137","0.0-1.0-276.0-0.0","0","0","69464","","null","","","null","30","","","","","","","","","","","","","","","",""
"","ITI","","html-keyboard-response","207","222143","0.0-1.0-279.0","0","0","69464","","null","","","null","30","","","","","","","","","","","","","","","NaN",""
"","S1","","html-keyboard-response","208","222396","0.0-1.0-281.0","0","0","69464","","null","","","null","31","","","","","","","","","","","","","","","",""
"","ISI","","html-keyboard-response","209","222551","0.0-1.0-282.0","0","0","69464","","null","","","null","31","NaN","","","","","","","","","","","","","","",""
"","S2","","html-keyboard-response","210","222807","0.0-1.0-283.0","0","0","69464","","null","","","null","31","","NaN","","","","","","","","","","","","","",""
"","response","","html-keyboard-response","211","222938","0.0-1.0-284.0-0.0","0","0","69464","","127","","","68","31","","","1","31","training","adjacent","DC","4","3","M.jpg","P.jpg","1","0","0","",""
"","feedback","","html-keyboard-response","212","223945","0.0-1.0-285.0-0.0","0","0","69464","","null","","","null","31","","","","","","","","","","","","","","","",""
"","time_out","","html-keyboard-response","213","225949","0.0-1.0-287.0-0.0","0","0","69464","","null","","","null","31","","","","","","","","","","","","","","","",""
"","ITI","","html-keyboard-response","214","226954","0.0-1.0-288.0","0","0","69464","","null","","","null","31","","","","","","","","","","","","","","","NaN",""
"","S1","","html-keyboard-response","215","227209","0.0-1.0-290.0","0","0","69464","","null","","","null","32","","","","","","","","","","","","","","","",""
"","ISI","","html-keyboard-response","216","227363","0.0-1.0-291.0","0","0","69464","","null","","","null","32","NaN","","","","","","","","","","","","","","",""
"","S2","","html-keyboard-response","217","227618","0.0-1.0-292.0","0","0","69464","","null","","","null","32","","NaN","","","","","","","","","","","","","",""
"","response","","html-keyboard-response","218","227723","0.0-1.0-293.0-0.0","0","0","69464","","99","","","75","32","","","1","32","training","adjacent","CD","3","4","P.jpg","M.jpg","0","1","0","",""
"","feedback","","html-keyboard-response","219","228728","0.0-1.0-294.0-0.0","0","0","69464","","null","","","null","32","","","","","","","","","","","","","","","",""
"","time_out","","html-keyboard-response","220","230735","0.0-1.0-296.0-0.0","0","0","69464","","null","","","null","32","","","","","","","","","","","","","","","",""
"","ITI","","html-keyboard-response","221","231740","0.0-1.0-297.0","0","0","69464","","null","","","null","32","","","","","","","","","","","","","","","NaN",""
"","S1","","html-keyboard-response","222","232000","0.0-1.0-299.0","0","0","69464","","null","","","null","33","","","","","","","","","","","","","","","",""
"","ISI","","html-keyboard-response","223","232156","0.0-1.0-300.0","0","0","69464","","null","","","null","33","NaN","","","","","","","","","","","","","","",""
"","S2","","html-keyboard-response","224","232411","0.0-1.0-301.0","0","0","69464","","null","","","null","33","","NaN","","","","","","","","","","","","","",""
"","response","","html-keyboard-response","225","232507","0.0-1.0-302.0-0.0","0","0","69464","","90","","","68","33","","","1","33","training","adjacent","DE","4","5","M.jpg","L.jpg","1","1","1","",""
"","feedback","","html-keyboard-response","226","233513","0.0-1.0-303.0-0.0","0","0","69464","","null","","","null","33","","","","","","","","","","","","","","","",""
"","ITI","","html-keyboard-response","227","234523","0.0-1.0-306.0","0","0","69464","","null","","","null","33","","","","","","","","","","","","","","","NaN",""
"","S1","","html-keyboard-response","228","234779","0.0-1.0-308.0","0","0","69464","","null","","","null","34","","","","","","","","","","","","","","","",""
"","ISI","","html-keyboard-response","229","234933","0.0-1.0-309.0","0","0","69464","","null","","","null","34","NaN","","","","","","","","","","","","","","",""
"","S2","","html-keyboard-response","230","235190","0.0-1.0-310.0","0","0","69464","","null","","","null","34","","NaN","","","","","","","","","","","","","",""
"","response","","html-keyboard-response","231","235282","0.0-1.0-311.0-0.0","0","0","69464","","88","","","75","34","","","1","34","training","adjacent","GF","7","6","R.jpg","Q.jpg","0","0","1","",""
"","feedback","","html-keyboard-response","232","236289","0.0-1.0-312.0-0.0","0","0","69464","","null","","","null","34","","","","","","","","","","","","","","","",""
"","ITI","","html-keyboard-response","233","237295","0.0-1.0-315.0","0","0","69464","","null","","","null","34","","","","","","","","","","","","","","","NaN",""
"","S1","","html-keyboard-response","234","237550","0.0-1.0-317.0","0","0","69464","","null","","","null","35","","","","","","","","","","","","","","","",""
"","ISI","","html-keyboard-response","235","237706","0.0-1.0-318.0","0","0","69464","","null","","","null","35","NaN","","","","","","","","","","","","","","",""
"","S2","","html-keyboard-response","236","237962","0.0-1.0-319.0","0","0","69464","","null","","","null","35","","NaN","","","","","","","","","","","","","",""
"","response","","html-keyboard-response","237","238050","0.0-1.0-320.0-0.0","0","0","69464","","82","","","68","35","","","1","35","training","adjacent","DC","4","3","M.jpg","P.jpg","1","0","0","",""
"","feedback","","html-keyboard-response","238","239056","0.0-1.0-321.0-0.0","0","0","69464","","null","","","null","35","","","","","","","","","","","","","","","",""
"","time_out","","html-keyboard-response","239","241062","0.0-1.0-323.0-0.0","0","0","69464","","null","","","null","35","","","","","","","","","","","","","","","",""
"","ITI","","html-keyboard-response","240","242067","0.0-1.0-324.0","0","0","69464","","null","","","null","35","","","","","","","","","","","","","","","NaN",""
"","S1","","html-keyboard-response","241","242322","0.0-1.0-326.0","0","0","69464","","null","","","null","36","","","","","","","","","","","","","","","",""
"","ISI","","html-keyboard-response","242","242477","0.0-1.0-327.0","0","0","69464","","null","","","null","36","NaN","","","","","","","","","","","","","","",""
"","S2","","html-keyboard-response","243","242514","0.0-1.0-328.0","0","0","69464","","33","","","75","36","","k","1","36","training","adjacent","BC","2","3","O.jpg","P.jpg","0","1","0","",""
"","feedback","","html-keyboard-response","244","243521","0.0-1.0-330.0-0.0","0","0","69464","","null","","","null","36","","","","","","","","","","","","","","","",""
"","time_out","","html-keyboard-response","245","245527","0.0-1.0-332.0-0.0","0","0","69464","","null","","","null","36","","","","","","","","","","","","","","","",""
"","ITI","","html-keyboard-response","246","246533","0.0-1.0-333.0","0","0","69464","","null","","","null","36","","","","","","","","","","","","","","","NaN",""
"","S1","","html-keyboard-response","247","246788","0.0-1.0-335.0","0","0","69464","","null","","","null","37","","","","","","","","","","","","","","","",""
"","ISI","","html-keyboard-response","248","246944","0.0-1.0-336.0","0","0","69464","","null","","","null","37","NaN","","","","","","","","","","","","","","",""
"","S2","","html-keyboard-response","249","247202","0.0-1.0-337.0","0","0","69464","","null","","","null","37","","NaN","","","","","","","","","","","","","",""
"","response","","html-keyboard-response","250","247531","0.0-1.0-338.0-0.0","0","0","69464","","324","","","75","37","","","1","37","training","adjacent","GF","7","6","R.jpg","Q.jpg","0","0","1","",""
"","feedback","","html-keyboard-response","251","248536","0.0-1.0-339.0-0.0","0","0","69464","","null","","","null","37","","","","","","","","","","","","","","","",""
"","ITI","","html-keyboard-response","252","249542","0.0-1.0-342.0","0","0","69464","","null","","","null","37","","","","","","","","","","","","","","","NaN",""
"","S1","","html-keyboard-response","253","249798","0.0-1.0-344.0","0","0","69464","","null","","","null","38","","","","","","","","","","","","","","","",""
"","ISI","","html-keyboard-response","254","249953","0.0-1.0-345.0","0","0","69464","","null","","","null","38","NaN","","","","","","","","","","","","","","",""
"","S2","","html-keyboard-response","255","250209","0.0-1.0-346.0","0","0","69464","","null","","","null","38","","NaN","","","","","","","","","","","","","",""
"","response","","html-keyboard-response","256","250331","0.0-1.0-347.0-0.0","0","0","69464","","116","","","75","38","","","1","38","training","adjacent","FE","6","5","Q.jpg","L.jpg","0","0","1","",""
"","feedback","","html-keyboard-response","257","251337","0.0-1.0-348.0-0.0","0","0","69464","","null","","","null","38","","","","","","","","","","","","","","","",""
"","ITI","","html-keyboard-response","258","252343","0.0-1.0-351.0","0","0","69464","","null","","","null","38","","","","","","","","","","","","","","","NaN",""
"","S1","","html-keyboard-response","259","252599","0.0-1.0-353.0","0","0","69464","","null","","","null","39","","","","","","","","","","","","","","","",""
"","ISI","","html-keyboard-response","260","252755","0.0-1.0-354.0","0","0","69464","","null","","","null","39","NaN","","","","","","","","","","","","","","",""
"","S2","","html-keyboard-response","261","253010","0.0-1.0-355.0","0","0","69464","","null","","","null","39","","NaN","","","","","","","","","","","","","",""
"","response","","html-keyboard-response","262","253178","0.0-1.0-356.0-0.0","0","0","69464","","162","","","68","39","","","1","39","training","adjacent","CB","3","2","P.jpg","O.jpg","1","0","0","",""
"","feedback","","html-keyboard-response","263","254184","0.0-1.0-357.0-0.0","0","0","69464","","null","","","null","39","","","","","","","","","","","","","","","",""
"","time_out","","html-keyboard-response","264","256188","0.0-1.0-359.0-0.0","0","0","69464","","null","","","null","39","","","","","","","","","","","","","","","",""
"","ITI","","html-keyboard-response","265","257194","0.0-1.0-360.0","0","0","69464","","null","","","null","39","","","","","","","","","","","","","","","NaN",""
"","S1","","html-keyboard-response","266","257450","0.0-1.0-362.0","0","0","69464","","null","","","null","40","","","","","","","","","","","","","","","",""
"","ISI","","html-keyboard-response","267","257605","0.0-1.0-363.0","0","0","69464","","null","","","null","40","NaN","","","","","","","","","","","","","","",""
"","S2","","html-keyboard-response","268","257861","0.0-1.0-364.0","0","0","69464","","null","","","null","40","","NaN","","","","","","","","","","","","","",""
"","response","","html-keyboard-response","269","257963","0.0-1.0-365.0-0.0","0","0","69464","","97","","","75","40","","","1","40","training","adjacent","ED","5","4","L.jpg","M.jpg","0","0","1","",""
"","feedback","","html-keyboard-response","270","258968","0.0-1.0-366.0-0.0","0","0","69464","","null","","","null","40","","","","","","","","","","","","","","","",""
"","ITI","","html-keyboard-response","271","259974","0.0-1.0-369.0","0","0","69464","","null","","","null","40","","","","","","","","","","","","","","","NaN",""
"","S1","","html-keyboard-response","272","260229","0.0-1.0-371.0","0","0","69464","","null","","","null","41","","","","","","","","","","","","","","","",""
"","ISI","","html-keyboard-response","273","260385","0.0-1.0-372.0","0","0","69464","","null","","","null","41","NaN","","","","","","","","","","","","","","",""
"","S2","","html-keyboard-response","274","260641","0.0-1.0-373.0","0","0","69464","","null","","","null","41","","NaN","","","","","","","","","","","","","",""
"","response","","html-keyboard-response","275","260914","0.0-1.0-374.0-0.0","0","0","69464","","268","","","68","41","","","1","41","training","adjacent","DC","4","3","M.jpg","P.jpg","1","0","0","",""
"","feedback","","html-keyboard-response","276","261920","0.0-1.0-375.0-0.0","0","0","69464","","null","","","null","41","","","","","","","","","","","","","","","",""
"","time_out","","html-keyboard-response","277","263925","0.0-1.0-377.0-0.0","0","0","69464","","null","","","null","41","","","","","","","","","","","","","","","",""
"","ITI","","html-keyboard-response","278","264931","0.0-1.0-378.0","0","0","69464","","null","","","null","41","","","","","","","","","","","","","","","NaN",""
"","S1","","html-keyboard-response","279","265186","0.0-1.0-380.0","0","0","69464","","null","","","null","42","","","","","","","","","","","","","","","",""
"","ISI","","html-keyboard-response","280","265340","0.0-1.0-381.0","0","0","69464","","null","","","null","42","NaN","","","","","","","","","","","","","","",""
"","S2","","html-keyboard-response","281","265595","0.0-1.0-382.0","0","0","69464","","null","","","null","42","","NaN","","","","","","","","","","","","","",""
"","response","","html-keyboard-response","282","265802","0.0-1.0-383.0-0.0","0","0","69464","","202","","","75","42","","","1","42","training","adjacent","CB","3","2","P.jpg","O.jpg","0","0","1","",""
"","feedback","","html-keyboard-response","283","266808","0.0-1.0-384.0-0.0","0","0","69464","","null","","","null","42","","","","","","","","","","","","","","","",""
"","ITI","","html-keyboard-response","284","267815","0.0-1.0-387.0","0","0","69464","","null","","","null","42","","","","","","","","","","","","","","","NaN",""
"","S1","","html-keyboard-response","285","268070","0.0-1.0-389.0","0","0","69464","","null","","","null","43","","","","","","","","","","","","","","","",""
"","ISI","","html-keyboard-response","286","268226","0.0-1.0-390.0","0","0","69464","","null","","","null","43","NaN","","","","","","","","","","","","","","",""
"","S2","","html-keyboard-response","287","268480","0.0-1.0-391.0","0","0","69464","","null","","","null","43","","NaN","","","","","","","","","","","","","",""
"","response","","html-keyboard-response","288","268643","0.0-1.0-392.0-0.0","0","0","69464","","159","","","75","43","","","1","43","training","adjacent","BC","2","3","O.jpg","P.jpg","0","1","0","",""
"","feedback","","html-keyboard-response","289","269648","0.0-1.0-393.0-0.0","0","0","69464","","null","","","null","43","","","","","","","","","","","","","","","",""
"","time_out","","html-keyboard-response","290","271654","0.0-1.0-395.0-0.0","0","0","69464","","null","","","null","43","","","","","","","","","","","","","","","",""
"","ITI","","html-keyboard-response","291","272659","0.0-1.0-396.0","0","0","69464","","null","","","null","43","","","","","","","","","","","","","","","NaN",""
"","S1","","html-keyboard-response","292","272915","0.0-1.0-398.0","0","0","69464","","null","","","null","44","","","","","","","","","","","","","","","",""
"","ISI","","html-keyboard-response","293","273070","0.0-1.0-399.0","0","0","69464","","null","","","null","44","NaN","","","","","","","","","","","","","","",""
"","S2","","html-keyboard-response","294","273326","0.0-1.0-400.0","0","0","69464","","null","","","null","44","","NaN","","","","","","","","","","","","","",""
"","response","","html-keyboard-response","295","273586","0.0-1.0-401.0-0.0","0","0","69464","","256","","","68","44","","","1","44","training","adjacent","BA","2","1","O.jpg","N.jpg","1","0","0","",""
"","feedback","","html-keyboard-response","296","274593","0.0-1.0-402.0-0.0","0","0","69464","","null","","","null","44","","","","","","","","","","","","","","","",""
"","time_out","","html-keyboard-response","297","276600","0.0-1.0-404.0-0.0","0","0","69464","","null","","","null","44","","","","","","","","","","","","","","","",""
"","ITI","","html-keyboard-response","298","277606","0.0-1.0-405.0","0","0","69464","","null","","","null","44","","","","","","","","","","","","","","","NaN",""
"","S1","","html-keyboard-response","299","277862","0.0-1.0-407.0","0","0","69464","","null","","","null","45","","","","","","","","","","","","","","","",""
"","ISI","","html-keyboard-response","300","278017","0.0-1.0-408.0","0","0","69464","","null","","","null","45","NaN","","","","","","","","","","","","","","",""
"","S2","","html-keyboard-response","301","278278","0.0-1.0-409.0","0","0","69464","","null","","","null","45","","NaN","","","","","","","","","","","","","",""
"","response","","html-keyboard-response","302","278480","0.0-1.0-410.0-0.0","0","0","69464","","199","","","75","45","","","1","45","training","adjacent","FG","6","7","Q.jpg","R.jpg","0","1","0","",""
"","feedback","","html-keyboard-response","303","279485","0.0-1.0-411.0-0.0","0","0","69464","","null","","","null","45","","","","","","","","","","","","","","","",""
"","time_out","","html-keyboard-response","304","281491","0.0-1.0-413.0-0.0","0","0","69464","","null","","","null","45","","","","","","","","","","","","","","","",""
"","ITI","","html-keyboard-response","305","282495","0.0-1.0-414.0","0","0","69464","","null","","","null","45","","","","","","","","","","","","","","","NaN",""
"","S1","","html-keyboard-response","306","282750","0.0-1.0-416.0","0","0","69464","","null","","","null","46","","","","","","","","","","","","","","","",""
"","ISI","","html-keyboard-response","307","282905","0.0-1.0-417.0","0","0","69464","","null","","","null","46","NaN","","","","","","","","","","","","","","",""
"","S2","","html-keyboard-response","308","283161","0.0-1.0-418.0","0","0","69464","","null","","","null","46","","NaN","","","","","","","","","","","","","",""
"","response","","html-keyboard-response","309","283411","0.0-1.0-419.0-0.0","0","0","69464","","245","","","75","46","","","1","46","training","adjacent","ED","5","4","L.jpg","M.jpg","0","0","1","",""
"","feedback","","html-keyboard-response","310","284417","0.0-1.0-420.0-0.0","0","0","69464","","null","","","null","46","","","","","","","","","","","","","","","",""
"","ITI","","html-keyboard-response","311","285423","0.0-1.0-423.0","0","0","69464","","null","","","null","46","","","","","","","","","","","","","","","NaN",""
"","S1","","html-keyboard-response","312","285679","0.0-1.0-425.0","0","0","69464","","null","","","null","47","","","","","","","","","","","","","","","",""
"","ISI","","html-keyboard-response","313","285848","0.0-1.0-426.0","0","0","69464","","null","","","null","47","NaN","","","","","","","","","","","","","","",""
"","S2","","html-keyboard-response","314","286105","0.0-1.0-427.0","0","0","69464","","null","","","null","47","","NaN","","","","","","","","","","","","","",""
"","response","","html-keyboard-response","315","286234","0.0-1.0-428.0-0.0","0","0","69464","","125","","","68","47","","","1","47","training","adjacent","DC","4","3","M.jpg","P.jpg","1","0","0","",""
"","feedback","","html-keyboard-response","316","287242","0.0-1.0-429.0-0.0","0","0","69464","","null","","","null","47","","","","","","","","","","","","","","","",""
"","time_out","","html-keyboard-response","317","289247","0.0-1.0-431.0-0.0","0","0","69464","","null","","","null","47","","","","","","","","","","","","","","","",""
"","ITI","","html-keyboard-response","318","290253","0.0-1.0-432.0","0","0","69464","","null","","","null","47","","","","","","","","","","","","","","","NaN",""
"","block_over","","html-keyboard-response","319","312564","0.0-1.0-433.0-0.0","0","0","69464","","22304","","","32","47","","","","","","","","","","","","","","","",""
"","S1","","html-keyboard-response","320","312821","0.0-1.0-434.0","0","0","69464","","null","","","null","48","","","","","","","","","","","","","","","",""
"","ISI","","html-keyboard-response","321","312976","0.0-1.0-435.0","0","0","69464","","null","","","null","48","NaN","","","","","","","","","","","","","","",""
"","S2","","html-keyboard-response","322","313235","0.0-1.0-436.0","0","0","69464","","null","","","null","48","","NaN","","","","","","","","","","","","","",""
"","response","","html-keyboard-response","323","313930","0.0-1.0-437.0-0.0","0","0","69464","","690","","","75","48","","","2","48","training","adjacent","FE","6","5","Q.jpg","L.jpg","0","0","1","",""
"","feedback","","html-keyboard-response","324","314936","0.0-1.0-438.0-0.0","0","0","69464","","null","","","null","48","","","","","","","","","","","","","","","",""
"","ITI","","html-keyboard-response","325","315951","0.0-1.0-441.0","0","0","69464","","null","","","null","48","","","","","","","","","","","","","","","NaN",""
"","S1","","html-keyboard-response","326","316210","0.0-1.0-443.0","0","0","69464","","null","","","null","49","","","","","","","","","","","","","","","",""
"","ISI","","html-keyboard-response","327","316367","0.0-1.0-444.0","0","0","69464","","null","","","null","49","NaN","","","","","","","","","","","","","","",""
"","S2","","html-keyboard-response","328","316622","0.0-1.0-445.0","0","0","69464","","null","","","null","49","","NaN","","","","","","","","","","","","","",""
"","response","","html-keyboard-response","329","318377","0.0-1.0-446.0-0.0","0","0","69464","","null","","","null","49","","","2","49","training","adjacent","FG","6","7","Q.jpg","R.jpg","NaN","1","0","",""
"","too_slow_prompt","","html-keyboard-response","330","319382","0.0-1.0-448.0-0.0","1","0","69464","","null","","","null","","","","","","","","","","","","","","","","",""
"","time_out","","html-keyboard-response","331","321388","0.0-1.0-449.0-0.0","0","0","69464","","null","","","null","49","","","","","","","","","","","","","","","",""
"","ITI","","html-keyboard-response","332","322394","0.0-1.0-450.0","0","0","69464","","null","","","null","49","","","","","","","","","","","","","","","NaN",""
"","S1","","html-keyboard-response","333","322652","0.0-1.0-452.0","0","0","69464","","null","","","null","50","","","","","","","","","","","","","","","",""
"","ISI","","html-keyboard-response","334","322807","0.0-1.0-453.0","0","0","69464","","130","","","68","50","d","","","","","","","","","","","","","","",""
"","S2","","html-keyboard-response","335","323063","0.0-1.0-454.0","0","0","69464","","null","","","null","50","","NaN","","","","","","","","","","","","","",""
"","response","","html-keyboard-response","336","323803","0.0-1.0-455.0-0.0","0","0","69464","","734","","","68","50","","","2","50","training","adjacent","DC","4","3","M.jpg","P.jpg","1","0","0","",""
"","feedback","","html-keyboard-response","337","324810","0.0-1.0-456.0-0.0","0","0","69464","","null","","","null","50","","","","","","","","","","","","","","","",""
"","time_out","","html-keyboard-response","338","326816","0.0-1.0-458.0-0.0","0","0","69464","","null","","","null","50","","","","","","","","","","","","","","","",""
"","ITI","","html-keyboard-response","339","327823","0.0-1.0-459.0","0","0","69464","","null","","","null","50","","","","","","","","","","","","","","","NaN",""
"","S1","","html-keyboard-response","340","328078","0.0-1.0-461.0","0","0","69464","","null","","","null","51","","","","","","","","","","","","","","","",""
"","ISI","","html-keyboard-response","341","328234","0.0-1.0-462.0","0","0","69464","","null","","","null","51","NaN","","","","","","","","","","","","","","",""
"","S2","","html-keyboard-response","342","328258","0.0-1.0-463.0","0","0","69464","","20","","","75","51","","k","2","51","training","adjacent","GF","7","6","R.jpg","Q.jpg","0","0","1","",""
"","feedback","","html-keyboard-response","343","329266","0.0-1.0-465.0-0.0","0","0","69464","","null","","","null","51","","","","","","","","","","","","","","","",""
"","ITI","","html-keyboard-response","344","330272","0.0-1.0-468.0","0","0","69464","","null","","","null","51","","","","","","","","","","","","","","","NaN",""
"","S1","","html-keyboard-response","345","330527","0.0-1.0-470.0","0","0","69464","","null","","","null","52","","","","","","","","","","","","","","","",""
"","ISI","","html-keyboard-response","346","330683","0.0-1.0-471.0","0","0","69464","","null","","","null","52","NaN","","","","","","","","","","","","","","",""
"","S2","","html-keyboard-response","347","330938","0.0-1.0-472.0","0","0","69464","","null","","","null","52","","NaN","","","","","","","","","","","","","",""
"","response","","html-keyboard-response","348","331339","0.0-1.0-473.0-0.0","0","0","69464","","395","","","68","52","","","2","52","training","adjacent","GF","7","6","R.jpg","Q.jpg","1","0","0","",""
"","feedback","","html-keyboard-response","349","332348","0.0-1.0-474.0-0.0","0","0","69464","","null","","","null","52","","","","","","","","","","","","","","","",""
"","time_out","","html-keyboard-response","350","334354","0.0-1.0-476.0-0.0","0","0","69464","","null","","","null","52","","","","","","","","","","","","","","","",""
"","ITI","","html-keyboard-response","351","335359","0.0-1.0-477.0","0","0","69464","","null","","","null","52","","","","","","","","","","","","","","","NaN",""
"","S1","","html-keyboard-response","352","335615","0.0-1.0-479.0","0","0","69464","","null","","","null","53","","","","","","","","","","","","","","","",""
"","ISI","","html-keyboard-response","353","335768","0.0-1.0-480.0","0","0","69464","","null","","","null","53","NaN","","","","","","","","","","","","","","",""
"","S2","","html-keyboard-response","354","336025","0.0-1.0-481.0","0","0","69464","","null","","","null","53","","NaN","","","","","","","","","","","","","",""
"","response","","html-keyboard-response","355","336139","0.0-1.0-482.0-0.0","0","0","69464","","109","","","75","53","","","2","53","training","adjacent","DE","4","5","M.jpg","L.jpg","0","1","0","",""
"","feedback","","html-keyboard-response","356","337146","0.0-1.0-483.0-0.0","0","0","69464","","null","","","null","53","","","","","","","","","","","","","","","",""
"","time_out","","html-keyboard-response","357","339151","0.0-1.0-485.0-0.0","0","0","69464","","null","","","null","53","","","","","","","","","","","","","","","",""
"","ITI","","html-keyboard-response","358","340157","0.0-1.0-486.0","0","0","69464","","null","","","null","53","","","","","","","","","","","","","","","NaN",""
"","S1","","html-keyboard-response","359","340413","0.0-1.0-488.0","0","0","69464","","null","","","null","54","","","","","","","","","","","","","","","",""
"","ISI","","html-keyboard-response","360","340568","0.0-1.0-489.0","0","0","69464","","null","","","null","54","NaN","","","","","","","","","","","","","","",""
"","S2","","html-keyboard-response","361","340823","0.0-1.0-490.0","0","0","69464","","null","","","null","54","","NaN","","","","","","","","","","","","","",""
"","response","","html-keyboard-response","362","340939","0.0-1.0-491.0-0.0","0","0","69464","","111","","","68","54","","","2","54","training","adjacent","FE","6","5","Q.jpg","L.jpg","1","0","0","",""
"","feedback","","html-keyboard-response","363","341946","0.0-1.0-492.0-0.0","0","0","69464","","null","","","null","54","","","","","","","","","","","","","","","",""
"","time_out","","html-keyboard-response","364","343951","0.0-1.0-494.0-0.0","0","0","69464","","null","","","null","54","","","","","","","","","","","","","","","",""
"","ITI","","html-keyboard-response","365","344959","0.0-1.0-495.0","0","0","69464","","null","","","null","54","","","","","","","","","","","","","","","NaN",""
"","S1","","html-keyboard-response","366","345217","0.0-1.0-497.0","0","0","69464","","null","","","null","55","","","","","","","","","","","","","","","",""
"","ISI","","html-keyboard-response","367","345373","0.0-1.0-498.0","0","0","69464","","null","","","null","55","NaN","","","","","","","","","","","","","","",""
"","S2","","html-keyboard-response","368","345627","0.0-1.0-499.0","0","0","69464","","null","","","null","55","","NaN","","","","","","","","","","","","","",""
"","response","","html-keyboard-response","369","345771","0.0-1.0-500.0-0.0","0","0","69464","","139","","","68","55","","","2","55","training","adjacent","EF","5","6","L.jpg","Q.jpg","1","1","1","",""
"","feedback","","html-keyboard-response","370","346776","0.0-1.0-501.0-0.0","0","0","69464","","null","","","null","55","","","","","","","","","","","","","","","",""
"","ITI","","html-keyboard-response","371","347781","0.0-1.0-504.0","0","0","69464","","null","","","null","55","","","","","","","","","","","","","","","NaN",""
"","S1","","html-keyboard-response","372","348037","0.0-1.0-506.0","0","0","69464","","null","","","null","56","","","","","","","","","","","","","","","",""
"","ISI","","html-keyboard-response","373","348192","0.0-1.0-507.0","0","0","69464","","null","","","null","56","NaN","","","","","","","","","","","","","","",""
"","S2","","html-keyboard-response","374","348448","0.0-1.0-508.0","0","0","69464","","null","","","null","56","","NaN","","","","","","","","","","","","","",""
"","response","","html-keyboard-response","375","348660","0.0-1.0-509.0-0.0","0","0","69464","","206","","","75","56","","","2","56","training","adjacent","BC","2","3","O.jpg","P.jpg","0","1","0","",""
"","feedback","","html-keyboard-response","376","349666","0.0-1.0-510.0-0.0","0","0","69464","","null","","","null","56","","","","","","","","","","","","","","","",""
"","time_out","","html-keyboard-response","377","351672","0.0-1.0-512.0-0.0","0","0","69464","","null","","","null","56","","","","","","","","","","","","","","","",""
"","ITI","","html-keyboard-response","378","352676","0.0-1.0-513.0","0","0","69464","","null","","","null","56","","","","","","","","","","","","","","","NaN",""
"","S1","","html-keyboard-response","379","352930","0.0-1.0-515.0","0","0","69464","","null","","","null","57","","","","","","","","","","","","","","","",""
"","ISI","","html-keyboard-response","380","353086","0.0-1.0-516.0","0","0","69464","","null","","","null","57","NaN","","","","","","","","","","","","","","",""
"","S2","","html-keyboard-response","381","353342","0.0-1.0-517.0","0","0","69464","","null","","","null","57","","NaN","","","","","","","","","","","","","",""
"","response","","html-keyboard-response","382","353539","0.0-1.0-518.0-0.0","0","0","69464","","192","","","75","57","","","2","57","training","adjacent","FE","6","5","Q.jpg","L.jpg","0","0","1","",""
"","feedback","","html-keyboard-response","383","354547","0.0-1.0-519.0-0.0","0","0","69464","","null","","","null","57","","","","","","","","","","","","","","","",""
"","ITI","","html-keyboard-response","384","355553","0.0-1.0-522.0","0","0","69464","","null","","","null","57","","","","","","","","","","","","","","","NaN",""
"","S1","","html-keyboard-response","385","355807","0.0-1.0-524.0","0","0","69464","","null","","","null","58","","","","","","","","","","","","","","","",""
"","ISI","","html-keyboard-response","386","355962","0.0-1.0-525.0","0","0","69464","","null","","","null","58","NaN","","","","","","","","","","","","","","",""
"","S2","","html-keyboard-response","387","356218","0.0-1.0-526.0","0","0","69464","","null","","","null","58","","NaN","","","","","","","","","","","","","",""
"","response","","html-keyboard-response","388","356444","0.0-1.0-527.0-0.0","0","0","69464","","220","","","68","58","","","2","58","training","adjacent","CB","3","2","P.jpg","O.jpg","1","0","0","",""
"","feedback","","html-keyboard-response","389","357449","0.0-1.0-528.0-0.0","0","0","69464","","null","","","null","58","","","","","","","","","","","","","","","",""
"","time_out","","html-keyboard-response","390","359456","0.0-1.0-530.0-0.0","0","0","69464","","null","","","null","58","","","","","","","","","","","","","","","",""
"","ITI","","html-keyboard-response","391","360461","0.0-1.0-531.0","0","0","69464","","null","","","null","58","","","","","","","","","","","","","","","NaN",""
"","S1","","html-keyboard-response","392","360717","0.0-1.0-533.0","0","0","69464","","null","","","null","59","","","","","","","","","","","","","","","",""
"","ISI","","html-keyboard-response","393","360873","0.0-1.0-534.0","0","0","69464","","null","","","null","59","NaN","","","","","","","","","","","","","","",""
"","S2","","html-keyboard-response","394","361127","0.0-1.0-535.0","0","0","69464","","null","","","null","59","","NaN","","","","","","","","","","","","","",""
"","response","","html-keyboard-response","395","361532","0.0-1.0-536.0-0.0","0","0","69464","","399","","","68","59","","","2","59","training","adjacent","ED","5","4","L.jpg","M.jpg","1","0","0","",""
"","feedback","","html-keyboard-response","396","362539","0.0-1.0-537.0-0.0","0","0","69464","","null","","","null","59","","","","","","","","","","","","","","","",""
"","time_out","","html-keyboard-response","397","364546","0.0-1.0-539.0-0.0","0","0","69464","","null","","","null","59","","","","","","","","","","","","","","","",""
"","ITI","","html-keyboard-response","398","365552","0.0-1.0-540.0","0","0","69464","","null","","","null","59","","","","","","","","","","","","","","","NaN",""
"","S1","","html-keyboard-response","399","365808","0.0-1.0-542.0","0","0","69464","","null","","","null","60","","","","","","","","","","","","","","","",""
"","ISI","","html-keyboard-response","400","365962","0.0-1.0-543.0","0","0","69464","","null","","","null","60","NaN","","","","","","","","","","","","","","",""
"","S2","","html-keyboard-response","401","366217","0.0-1.0-544.0","0","0","69464","","null","","","null","60","","NaN","","","","","","","","","","","","","",""
"","response","","html-keyboard-response","402","366379","0.0-1.0-545.0-0.0","0","0","69464","","157","","","75","60","","","2","60","training","adjacent","CD","3","4","P.jpg","M.jpg","0","1","0","",""
"","feedback","","html-keyboard-response","403","367388","0.0-1.0-546.0-0.0","0","0","69464","","null","","","null","60","","","","","","","","","","","","","","","",""
"","time_out","","html-keyboard-response","404","369394","0.0-1.0-548.0-0.0","0","0","69464","","null","","","null","60","","","","","","","","","","","","","","","",""
"","ITI","","html-keyboard-response","405","370399","0.0-1.0-549.0","0","0","69464","","null","","","null","60","","","","","","","","","","","","","","","NaN",""
"","S1","","html-keyboard-response","406","370655","0.0-1.0-551.0","0","0","69464","","null","","","null","61","","","","","","","","","","","","","","","",""
"","ISI","","html-keyboard-response","407","370810","0.0-1.0-552.0","0","0","69464","","null","","","null","61","NaN","","","","","","","","","","","","","","",""
"","S2","","html-keyboard-response","408","371067","0.0-1.0-553.0","0","0","69464","","null","","","null","61","","NaN","","","","","","","","","","","","","",""
"","response","","html-keyboard-response","409","371155","0.0-1.0-554.0-0.0","0","0","69464","","82","","","68","61","","","2","61","training","adjacent","BC","2","3","O.jpg","P.jpg","1","1","1","",""
"","feedback","","html-keyboard-response","410","372162","0.0-1.0-555.0-0.0","0","0","69464","","null","","","null","61","","","","","","","","","","","","","","","",""
"","ITI","","html-keyboard-response","411","373168","0.0-1.0-558.0","0","0","69464","","null","","","null","61","","","","","","","","","","","","","","","NaN",""
"","S1","","html-keyboard-response","412","373425","0.0-1.0-560.0","0","0","69464","","null","","","null","62","","","","","","","","","","","","","","","",""
"","ISI","","html-keyboard-response","413","373579","0.0-1.0-561.0","0","0","69464","","null","","","null","62","NaN","","","","","","","","","","","","","","",""
"","S2","","html-keyboard-response","414","373835","0.0-1.0-562.0","0","0","69464","","null","","","null","62","","NaN","","","","","","","","","","","","","",""
"","response","","html-keyboard-response","415","374275","0.0-1.0-563.0-0.0","0","0","69464","","436","","","68","62","","","2","62","training","adjacent","ED","5","4","L.jpg","M.jpg","1","0","0","",""
"","feedback","","html-keyboard-response","416","375281","0.0-1.0-564.0-0.0","0","0","69464","","null","","","null","62","","","","","","","","","","","","","","","",""
"","time_out","","html-keyboard-response","417","377287","0.0-1.0-566.0-0.0","0","0","69464","","null","","","null","62","","","","","","","","","","","","","","","",""
"","ITI","","html-keyboard-response","418","378293","0.0-1.0-567.0","0","0","69464","","null","","","null","62","","","","","","","","","","","","","","","NaN",""
"","S1","","html-keyboard-response","419","378549","0.0-1.0-569.0","0","0","69464","","null","","","null","63","","","","","","","","","","","","","","","",""
"","ISI","","html-keyboard-response","420","378704","0.0-1.0-570.0","0","0","69464","","null","","","null","63","NaN","","","","","","","","","","","","","","",""
"","S2","","html-keyboard-response","421","378959","0.0-1.0-571.0","0","0","69464","","null","","","null","63","","NaN","","","","","","","","","","","","","",""
"","response","","html-keyboard-response","422","379117","0.0-1.0-572.0-0.0","0","0","69464","","151","","","75","63","","","2","63","training","adjacent","DE","4","5","M.jpg","L.jpg","0","1","0","",""
"","feedback","","html-keyboard-response","423","380128","0.0-1.0-573.0-0.0","0","0","69464","","null","","","null","63","","","","","","","","","","","","","","","",""
"","time_out","","html-keyboard-response","424","382135","0.0-1.0-575.0-0.0","0","0","69464","","null","","","null","63","","","","","","","","","","","","","","","",""
"","ITI","","html-keyboard-response","425","383143","0.0-1.0-576.0","0","0","69464","","null","","","null","63","","","","","","","","","","","","","","","NaN",""
"","S1","","html-keyboard-response","426","383401","0.0-1.0-578.0","0","0","69464","","null","","","null","64","","","","","","","","","","","","","","","",""
"","ISI","","html-keyboard-response","427","383557","0.0-1.0-579.0","0","0","69464","","null","","","null","64","NaN","","","","","","","","","","","","","","",""
"","S2","","html-keyboard-response","428","383813","0.0-1.0-580.0","0","0","69464","","null","","","null","64","","NaN","","","","","","","","","","","","","",""
"","response","","html-keyboard-response","429","383939","0.0-1.0-581.0-0.0","0","0","69464","","121","","","68","64","","","2","64","training","adjacent","ED","5","4","L.jpg","M.jpg","1","0","0","",""
"","feedback","","html-keyboard-response","430","384946","0.0-1.0-582.0-0.0","0","0","69464","","null","","","null","64","","","","","","","","","","","","","","","",""
"","time_out","","html-keyboard-response","431","386953","0.0-1.0-584.0-0.0","0","0","69464","","null","","","null","64","","","","","","","","","","","","","","","",""
"","ITI","","html-keyboard-response","432","387959","0.0-1.0-585.0","0","0","69464","","null","","","null","64","","","","","","","","","","","","","","","NaN",""
"","S1","","html-keyboard-response","433","388216","0.0-1.0-587.0","0","0","69464","","null","","","null","65","","","","","","","","","","","","","","","",""
"","ISI","","html-keyboard-response","434","388371","0.0-1.0-588.0","0","0","69464","","143","","","75","65","k","","","","","","","","","","","","","","",""
"","S2","","html-keyboard-response","435","388627","0.0-1.0-589.0","0","0","69464","","null","","","null","65","","NaN","","","","","","","","","","","","","",""
"","response","","html-keyboard-response","436","389196","0.0-1.0-590.0-0.0","0","0","69464","","563","","","75","65","","","2","65","training","adjacent","FG","6","7","Q.jpg","R.jpg","0","1","0","",""
"","feedback","","html-keyboard-response","437","390203","0.0-1.0-591.0-0.0","0","0","69464","","null","","","null","65","","","","","","","","","","","","","","","",""
"","time_out","","html-keyboard-response","438","392210","0.0-1.0-593.0-0.0","0","0","69464","","null","","","null","65","","","","","","","","","","","","","","","",""
"","ITI","","html-keyboard-response","439","393216","0.0-1.0-594.0","0","0","69464","","null","","","null","65","","","","","","","","","","","","","","","NaN",""
"","S1","","html-keyboard-response","440","393472","0.0-1.0-596.0","0","0","69464","","null","","","null","66","","","","","","","","","","","","","","","",""
"","ISI","","html-keyboard-response","441","393627","0.0-1.0-597.0","0","0","69464","","null","","","null","66","NaN","","","","","","","","","","","","","","",""
"","S2","","html-keyboard-response","442","393883","0.0-1.0-598.0","0","0","69464","","null","","","null","66","","NaN","","","","","","","","","","","","","",""
"","response","","html-keyboard-response","443","394221","0.0-1.0-599.0-0.0","0","0","69464","","330","","","68","66","","","2","66","training","adjacent","CB","3","2","P.jpg","O.jpg","1","0","0","",""
"","feedback","","html-keyboard-response","444","395228","0.0-1.0-600.0-0.0","0","0","69464","","null","","","null","66","","","","","","","","","","","","","","","",""
"","time_out","","html-keyboard-response","445","397234","0.0-1.0-602.0-0.0","0","0","69464","","null","","","null","66","","","","","","","","","","","","","","","",""
"","ITI","","html-keyboard-response","446","398238","0.0-1.0-603.0","0","0","69464","","null","","","null","66","","","","","","","","","","","","","","","NaN",""
"","S1","","html-keyboard-response","447","398492","0.0-1.0-605.0","0","0","69464","","null","","","null","67","","","","","","","","","","","","","","","",""
"","ISI","","html-keyboard-response","448","398647","0.0-1.0-606.0","0","0","69464","","82","","","75","67","k","","","","","","","","","","","","","","",""
"","S2","","html-keyboard-response","449","398903","0.0-1.0-607.0","0","0","69464","","null","","","null","67","","NaN","","","","","","","","","","","","","",""
"","response","","html-keyboard-response","450","399451","0.0-1.0-608.0-0.0","0","0","69464","","542","","","75","67","","","2","67","training","adjacent","EF","5","6","L.jpg","Q.jpg","0","1","0","",""
"","feedback","","html-keyboard-response","451","400459","0.0-1.0-609.0-0.0","0","0","69464","","null","","","null","67","","","","","","","","","","","","","","","",""
"","time_out","","html-keyboard-response","452","402466","0.0-1.0-611.0-0.0","0","0","69464","","null","","","null","67","","","","","","","","","","","","","","","",""
"","ITI","","html-keyboard-response","453","403471","0.0-1.0-612.0","0","0","69464","","null","","","null","67","","","","","","","","","","","","","","","NaN",""
"","S1","","html-keyboard-response","454","403727","0.0-1.0-614.0","0","0","69464","","null","","","null","68","","","","","","","","","","","","","","","",""
"","ISI","","html-keyboard-response","455","403882","0.0-1.0-615.0","0","0","69464","","null","","","null","68","NaN","","","","","","","","","","","","","","",""
"","S2","","html-keyboard-response","456","404138","0.0-1.0-616.0","0","0","69464","","null","","","null","68","","NaN","","","","","","","","","","","","","",""
"","response","","html-keyboard-response","457","404323","0.0-1.0-617.0-0.0","0","0","69464","","180","","","68","68","","","2","68","training","adjacent","CD","3","4","P.jpg","M.jpg","1","1","1","",""
"","feedback","","html-keyboard-response","458","405329","0.0-1.0-618.0-0.0","0","0","69464","","null","","","null","68","","","","","","","","","","","","","","","",""
"","ITI","","html-keyboard-response","459","406336","0.0-1.0-621.0","0","0","69464","","null","","","null","68","","","","","","","","","","","","","","","NaN",""
"","S1","","html-keyboard-response","460","406594","0.0-1.0-623.0","0","0","69464","","null","","","null","69","","","","","","","","","","","","","","","",""
"","ISI","","html-keyboard-response","461","406747","0.0-1.0-624.0","0","0","69464","","null","","","null","69","NaN","","","","","","","","","","","","","","",""
"","S2","","html-keyboard-response","462","407002","0.0-1.0-625.0","0","0","69464","","null","","","null","69","","NaN","","","","","","","","","","","","","",""
"","response","","html-keyboard-response","463","407212","0.0-1.0-626.0-0.0","0","0","69464","","204","","","75","69","","","2","69","training","adjacent","CD","3","4","P.jpg","M.jpg","0","1","0","",""
"","feedback","","html-keyboard-response","464","408219","0.0-1.0-627.0-0.0","0","0","69464","","null","","","null","69","","","","","","","","","","","","","","","",""
"","time_out","","html-keyboard-response","465","410225","0.0-1.0-629.0-0.0","0","0","69464","","null","","","null","69","","","","","","","","","","","","","","","",""
"","ITI","","html-keyboard-response","466","411231","0.0-1.0-630.0","0","0","69464","","null","","","null","69","","","","","","","","","","","","","","","NaN",""
"","S1","","html-keyboard-response","467","411487","0.0-1.0-632.0","0","0","69464","","null","","","null","70","","","","","","","","","","","","","","","",""
"","ISI","","html-keyboard-response","468","411643","0.0-1.0-633.0","0","0","69464","","null","","","null","70","NaN","","","","","","","","","","","","","","",""
"","S2","","html-keyboard-response","469","411899","0.0-1.0-634.0","0","0","69464","","null","","","null","70","","NaN","","","","","","","","","","","","","",""
"","response","","html-keyboard-response","470","412244","0.0-1.0-635.0-0.0","0","0","69464","","340","","","75","70","","","2","70","training","adjacent","GF","7","6","R.jpg","Q.jpg","0","0","1","",""
"","feedback","","html-keyboard-response","471","413249","0.0-1.0-636.0-0.0","0","0","69464","","null","","","null","70","","","","","","","","","","","","","","","",""
"","ITI","","html-keyboard-response","472","414255","0.0-1.0-639.0","0","0","69464","","null","","","null","70","","","","","","","","","","","","","","","NaN",""
"","S1","","html-keyboard-response","473","414511","0.0-1.0-641.0","0","0","69464","","null","","","null","71","","","","","","","","","","","","","","","",""
"","ISI","","html-keyboard-response","474","414666","0.0-1.0-642.0","0","0","69464","","null","","","null","71","NaN","","","","","","","","","","","","","","",""
"","S2","","html-keyboard-response","475","414923","0.0-1.0-643.0","0","0","69464","","null","","","null","71","","NaN","","","","","","","","","","","","","",""
"","response","","html-keyboard-response","476","415267","0.0-1.0-644.0-0.0","0","0","69464","","339","","","68","71","","","2","71","training","adjacent","FG","6","7","Q.jpg","R.jpg","1","1","1","",""
"","feedback","","html-keyboard-response","477","416273","0.0-1.0-645.0-0.0","0","0","69464","","null","","","null","71","","","","","","","","","","","","","","","",""
"","ITI","","html-keyboard-response","478","417287","0.0-1.0-648.0","0","0","69464","","null","","","null","71","","","","","","","","","","","","","","","NaN",""
"","S1","","html-keyboard-response","479","417543","0.0-1.0-650.0","0","0","69464","","null","","","null","72","","","","","","","","","","","","","","","",""
"","ISI","","html-keyboard-response","480","417699","0.0-1.0-651.0","0","0","69464","","null","","","null","72","NaN","","","","","","","","","","","","","","",""
"","S2","","html-keyboard-response","481","417954","0.0-1.0-652.0","0","0","69464","","null","","","null","72","","NaN","","","","","","","","","","","","","",""
"","response","","html-keyboard-response","482","418341","0.0-1.0-653.0-0.0","0","0","69464","","380","","","75","72","","","2","72","training","adjacent","AB","1","2","N.jpg","O.jpg","0","1","0","",""
"","feedback","","html-keyboard-response","483","419348","0.0-1.0-654.0-0.0","0","0","69464","","null","","","null","72","","","","","","","","","","","","","","","",""
"","time_out","","html-keyboard-response","484","421353","0.0-1.0-656.0-0.0","0","0","69464","","null","","","null","72","","","","","","","","","","","","","","","",""
"","ITI","","html-keyboard-response","485","422359","0.0-1.0-657.0","0","0","69464","","null","","","null","72","","","","","","","","","","","","","","","NaN",""
"","S1","","html-keyboard-response","486","422615","0.0-1.0-659.0","0","0","69464","","null","","","null","73","","","","","","","","","","","","","","","",""
"","ISI","","html-keyboard-response","487","422771","0.0-1.0-660.0","0","0","69464","","null","","","null","73","NaN","","","","","","","","","","","","","","",""
"","S2","","html-keyboard-response","488","423027","0.0-1.0-661.0","0","0","69464","","null","","","null","73","","NaN","","","","","","","","","","","","","",""
"","response","","html-keyboard-response","489","423764","0.0-1.0-662.0-0.0","0","0","69464","","732","","","75","73","","","2","73","training","adjacent","FE","6","5","Q.jpg","L.jpg","0","0","1","",""
"","feedback","","html-keyboard-response","490","424768","0.0-1.0-663.0-0.0","0","0","69464","","null","","","null","73","","","","","","","","","","","","","","","",""
"","ITI","","html-keyboard-response","491","425774","0.0-1.0-666.0","0","0","69464","","null","","","null","73","","","","","","","","","","","","","","","NaN",""
"","S1","","html-keyboard-response","492","426030","0.0-1.0-668.0","0","0","69464","","null","","","null","74","","","","","","","","","","","","","","","",""
"","ISI","","html-keyboard-response","493","426185","0.0-1.0-669.0","0","0","69464","","null","","","null","74","NaN","","","","","","","","","","","","","","",""
"","S2","","html-keyboard-response","494","426442","0.0-1.0-670.0","0","0","69464","","null","","","null","74","","NaN","","","","","","","","","","","","","",""
"","response","","html-keyboard-response","495","427091","0.0-1.0-671.0-0.0","0","0","69464","","643","","","68","74","","","2","74","training","adjacent","DC","4","3","M.jpg","P.jpg","1","0","0","",""
"","feedback","","html-keyboard-response","496","428097","0.0-1.0-672.0-0.0","0","0","69464","","null","","","null","74","","","","","","","","","","","","","","","",""
"","time_out","","html-keyboard-response","497","430103","0.0-1.0-674.0-0.0","0","0","69464","","null","","","null","74","","","","","","","","","","","","","","","",""
"","ITI","","html-keyboard-response","498","431110","0.0-1.0-675.0","0","0","69464","","null","","","null","74","","","","","","","","","","","","","","","NaN",""
"","S1","","html-keyboard-response","499","431365","0.0-1.0-677.0","0","0","69464","","null","","","null","75","","","","","","","","","","","","","","","",""
"","ISI","","html-keyboard-response","500","431520","0.0-1.0-678.0","0","0","69464","","null","","","null","75","NaN","","","","","","","","","","","","","","",""
"","S2","","html-keyboard-response","501","431776","0.0-1.0-679.0","0","0","69464","","null","","","null","75","","NaN","","","","","","","","","","","","","",""
"","response","","html-keyboard-response","502","432100","0.0-1.0-680.0-0.0","0","0","69464","","319","","","75","75","","","2","75","training","adjacent","BA","2","1","O.jpg","N.jpg","0","0","1","",""
"","feedback","","html-keyboard-response","503","433107","0.0-1.0-681.0-0.0","0","0","69464","","null","","","null","75","","","","","","","","","","","","","","","",""
"","ITI","","html-keyboard-response","504","434113","0.0-1.0-684.0","0","0","69464","","null","","","null","75","","","","","","","","","","","","","","","NaN",""
"","S1","","html-keyboard-response","505","434371","0.0-1.0-686.0","0","0","69464","","null","","","null","76","","","","","","","","","","","","","","","",""
"","ISI","","html-keyboard-response","506","434524","0.0-1.0-687.0","0","0","69464","","null","","","null","76","NaN","","","","","","","","","","","","","","",""
"","S2","","html-keyboard-response","507","434778","0.0-1.0-688.0","0","0","69464","","null","","","null","76","","NaN","","","","","","","","","","","","","",""
"","response","","html-keyboard-response","508","434932","0.0-1.0-689.0-0.0","0","0","69464","","149","","","68","76","","","2","76","training","adjacent","AB","1","2","N.jpg","O.jpg","1","1","1","",""
"","feedback","","html-keyboard-response","509","435938","0.0-1.0-690.0-0.0","0","0","69464","","null","","","null","76","","","","","","","","","","","","","","","",""
"","ITI","","html-keyboard-response","510","436944","0.0-1.0-693.0","0","0","69464","","null","","","null","76","","","","","","","","","","","","","","","NaN",""
"","S1","","html-keyboard-response","511","437198","0.0-1.0-695.0","0","0","69464","","null","","","null","77","","","","","","","","","","","","","","","",""
"","ISI","","html-keyboard-response","512","437354","0.0-1.0-696.0","0","0","69464","","null","","","null","77","NaN","","","","","","","","","","","","","","",""
"","S2","","html-keyboard-response","513","437609","0.0-1.0-697.0","0","0","69464","","null","","","null","77","","NaN","","","","","","","","","","","","","",""
"","response","","html-keyboard-response","514","438395","0.0-1.0-698.0-0.0","0","0","69464","","781","","","68","77","","","2","77","training","adjacent","AB","1","2","N.jpg","O.jpg","1","1","1","",""
"","feedback","","html-keyboard-response","515","439406","0.0-1.0-699.0-0.0","0","0","69464","","null","","","null","77","","","","","","","","","","","","","","","",""
"","ITI","","html-keyboard-response","516","440419","0.0-1.0-702.0","0","0","69464","","null","","","null","77","","","","","","","","","","","","","","","NaN",""
"","S1","","html-keyboard-response","517","440676","0.0-1.0-704.0","0","0","69464","","null","","","null","78","","","","","","","","","","","","","","","",""
"","ISI","","html-keyboard-response","518","440830","0.0-1.0-705.0","0","0","69464","","null","","","null","78","NaN","","","","","","","","","","","","","","",""
"","S2","","html-keyboard-response","519","441086","0.0-1.0-706.0","0","0","69464","","null","","","null","78","","NaN","","","","","","","","","","","","","",""
"","response","","html-keyboard-response","520","441707","0.0-1.0-707.0-0.0","0","0","69464","","617","","","68","78","","","2","78","training","adjacent","DC","4","3","M.jpg","P.jpg","1","0","0","",""
"","feedback","","html-keyboard-response","521","442714","0.0-1.0-708.0-0.0","0","0","69464","","null","","","null","78","","","","","","","","","","","","","","","",""
"","time_out","","html-keyboard-response","522","444720","0.0-1.0-710.0-0.0","0","0","69464","","null","","","null","78","","","","","","","","","","","","","","","",""
"","ITI","","html-keyboard-response","523","445726","0.0-1.0-711.0","0","0","69464","","null","","","null","78","","","","","","","","","","","","","","","NaN",""
"","S1","","html-keyboard-response","524","445982","0.0-1.0-713.0","0","0","69464","","null","","","null","79","","","","","","","","","","","","","","","",""
"","ISI","","html-keyboard-response","525","446138","0.0-1.0-714.0","0","0","69464","","null","","","null","79","NaN","","","","","","","","","","","","","","",""
"","S2","","html-keyboard-response","526","446394","0.0-1.0-715.0","0","0","69464","","null","","","null","79","","NaN","","","","","","","","","","","","","",""
"","response","","html-keyboard-response","527","446540","0.0-1.0-716.0-0.0","0","0","69464","","141","","","75","79","","","2","79","training","adjacent","BC","2","3","O.jpg","P.jpg","0","1","0","",""
"","feedback","","html-keyboard-response","528","447546","0.0-1.0-717.0-0.0","0","0","69464","","null","","","null","79","","","","","","","","","","","","","","","",""
"","time_out","","html-keyboard-response","529","449551","0.0-1.0-719.0-0.0","0","0","69464","","null","","","null","79","","","","","","","","","","","","","","","",""
"","ITI","","html-keyboard-response","530","450557","0.0-1.0-720.0","0","0","69464","","null","","","null","79","","","","","","","","","","","","","","","NaN",""
"","S1","","html-keyboard-response","531","450813","0.0-1.0-722.0","0","0","69464","","null","","","null","80","","","","","","","","","","","","","","","",""
"","ISI","","html-keyboard-response","532","450969","0.0-1.0-723.0","0","0","69464","","null","","","null","80","NaN","","","","","","","","","","","","","","",""
"","S2","","html-keyboard-response","533","451261","0.0-1.0-724.0","0","0","69464","","null","","","null","80","","NaN","","","","","","","","","","","","","",""
"","response","","html-keyboard-response","534","451443","0.0-1.0-725.0-0.0","0","0","69464","","177","","","68","80","","","2","80","training","adjacent","ED","5","4","L.jpg","M.jpg","1","0","0","",""
"","feedback","","html-keyboard-response","535","452448","0.0-1.0-726.0-0.0","0","0","69464","","null","","","null","80","","","","","","","","","","","","","","","",""
"","time_out","","html-keyboard-response","536","454454","0.0-1.0-728.0-0.0","0","0","69464","","null","","","null","80","","","","","","","","","","","","","","","",""
"","ITI","","html-keyboard-response","537","455459","0.0-1.0-729.0","0","0","69464","","null","","","null","80","","","","","","","","","","","","","","","NaN",""
"","S1","","html-keyboard-response","538","455716","0.0-1.0-731.0","0","0","69464","","null","","","null","81","","","","","","","","","","","","","","","",""
"","ISI","","html-keyboard-response","539","455870","0.0-1.0-732.0","0","0","69464","","null","","","null","81","NaN","","","","","","","","","","","","","","",""
"","S2","","html-keyboard-response","540","456125","0.0-1.0-733.0","0","0","69464","","null","","","null","81","","NaN","","","","","","","","","","","","","",""
"","response","","html-keyboard-response","541","457035","0.0-1.0-734.0-0.0","0","0","69464","","904","","","68","81","","","2","81","training","adjacent","CB","3","2","P.jpg","O.jpg","1","0","0","",""
"","feedback","","html-keyboard-response","542","458041","0.0-1.0-735.0-0.0","0","0","69464","","null","","","null","81","","","","","","","","","","","","","","","",""
"","time_out","","html-keyboard-response","543","460048","0.0-1.0-737.0-0.0","0","0","69464","","null","","","null","81","","","","","","","","","","","","","","","",""
"","ITI","","html-keyboard-response","544","461052","0.0-1.0-738.0","0","0","69464","","null","","","null","81","","","","","","","","","","","","","","","NaN",""
"","S1","","html-keyboard-response","545","461309","0.0-1.0-740.0","0","0","69464","","null","","","null","82","","","","","","","","","","","","","","","",""
"","ISI","","html-keyboard-response","546","461463","0.0-1.0-741.0","0","0","69464","","null","","","null","82","NaN","","","","","","","","","","","","","","",""
"","S2","","html-keyboard-response","547","461718","0.0-1.0-742.0","0","0","69464","","null","","","null","82","","NaN","","","","","","","","","","","","","",""
"","response","","html-keyboard-response","548","461812","0.0-1.0-743.0-0.0","0","0","69464","","88","","","68","82","","","2","82","training","adjacent","EF","5","6","L.jpg","Q.jpg","1","1","1","",""
"","feedback","","html-keyboard-response","549","462817","0.0-1.0-744.0-0.0","0","0","69464","","null","","","null","82","","","","","","","","","","","","","","","",""
"","ITI","","html-keyboard-response","550","463822","0.0-1.0-747.0","0","0","69464","","null","","","null","82","","","","","","","","","","","","","","","NaN",""
"","S1","","html-keyboard-response","551","464077","0.0-1.0-749.0","0","0","69464","","null","","","null","83","","","","","","","","","","","","","","","",""
"","ISI","","html-keyboard-response","552","464233","0.0-1.0-750.0","0","0","69464","","null","","","null","83","NaN","","","","","","","","","","","","","","",""
"","S2","","html-keyboard-response","553","464489","0.0-1.0-751.0","0","0","69464","","null","","","null","83","","NaN","","","","","","","","","","","","","",""
"","response","","html-keyboard-response","554","465027","0.0-1.0-752.0-0.0","0","0","69464","","533","","","75","83","","","2","83","training","adjacent","DE","4","5","M.jpg","L.jpg","0","1","0","",""
"","feedback","","html-keyboard-response","555","466035","0.0-1.0-753.0-0.0","0","0","69464","","null","","","null","83","","","","","","","","","","","","","","","",""
"","time_out","","html-keyboard-response","556","468042","0.0-1.0-755.0-0.0","0","0","69464","","null","","","null","83","","","","","","","","","","","","","","","",""
"","ITI","","html-keyboard-response","557","469048","0.0-1.0-756.0","0","0","69464","","null","","","null","83","","","","","","","","","","","","","","","NaN",""
"","S1","","html-keyboard-response","558","469305","0.0-1.0-758.0","0","0","69464","","null","","","null","84","","","","","","","","","","","","","","","",""
"","ISI","","html-keyboard-response","559","469460","0.0-1.0-759.0","0","0","69464","","null","","","null","84","NaN","","","","","","","","","","","","","","",""
"","S2","","html-keyboard-response","560","469716","0.0-1.0-760.0","0","0","69464","","null","","","null","84","","NaN","","","","","","","","","","","","","",""
"","response","","html-keyboard-response","561","469835","0.0-1.0-761.0-0.0","0","0","69464","","114","","","68","84","","","2","84","training","adjacent","DE","4","5","M.jpg","L.jpg","1","1","1","",""
"","feedback","","html-keyboard-response","562","470843","0.0-1.0-762.0-0.0","0","0","69464","","null","","","null","84","","","","","","","","","","","","","","","",""
"","ITI","","html-keyboard-response","563","471849","0.0-1.0-765.0","0","0","69464","","null","","","null","84","","","","","","","","","","","","","","","NaN",""
"","S1","","html-keyboard-response","564","472106","0.0-1.0-767.0","0","0","69464","","null","","","null","85","","","","","","","","","","","","","","","",""
"","ISI","","html-keyboard-response","565","472260","0.0-1.0-768.0","0","0","69464","","null","","","null","85","NaN","","","","","","","","","","","","","","",""
"","S2","","html-keyboard-response","566","472516","0.0-1.0-769.0","0","0","69464","","null","","","null","85","","NaN","","","","","","","","","","","","","",""
"","response","","html-keyboard-response","567","472954","0.0-1.0-770.0-0.0","0","0","69464","","433","","","75","85","","","2","85","training","adjacent","FG","6","7","Q.jpg","R.jpg","0","1","0","",""
"","feedback","","html-keyboard-response","568","473960","0.0-1.0-771.0-0.0","0","0","69464","","null","","","null","85","","","","","","","","","","","","","","","",""
"","time_out","","html-keyboard-response","569","475967","0.0-1.0-773.0-0.0","0","0","69464","","null","","","null","85","","","","","","","","","","","","","","","",""
"","ITI","","html-keyboard-response","570","476972","0.0-1.0-774.0","0","0","69464","","null","","","null","85","","","","","","","","","","","","","","","NaN",""
"","S1","","html-keyboard-response","571","477228","0.0-1.0-776.0","0","0","69464","","null","","","null","86","","","","","","","","","","","","","","","",""
"","ISI","","html-keyboard-response","572","477383","0.0-1.0-777.0","0","0","69464","","null","","","null","86","NaN","","","","","","","","","","","","","","",""
"","S2","","html-keyboard-response","573","477641","0.0-1.0-778.0","0","0","69464","","null","","","null","86","","NaN","","","","","","","","","","","","","",""
"","response","","html-keyboard-response","574","477824","0.0-1.0-779.0-0.0","0","0","69464","","180","","","75","86","","","2","86","training","adjacent","BA","2","1","O.jpg","N.jpg","0","0","1","",""
"","feedback","","html-keyboard-response","575","478829","0.0-1.0-780.0-0.0","0","0","69464","","null","","","null","86","","","","","","","","","","","","","","","",""
"","ITI","","html-keyboard-response","576","479836","0.0-1.0-783.0","0","0","69464","","null","","","null","86","","","","","","","","","","","","","","","NaN",""
"","S1","","html-keyboard-response","577","480092","0.0-1.0-785.0","0","0","69464","","null","","","null","87","","","","","","","","","","","","","","","",""
"","ISI","","html-keyboard-response","578","480247","0.0-1.0-786.0","0","0","69464","","null","","","null","87","NaN","","","","","","","","","","","","","","",""
"","S2","","html-keyboard-response","579","480504","0.0-1.0-787.0","0","0","69464","","null","","","null","87","","NaN","","","","","","","","","","","","","",""
"","response","","html-keyboard-response","580","480924","0.0-1.0-788.0-0.0","0","0","69464","","414","","","68","87","","","2","87","training","adjacent","CD","3","4","P.jpg","M.jpg","1","1","1","",""
"","feedback","","html-keyboard-response","581","481929","0.0-1.0-789.0-0.0","0","0","69464","","null","","","null","87","","","","","","","","","","","","","","","",""
"","ITI","","html-keyboard-response","582","482935","0.0-1.0-792.0","0","0","69464","","null","","","null","87","","","","","","","","","","","","","","","NaN",""
