"success","ttype","start_time","trial_type","trial_index","time_elapsed","internal_node_id","warning","missed_checkup","PID","view_history","rt","responses","repeat_instructions","key_press","index","keypress_isi","keypress_S2","block","trial_num","phase","group_type","pair_type","S1_stim","S2_stim","S1_img","S2_img","S1_chosen","S1_higher","accuracy","keypress_iti","total_bonus_tally"
"true","full_screen","d03032023hr1940","fullscreen","0","13696","0.0-0.0","0","0","57115","","","","","","","","","","","","","","","","","","","","","",""
"","instructions","","instructions","1","349214","0.0-1.0-0.0-0.0","0","0","57115","[{""page_index"":0,""viewing_time"":271088},{""page_index"":1,""viewing_time"":41462},{""page_index"":2,""viewing_time"":20294},{""page_index"":3,""viewing_time"":2658}]","335504","","","","","","","","","","","","","","","","","","","",""
"","comprehension_check","","survey-multi-choice","2","376465","0.0-1.0-0.0-1.0","0","0","57115","","27203","{""Q0"":""True"",""Q1"":""K"",""Q2"":""Once the second image appears and while the screen 'MAKE A CHOICE' is shown"",""Q3"":""Green mark"",""Q4"":""either D or K""}","0","","","","","","","","","","","","","","","","","",""
"","start_exp","","html-keyboard-response","3","377780","0.0-1.0-1.0","0","0","57115","","1299","","","32","","","","","","","","","","","","","","","","",""
"","S1","","html-keyboard-response","4","378041","0.0-1.0-2.0","0","0","57115","","null","","","null","0","","","","","","","","","","","","","","","",""
"","ISI","","html-keyboard-response","5","378545","0.0-1.0-3.0","0","0","57115","","null","","","null","0","NaN","","","","","","","","","","","","","","",""
"","S2","","html-keyboard-response","6","378801","0.0-1.0-4.0","0","0","57115","","null","","","null","0","","NaN","","","","","","","","","","","","","",""
"","response","","html-keyboard-response","7","379408","0.0-1.0-5.0-0.0","0","0","57115","","602","","","75","0","","","1","0","training","adjacent","CD","3","4","N.jpg","O.jpg","1","1","1","",""
"","feedback","","html-keyboard-response","8","380417","0.0-1.0-6.0-0.0","0","0","57115","","null","","","null","0","","","","","","","","","","","","","","","",""
"","ITI","","html-keyboard-response","9","381425","0.0-1.0-9.0","0","0","57115","","null","","","null","0","","","","","","","","","","","","","","","NaN",""
"","S1","","html-keyboard-response","10","381681","0.0-1.0-11.0","0","0","57115","","null","","","null","1","","","","","","","","","","","","","","","",""
"","ISI","","html-keyboard-response","11","382192","0.0-1.0-12.0","0","0","57115","","null","","","null","1","NaN","","","","","","","","","","","","","","",""
"","S2","","html-keyboard-response","12","382449","0.0-1.0-13.0","0","0","57115","","null","","","null","1","","NaN","","","","","","","","","","","","","",""
"","response","","html-keyboard-response","13","383018","0.0-1.0-14.0-0.0","0","0","57115","","565","","","75","1","","","1","1","training","adjacent","DE","4","5","O.jpg","P.jpg","1","1","1","",""
"","feedback","","html-keyboard-response","14","384025","0.0-1.0-15.0-0.0","0","0","57115","","null","","","null","1","","","","","","","","","","","","","","","",""
"","ITI","","html-keyboard-response","15","385033","0.0-1.0-18.0","0","0","57115","","null","","","null","1","","","","","","","","","","","","","","","NaN",""
"","S1","","html-keyboard-response","16","385290","0.0-1.0-20.0","0","0","57115","","null","","","null","2","","","","","","","","","","","","","","","",""
"","ISI","","html-keyboard-response","17","385801","0.0-1.0-21.0","0","0","57115","","null","","","null","2","NaN","","","","","","","","","","","","","","",""
"","S2","","html-keyboard-response","18","386057","0.0-1.0-22.0","0","0","57115","","null","","","null","2","","NaN","","","","","","","","","","","","","",""
"","response","","html-keyboard-response","19","386338","0.0-1.0-23.0-0.0","0","0","57115","","277","","","75","2","","","1","2","training","adjacent","BA","2","1","L.jpg","Q.jpg","1","0","0","",""
"","feedback","","html-keyboard-response","20","387345","0.0-1.0-24.0-0.0","0","0","57115","","null","","","null","2","","","","","","","","","","","","","","","",""
"","time_out","","html-keyboard-response","21","389353","0.0-1.0-26.0-0.0","0","0","57115","","null","","","null","2","","","","","","","","","","","","","","","",""
"","ITI","","html-keyboard-response","22","390361","0.0-1.0-27.0","0","0","57115","","null","","","null","2","","","","","","","","","","","","","","","NaN",""
"","S1","","html-keyboard-response","23","390617","0.0-1.0-29.0","0","0","57115","","null","","","null","3","","","","","","","","","","","","","","","",""
"","ISI","","html-keyboard-response","24","391129","0.0-1.0-30.0","0","0","57115","","null","","","null","3","NaN","","","","","","","","","","","","","","",""
"","S2","","html-keyboard-response","25","391385","0.0-1.0-31.0","0","0","57115","","null","","","null","3","","NaN","","","","","","","","","","","","","",""
"","response","","html-keyboard-response","26","391735","0.0-1.0-32.0-0.0","0","0","57115","","347","","","68","3","","","1","3","training","adjacent","EF","5","6","P.jpg","M.jpg","0","1","0","",""
"","feedback","","html-keyboard-response","27","392745","0.0-1.0-33.0-0.0","0","0","57115","","null","","","null","3","","","","","","","","","","","","","","","",""
"","time_out","","html-keyboard-response","28","394752","0.0-1.0-35.0-0.0","0","0","57115","","null","","","null","3","","","","","","","","","","","","","","","",""
"","ITI","","html-keyboard-response","29","395760","0.0-1.0-36.0","0","0","57115","","null","","","null","3","","","","","","","","","","","","","","","NaN",""
"","S1","","html-keyboard-response","30","396017","0.0-1.0-38.0","0","0","57115","","null","","","null","4","","","","","","","","","","","","","","","",""
"","ISI","","html-keyboard-response","31","396528","0.0-1.0-39.0","0","0","57115","","null","","","null","4","NaN","","","","","","","","","","","","","","",""
"","S2","","html-keyboard-response","32","396785","0.0-1.0-40.0","0","0","57115","","null","","","null","4","","NaN","","","","","","","","","","","","","",""
"","response","","html-keyboard-response","33","397015","0.0-1.0-41.0-0.0","0","0","57115","","226","","","75","4","","","1","4","training","adjacent","CB","3","2","N.jpg","L.jpg","1","0","0","",""
"","feedback","","html-keyboard-response","34","398025","0.0-1.0-42.0-0.0","0","0","57115","","null","","","null","4","","","","","","","","","","","","","","","",""
"","time_out","","html-keyboard-response","35","400032","0.0-1.0-44.0-0.0","0","0","57115","","null","","","null","4","","","","","","","","","","","","","","","",""
"","ITI","","html-keyboard-response","36","401041","0.0-1.0-45.0","0","0","57115","","null","","","null","4","","","","","","","","","","","","","","","NaN",""
"","S1","","html-keyboard-response","37","401296","0.0-1.0-47.0","0","0","57115","","null","","","null","5","","","","","","","","","","","","","","","",""
"","ISI","","html-keyboard-response","38","401800","0.0-1.0-48.0","0","0","57115","","null","","","null","5","NaN","","","","","","","","","","","","","","",""
"","S2","","html-keyboard-response","39","402057","0.0-1.0-49.0","0","0","57115","","null","","","null","5","","NaN","","","","","","","","","","","","","",""
"","response","","html-keyboard-response","40","402393","0.0-1.0-50.0-0.0","0","0","57115","","332","","","68","5","","","1","5","training","adjacent","DE","4","5","O.jpg","P.jpg","0","1","0","",""
"","feedback","","html-keyboard-response","41","403401","0.0-1.0-51.0-0.0","0","0","57115","","null","","","null","5","","","","","","","","","","","","","","","",""
"","time_out","","html-keyboard-response","42","405408","0.0-1.0-53.0-0.0","0","0","57115","","null","","","null","5","","","","","","","","","","","","","","","",""
"","ITI","","html-keyboard-response","43","406417","0.0-1.0-54.0","0","0","57115","","null","","","null","5","","","","","","","","","","","","","","","NaN",""
"","S1","","html-keyboard-response","44","406672","0.0-1.0-56.0","0","0","57115","","null","","","null","6","","","","","","","","","","","","","","","",""
"","ISI","","html-keyboard-response","45","407176","0.0-1.0-57.0","0","0","57115","","null","","","null","6","NaN","","","","","","","","","","","","","","",""
"","S2","","html-keyboard-response","46","407433","0.0-1.0-58.0","0","0","57115","","null","","","null","6","","NaN","","","","","","","","","","","","","",""
"","response","","html-keyboard-response","47","407633","0.0-1.0-59.0-0.0","0","0","57115","","197","","","75","6","","","1","6","training","adjacent","AB","1","2","Q.jpg","L.jpg","1","1","1","",""
"","feedback","","html-keyboard-response","48","408640","0.0-1.0-60.0-0.0","0","0","57115","","null","","","null","6","","","","","","","","","","","","","","","",""
"","ITI","","html-keyboard-response","49","409648","0.0-1.0-63.0","0","0","57115","","null","","","null","6","","","","","","","","","","","","","","","NaN",""
"","S1","","html-keyboard-response","50","409905","0.0-1.0-65.0","0","0","57115","","null","","","null","7","","","","","","","","","","","","","","","",""
"","ISI","","html-keyboard-response","51","410417","0.0-1.0-66.0","0","0","57115","","null","","","null","7","NaN","","","","","","","","","","","","","","",""
"","S2","","html-keyboard-response","52","410672","0.0-1.0-67.0","0","0","57115","","null","","","null","7","","NaN","","","","","","","","","","","","","",""
"","response","","html-keyboard-response","53","410958","0.0-1.0-68.0-0.0","0","0","57115","","282","","","68","7","","","1","7","training","adjacent","BA","2","1","L.jpg","Q.jpg","0","0","1","",""
"","feedback","","html-keyboard-response","54","411968","0.0-1.0-69.0-0.0","0","0","57115","","null","","","null","7","","","","","","","","","","","","","","","",""
"","ITI","","html-keyboard-response","55","412977","0.0-1.0-72.0","0","0","57115","","null","","","null","7","","","","","","","","","","","","","","","NaN",""
"","S1","","html-keyboard-response","56","413233","0.0-1.0-74.0","0","0","57115","","null","","","null","8","","","","","","","","","","","","","","","",""
"","ISI","","html-keyboard-response","57","413744","0.0-1.0-75.0","0","0","57115","","null","","","null","8","NaN","","","","","","","","","","","","","","",""
"","S2","","html-keyboard-response","58","414001","0.0-1.0-76.0","0","0","57115","","null","","","null","8","","NaN","","","","","","","","","","","","","",""
"","response","","html-keyboard-response","59","414297","0.0-1.0-77.0-0.0","0","0","57115","","291","","","75","8","","","1","8","training","adjacent","GF","7","6","R.jpg","M.jpg","1","0","0","",""
"","feedback","","html-keyboard-response","60","415305","0.0-1.0-78.0-0.0","0","0","57115","","null","","","null","8","","","","","","","","","","","","","","","",""
"","time_out","","html-keyboard-response","61","417312","0.0-1.0-80.0-0.0","0","0","57115","","null","","","null","8","","","","","","","","","","","","","","","",""
"","ITI","","html-keyboard-response","62","418320","0.0-1.0-81.0","0","0","57115","","null","","","null","8","","","","","","","","","","","","","","","NaN",""
"","S1","","html-keyboard-response","63","418577","0.0-1.0-83.0","0","0","57115","","null","","","null","9","","","","","","","","","","","","","","","",""
"","ISI","","html-keyboard-response","64","419088","0.0-1.0-84.0","0","0","57115","","null","","","null","9","NaN","","","","","","","","","","","","","","",""
"","S2","","html-keyboard-response","65","419345","0.0-1.0-85.0","0","0","57115","","null","","","null","9","","NaN","","","","","","","","","","","","","",""
"","response","","html-keyboard-response","66","419776","0.0-1.0-86.0-0.0","0","0","57115","","428","","","75","9","","","1","9","training","adjacent","EF","5","6","P.jpg","M.jpg","1","1","1","",""
"","feedback","","html-keyboard-response","67","420784","0.0-1.0-87.0-0.0","0","0","57115","","null","","","null","9","","","","","","","","","","","","","","","",""
"","ITI","","html-keyboard-response","68","421793","0.0-1.0-90.0","0","0","57115","","null","","","null","9","","","","","","","","","","","","","","","NaN",""
"","S1","","html-keyboard-response","69","422049","0.0-1.0-92.0","0","0","57115","","null","","","null","10","","","","","","","","","","","","","","","",""
"","ISI","","html-keyboard-response","70","422561","0.0-1.0-93.0","0","0","57115","","null","","","null","10","NaN","","","","","","","","","","","","","","",""
"","S2","","html-keyboard-response","71","422816","0.0-1.0-94.0","0","0","57115","","null","","","null","10","","NaN","","","","","","","","","","","","","",""
"","response","","html-keyboard-response","72","423047","0.0-1.0-95.0-0.0","0","0","57115","","227","","","75","10","","","1","10","training","adjacent","BC","2","3","L.jpg","N.jpg","1","1","1","",""
"","feedback","","html-keyboard-response","73","424057","0.0-1.0-96.0-0.0","0","0","57115","","null","","","null","10","","","","","","","","","","","","","","","",""
"","ITI","","html-keyboard-response","74","425064","0.0-1.0-99.0","0","0","57115","","null","","","null","10","","","","","","","","","","","","","","","NaN",""
"","S1","","html-keyboard-response","75","425321","0.0-1.0-101.0","0","0","57115","","null","","","null","11","","","","","","","","","","","","","","","",""
"","ISI","","html-keyboard-response","76","425833","0.0-1.0-102.0","0","0","57115","","null","","","null","11","NaN","","","","","","","","","","","","","","",""
"","S2","","html-keyboard-response","77","426089","0.0-1.0-103.0","0","0","57115","","null","","","null","11","","NaN","","","","","","","","","","","","","",""
"","response","","html-keyboard-response","78","426337","0.0-1.0-104.0-0.0","0","0","57115","","243","","","75","11","","","1","11","training","adjacent","CB","3","2","N.jpg","L.jpg","1","0","0","",""
"","feedback","","html-keyboard-response","79","427345","0.0-1.0-105.0-0.0","0","0","57115","","null","","","null","11","","","","","","","","","","","","","","","",""
"","time_out","","html-keyboard-response","80","429353","0.0-1.0-107.0-0.0","0","0","57115","","null","","","null","11","","","","","","","","","","","","","","","",""
"","ITI","","html-keyboard-response","81","430361","0.0-1.0-108.0","0","0","57115","","null","","","null","11","","","","","","","","","","","","","","","NaN",""
"","S1","","html-keyboard-response","82","430616","0.0-1.0-110.0","0","0","57115","","null","","","null","12","","","","","","","","","","","","","","","",""
"","ISI","","html-keyboard-response","83","431121","0.0-1.0-111.0","0","0","57115","","null","","","null","12","NaN","","","","","","","","","","","","","","",""
"","S2","","html-keyboard-response","84","431377","0.0-1.0-112.0","0","0","57115","","null","","","null","12","","NaN","","","","","","","","","","","","","",""
"","response","","html-keyboard-response","85","432149","0.0-1.0-113.0-0.0","0","0","57115","","768","","","68","12","","","1","12","training","adjacent","DC","4","3","O.jpg","N.jpg","0","0","1","",""
"","feedback","","html-keyboard-response","86","433161","0.0-1.0-114.0-0.0","0","0","57115","","null","","","null","12","","","","","","","","","","","","","","","",""
"","ITI","","html-keyboard-response","87","434169","0.0-1.0-117.0","0","0","57115","","null","","","null","12","","","","","","","","","","","","","","","NaN",""
"","S1","","html-keyboard-response","88","434425","0.0-1.0-119.0","0","0","57115","","null","","","null","13","","","","","","","","","","","","","","","",""
"","ISI","","html-keyboard-response","89","434937","0.0-1.0-120.0","0","0","57115","","null","","","null","13","NaN","","","","","","","","","","","","","","",""
"","S2","","html-keyboard-response","90","435193","0.0-1.0-121.0","0","0","57115","","null","","","null","13","","NaN","","","","","","","","","","","","","",""
"","response","","html-keyboard-response","91","435519","0.0-1.0-122.0-0.0","0","0","57115","","321","","","75","13","","","1","13","training","adjacent","CB","3","2","N.jpg","L.jpg","1","0","0","",""
"","feedback","","html-keyboard-response","92","436529","0.0-1.0-123.0-0.0","0","0","57115","","null","","","null","13","","","","","","","","","","","","","","","",""
"","time_out","","html-keyboard-response","93","438536","0.0-1.0-125.0-0.0","0","0","57115","","null","","","null","13","","","","","","","","","","","","","","","",""
"","ITI","","html-keyboard-response","94","439545","0.0-1.0-126.0","0","0","57115","","null","","","null","13","","","","","","","","","","","","","","","NaN",""
"","S1","","html-keyboard-response","95","439801","0.0-1.0-128.0","0","0","57115","","null","","","null","14","","","","","","","","","","","","","","","",""
"","ISI","","html-keyboard-response","96","440313","0.0-1.0-129.0","0","0","57115","","null","","","null","14","NaN","","","","","","","","","","","","","","",""
"","S2","","html-keyboard-response","97","440569","0.0-1.0-130.0","0","0","57115","","null","","","null","14","","NaN","","","","","","","","","","","","","",""
"","response","","html-keyboard-response","98","440918","0.0-1.0-131.0-0.0","0","0","57115","","345","","","75","14","","","1","14","training","adjacent","CD","3","4","N.jpg","O.jpg","1","1","1","",""
"","feedback","","html-keyboard-response","99","441929","0.0-1.0-132.0-0.0","0","0","57115","","null","","","null","14","","","","","","","","","","","","","","","",""
"","ITI","","html-keyboard-response","100","442936","0.0-1.0-135.0","0","0","57115","","null","","","null","14","","","","","","","","","","","","","","","NaN",""
"","S1","","html-keyboard-response","101","443193","0.0-1.0-137.0","0","0","57115","","null","","","null","15","","","","","","","","","","","","","","","",""
"","ISI","","html-keyboard-response","102","443705","0.0-1.0-138.0","0","0","57115","","null","","","null","15","NaN","","","","","","","","","","","","","","",""
"","S2","","html-keyboard-response","103","443961","0.0-1.0-139.0","0","0","57115","","null","","","null","15","","NaN","","","","","","","","","","","","","",""
"","response","","html-keyboard-response","104","444209","0.0-1.0-140.0-0.0","0","0","57115","","243","","","68","15","","","1","15","training","adjacent","AB","1","2","Q.jpg","L.jpg","0","1","0","",""
"","feedback","","html-keyboard-response","105","445216","0.0-1.0-141.0-0.0","0","0","57115","","null","","","null","15","","","","","","","","","","","","","","","",""
"","time_out","","html-keyboard-response","106","447225","0.0-1.0-143.0-0.0","0","0","57115","","null","","","null","15","","","","","","","","","","","","","","","",""
"","ITI","","html-keyboard-response","107","448233","0.0-1.0-144.0","0","0","57115","","null","","","null","15","","","","","","","","","","","","","","","NaN",""
"","S1","","html-keyboard-response","108","448489","0.0-1.0-146.0","0","0","57115","","null","","","null","16","","","","","","","","","","","","","","","",""
"","ISI","","html-keyboard-response","109","449001","0.0-1.0-147.0","0","0","57115","","null","","","null","16","NaN","","","","","","","","","","","","","","",""
"","S2","","html-keyboard-response","110","449257","0.0-1.0-148.0","0","0","57115","","null","","","null","16","","NaN","","","","","","","","","","","","","",""
"","response","","html-keyboard-response","111","449522","0.0-1.0-149.0-0.0","0","0","57115","","261","","","75","16","","","1","16","training","adjacent","BC","2","3","L.jpg","N.jpg","1","1","1","",""
"","feedback","","html-keyboard-response","112","450529","0.0-1.0-150.0-0.0","0","0","57115","","null","","","null","16","","","","","","","","","","","","","","","",""
"","ITI","","html-keyboard-response","113","451538","0.0-1.0-153.0","0","0","57115","","null","","","null","16","","","","","","","","","","","","","","","NaN",""
"","S1","","html-keyboard-response","114","451792","0.0-1.0-155.0","0","0","57115","","null","","","null","17","","","","","","","","","","","","","","","",""
"","ISI","","html-keyboard-response","115","452297","0.0-1.0-156.0","0","0","57115","","null","","","null","17","NaN","","","","","","","","","","","","","","",""
"","S2","","html-keyboard-response","116","452552","0.0-1.0-157.0","0","0","57115","","null","","","null","17","","NaN","","","","","","","","","","","","","",""
"","response","","html-keyboard-response","117","452805","0.0-1.0-158.0-0.0","0","0","57115","","249","","","75","17","","","1","17","training","adjacent","ED","5","4","P.jpg","O.jpg","1","0","0","",""
"","feedback","","html-keyboard-response","118","453817","0.0-1.0-159.0-0.0","0","0","57115","","null","","","null","17","","","","","","","","","","","","","","","",""
"","time_out","","html-keyboard-response","119","455825","0.0-1.0-161.0-0.0","0","0","57115","","null","","","null","17","","","","","","","","","","","","","","","",""
"","ITI","","html-keyboard-response","120","456832","0.0-1.0-162.0","0","0","57115","","null","","","null","17","","","","","","","","","","","","","","","NaN",""
"","S1","","html-keyboard-response","121","457089","0.0-1.0-164.0","0","0","57115","","null","","","null","18","","","","","","","","","","","","","","","",""
"","ISI","","html-keyboard-response","122","457601","0.0-1.0-165.0","0","0","57115","","null","","","null","18","NaN","","","","","","","","","","","","","","",""
"","S2","","html-keyboard-response","123","457856","0.0-1.0-166.0","0","0","57115","","null","","","null","18","","NaN","","","","","","","","","","","","","",""
"","response","","html-keyboard-response","124","458187","0.0-1.0-167.0-0.0","0","0","57115","","327","","","75","18","","","1","18","training","adjacent","ED","5","4","P.jpg","O.jpg","1","0","0","",""
"","feedback","","html-keyboard-response","125","459193","0.0-1.0-168.0-0.0","0","0","57115","","null","","","null","18","","","","","","","","","","","","","","","",""
"","time_out","","html-keyboard-response","126","461201","0.0-1.0-170.0-0.0","0","0","57115","","null","","","null","18","","","","","","","","","","","","","","","",""
"","ITI","","html-keyboard-response","127","462209","0.0-1.0-171.0","0","0","57115","","null","","","null","18","","","","","","","","","","","","","","","NaN",""
"","S1","","html-keyboard-response","128","462464","0.0-1.0-173.0","0","0","57115","","null","","","null","19","","","","","","","","","","","","","","","",""
"","ISI","","html-keyboard-response","129","462969","0.0-1.0-174.0","0","0","57115","","null","","","null","19","NaN","","","","","","","","","","","","","","",""
"","S2","","html-keyboard-response","130","463225","0.0-1.0-175.0","0","0","57115","","null","","","null","19","","NaN","","","","","","","","","","","","","",""
"","response","","html-keyboard-response","131","463509","0.0-1.0-176.0-0.0","0","0","57115","","280","","","68","19","","","1","19","training","adjacent","ED","5","4","P.jpg","O.jpg","0","0","1","",""
"","feedback","","html-keyboard-response","132","464521","0.0-1.0-177.0-0.0","0","0","57115","","null","","","null","19","","","","","","","","","","","","","","","",""
"","ITI","","html-keyboard-response","133","465528","0.0-1.0-180.0","0","0","57115","","null","","","null","19","","","","","","","","","","","","","","","NaN",""
"","S1","","html-keyboard-response","134","465785","0.0-1.0-182.0","0","0","57115","","null","","","null","20","","","","","","","","","","","","","","","",""
"","ISI","","html-keyboard-response","135","466297","0.0-1.0-183.0","0","0","57115","","null","","","null","20","NaN","","","","","","","","","","","","","","",""
"","S2","","html-keyboard-response","136","466553","0.0-1.0-184.0","0","0","57115","","null","","","null","20","","NaN","","","","","","","","","","","","","",""
"","response","","html-keyboard-response","137","466832","0.0-1.0-185.0-0.0","0","0","57115","","275","","","68","20","","","1","20","training","adjacent","FG","6","7","M.jpg","R.jpg","0","1","0","",""
"","feedback","","html-keyboard-response","138","467841","0.0-1.0-186.0-0.0","0","0","57115","","null","","","null","20","","","","","","","","","","","","","","","",""
"","time_out","","html-keyboard-response","139","469849","0.0-1.0-188.0-0.0","0","0","57115","","null","","","null","20","","","","","","","","","","","","","","","",""
"","ITI","","html-keyboard-response","140","470857","0.0-1.0-189.0","0","0","57115","","null","","","null","20","","","","","","","","","","","","","","","NaN",""
"","S1","","html-keyboard-response","141","471113","0.0-1.0-191.0","0","0","57115","","null","","","null","21","","","","","","","","","","","","","","","",""
"","ISI","","html-keyboard-response","142","471625","0.0-1.0-192.0","0","0","57115","","null","","","null","21","NaN","","","","","","","","","","","","","","",""
"","S2","","html-keyboard-response","143","471880","0.0-1.0-193.0","0","0","57115","","null","","","null","21","","NaN","","","","","","","","","","","","","",""
"","response","","html-keyboard-response","144","472364","0.0-1.0-194.0-0.0","0","0","57115","","480","","","68","21","","","1","21","training","adjacent","DE","4","5","O.jpg","P.jpg","0","1","0","",""
"","feedback","","html-keyboard-response","145","473369","0.0-1.0-195.0-0.0","0","0","57115","","null","","","null","21","","","","","","","","","","","","","","","",""
"","time_out","","html-keyboard-response","146","475377","0.0-1.0-197.0-0.0","0","0","57115","","null","","","null","21","","","","","","","","","","","","","","","",""
"","ITI","","html-keyboard-response","147","476385","0.0-1.0-198.0","0","0","57115","","null","","","null","21","","","","","","","","","","","","","","","NaN",""
"","S1","","html-keyboard-response","148","476641","0.0-1.0-200.0","0","0","57115","","null","","","null","22","","","","","","","","","","","","","","","",""
"","ISI","","html-keyboard-response","149","477153","0.0-1.0-201.0","0","0","57115","","null","","","null","22","NaN","","","","","","","","","","","","","","",""
"","S2","","html-keyboard-response","150","477409","0.0-1.0-202.0","0","0","57115","","null","","","null","22","","NaN","","","","","","","","","","","","","",""
"","response","","html-keyboard-response","151","477654","0.0-1.0-203.0-0.0","0","0","57115","","241","","","75","22","","","1","22","training","adjacent","BA","2","1","L.jpg","Q.jpg","1","0","0","",""
"","feedback","","html-keyboard-response","152","478665","0.0-1.0-204.0-0.0","0","0","57115","","null","","","null","22","","","","","","","","","","","","","","","",""
"","time_out","","html-keyboard-response","153","480672","0.0-1.0-206.0-0.0","0","0","57115","","null","","","null","22","","","","","","","","","","","","","","","",""
"","ITI","","html-keyboard-response","154","481682","0.0-1.0-207.0","0","0","57115","","null","","","null","22","","","","","","","","","","","","","","","NaN",""
"","S1","","html-keyboard-response","155","481937","0.0-1.0-209.0","0","0","57115","","null","","","null","23","","","","","","","","","","","","","","","",""
"","ISI","","html-keyboard-response","156","482449","0.0-1.0-210.0","0","0","57115","","null","","","null","23","NaN","","","","","","","","","","","","","","",""
"","S2","","html-keyboard-response","157","482705","0.0-1.0-211.0","0","0","57115","","null","","","null","23","","NaN","","","","","","","","","","","","","",""
"","response","","html-keyboard-response","158","482918","0.0-1.0-212.0-0.0","0","0","57115","","209","","","75","23","","","1","23","training","adjacent","FE","6","5","M.jpg","P.jpg","1","0","0","",""
"","feedback","","html-keyboard-response","159","483929","0.0-1.0-213.0-0.0","0","0","57115","","null","","","null","23","","","","","","","","","","","","","","","",""
"","time_out","","html-keyboard-response","160","485936","0.0-1.0-215.0-0.0","0","0","57115","","null","","","null","23","","","","","","","","","","","","","","","",""
"","ITI","","html-keyboard-response","161","486945","0.0-1.0-216.0","0","0","57115","","null","","","null","23","","","","","","","","","","","","","","","NaN",""
"","S1","","html-keyboard-response","162","487201","0.0-1.0-218.0","0","0","57115","","null","","","null","24","","","","","","","","","","","","","","","",""
"","ISI","","html-keyboard-response","163","487713","0.0-1.0-219.0","0","0","57115","","null","","","null","24","NaN","","","","","","","","","","","","","","",""
"","S2","","html-keyboard-response","164","487969","0.0-1.0-220.0","0","0","57115","","null","","","null","24","","NaN","","","","","","","","","","","","","",""
"","response","","html-keyboard-response","165","488038","0.0-1.0-221.0-0.0","0","0","57115","","65","","","75","24","","","1","24","training","adjacent","BC","2","3","L.jpg","N.jpg","1","1","1","",""
"","feedback","","html-keyboard-response","166","489049","0.0-1.0-222.0-0.0","0","0","57115","","null","","","null","24","","","","","","","","","","","","","","","",""
"","ITI","","html-keyboard-response","167","490057","0.0-1.0-225.0","0","0","57115","","null","","","null","24","","","","","","","","","","","","","","","NaN",""
"","S1","","html-keyboard-response","168","490313","0.0-1.0-227.0","0","0","57115","","null","","","null","25","","","","","","","","","","","","","","","",""
"","ISI","","html-keyboard-response","169","490825","0.0-1.0-228.0","0","0","57115","","null","","","null","25","NaN","","","","","","","","","","","","","","",""
"","S2","","html-keyboard-response","170","491081","0.0-1.0-229.0","0","0","57115","","null","","","null","25","","NaN","","","","","","","","","","","","","",""
"","response","","html-keyboard-response","171","491460","0.0-1.0-230.0-0.0","0","0","57115","","376","","","68","25","","","1","25","training","adjacent","FG","6","7","M.jpg","R.jpg","0","1","0","",""
"","feedback","","html-keyboard-response","172","492465","0.0-1.0-231.0-0.0","0","0","57115","","null","","","null","25","","","","","","","","","","","","","","","",""
"","time_out","","html-keyboard-response","173","494473","0.0-1.0-233.0-0.0","0","0","57115","","null","","","null","25","","","","","","","","","","","","","","","",""
"","ITI","","html-keyboard-response","174","495482","0.0-1.0-234.0","0","0","57115","","null","","","null","25","","","","","","","","","","","","","","","NaN",""
"","S1","","html-keyboard-response","175","495737","0.0-1.0-236.0","0","0","57115","","null","","","null","26","","","","","","","","","","","","","","","",""
"","ISI","","html-keyboard-response","176","496249","0.0-1.0-237.0","0","0","57115","","null","","","null","26","NaN","","","","","","","","","","","","","","",""
"","S2","","html-keyboard-response","177","496505","0.0-1.0-238.0","0","0","57115","","null","","","null","26","","NaN","","","","","","","","","","","","","",""
"","response","","html-keyboard-response","178","496763","0.0-1.0-239.0-0.0","0","0","57115","","254","","","68","26","","","1","26","training","adjacent","GF","7","6","R.jpg","M.jpg","0","0","1","",""
"","feedback","","html-keyboard-response","179","497769","0.0-1.0-240.0-0.0","0","0","57115","","null","","","null","26","","","","","","","","","","","","","","","",""
"","ITI","","html-keyboard-response","180","498776","0.0-1.0-243.0","0","0","57115","","null","","","null","26","","","","","","","","","","","","","","","NaN",""
"","S1","","html-keyboard-response","181","499033","0.0-1.0-245.0","0","0","57115","","null","","","null","27","","","","","","","","","","","","","","","",""
"","ISI","","html-keyboard-response","182","499545","0.0-1.0-246.0","0","0","57115","","null","","","null","27","NaN","","","","","","","","","","","","","","",""
"","S2","","html-keyboard-response","183","499801","0.0-1.0-247.0","0","0","57115","","null","","","null","27","","NaN","","","","","","","","","","","","","",""
"","response","","html-keyboard-response","184","500112","0.0-1.0-248.0-0.0","0","0","57115","","306","","","68","27","","","1","27","training","adjacent","DE","4","5","O.jpg","P.jpg","0","1","0","",""
"","feedback","","html-keyboard-response","185","501121","0.0-1.0-249.0-0.0","0","0","57115","","null","","","null","27","","","","","","","","","","","","","","","",""
"","time_out","","html-keyboard-response","186","503129","0.0-1.0-251.0-0.0","0","0","57115","","null","","","null","27","","","","","","","","","","","","","","","",""
"","ITI","","html-keyboard-response","187","504137","0.0-1.0-252.0","0","0","57115","","null","","","null","27","","","","","","","","","","","","","","","NaN",""
"","S1","","html-keyboard-response","188","504393","0.0-1.0-254.0","0","0","57115","","null","","","null","28","","","","","","","","","","","","","","","",""
"","ISI","","html-keyboard-response","189","504905","0.0-1.0-255.0","0","0","57115","","null","","","null","28","NaN","","","","","","","","","","","","","","",""
"","S2","","html-keyboard-response","190","505161","0.0-1.0-256.0","0","0","57115","","null","","","null","28","","NaN","","","","","","","","","","","","","",""
"","response","","html-keyboard-response","191","505387","0.0-1.0-257.0-0.0","0","0","57115","","222","","","68","28","","","1","28","training","adjacent","AB","1","2","Q.jpg","L.jpg","0","1","0","",""
"","feedback","","html-keyboard-response","192","506393","0.0-1.0-258.0-0.0","0","0","57115","","null","","","null","28","","","","","","","","","","","","","","","",""
"","time_out","","html-keyboard-response","193","508401","0.0-1.0-260.0-0.0","0","0","57115","","null","","","null","28","","","","","","","","","","","","","","","",""
"","ITI","","html-keyboard-response","194","509409","0.0-1.0-261.0","0","0","57115","","null","","","null","28","","","","","","","","","","","","","","","NaN",""
"","S1","","html-keyboard-response","195","509666","0.0-1.0-263.0","0","0","57115","","null","","","null","29","","","","","","","","","","","","","","","",""
"","ISI","","html-keyboard-response","196","510177","0.0-1.0-264.0","0","0","57115","","null","","","null","29","NaN","","","","","","","","","","","","","","",""
"","S2","","html-keyboard-response","197","510433","0.0-1.0-265.0","0","0","57115","","null","","","null","29","","NaN","","","","","","","","","","","","","",""
"","response","","html-keyboard-response","198","510491","0.0-1.0-266.0-0.0","0","0","57115","","54","","","68","29","","","1","29","training","adjacent","FE","6","5","M.jpg","P.jpg","0","0","1","",""
"","feedback","","html-keyboard-response","199","511497","0.0-1.0-267.0-0.0","0","0","57115","","null","","","null","29","","","","","","","","","","","","","","","",""
"","ITI","","html-keyboard-response","200","512504","0.0-1.0-270.0","0","0","57115","","null","","","null","29","","","","","","","","","","","","","","","NaN",""
"","S1","","html-keyboard-response","201","512761","0.0-1.0-272.0","0","0","57115","","null","","","null","30","","","","","","","","","","","","","","","",""
"","ISI","","html-keyboard-response","202","513273","0.0-1.0-273.0","0","0","57115","","null","","","null","30","NaN","","","","","","","","","","","","","","",""
"","S2","","html-keyboard-response","203","513529","0.0-1.0-274.0","0","0","57115","","null","","","null","30","","NaN","","","","","","","","","","","","","",""
"","response","","html-keyboard-response","204","513814","0.0-1.0-275.0-0.0","0","0","57115","","281","","","68","30","","","1","30","training","adjacent","EF","5","6","P.jpg","M.jpg","0","1","0","",""
"","feedback","","html-keyboard-response","205","514826","0.0-1.0-276.0-0.0","0","0","57115","","null","","","null","30","","","","","","","","","","","","","","","",""
"","time_out","","html-keyboard-response","206","516833","0.0-1.0-278.0-0.0","0","0","57115","","null","","","null","30","","","","","","","","","","","","","","","",""
"","ITI","","html-keyboard-response","207","517841","0.0-1.0-279.0","0","0","57115","","null","","","null","30","","","","","","","","","","","","","","","NaN",""
"","S1","","html-keyboard-response","208","518097","0.0-1.0-281.0","0","0","57115","","null","","","null","31","","","","","","","","","","","","","","","",""
"","ISI","","html-keyboard-response","209","518609","0.0-1.0-282.0","0","0","57115","","null","","","null","31","NaN","","","","","","","","","","","","","","",""
"","S2","","html-keyboard-response","210","518865","0.0-1.0-283.0","0","0","57115","","null","","","null","31","","NaN","","","","","","","","","","","","","",""
"","response","","html-keyboard-response","211","519098","0.0-1.0-284.0-0.0","0","0","57115","","229","","","68","31","","","1","31","training","adjacent","CB","3","2","N.jpg","L.jpg","0","0","1","",""
"","feedback","","html-keyboard-response","212","520105","0.0-1.0-285.0-0.0","0","0","57115","","null","","","null","31","","","","","","","","","","","","","","","",""
"","ITI","","html-keyboard-response","213","521114","0.0-1.0-288.0","0","0","57115","","null","","","null","31","","","","","","","","","","","","","","","NaN",""
"","S1","","html-keyboard-response","214","521371","0.0-1.0-290.0","0","0","57115","","null","","","null","32","","","","","","","","","","","","","","","",""
"","ISI","","html-keyboard-response","215","521881","0.0-1.0-291.0","0","0","57115","","null","","","null","32","NaN","","","","","","","","","","","","","","",""
"","S2","","html-keyboard-response","216","522137","0.0-1.0-292.0","0","0","57115","","null","","","null","32","","NaN","","","","","","","","","","","","","",""
"","response","","html-keyboard-response","217","522635","0.0-1.0-293.0-0.0","0","0","57115","","495","","","68","32","","","1","32","training","adjacent","FE","6","5","M.jpg","P.jpg","0","0","1","",""
"","feedback","","html-keyboard-response","218","523640","0.0-1.0-294.0-0.0","0","0","57115","","null","","","null","32","","","","","","","","","","","","","","","",""
"","ITI","","html-keyboard-response","219","524650","0.0-1.0-297.0","0","0","57115","","null","","","null","32","","","","","","","","","","","","","","","NaN",""
"","S1","","html-keyboard-response","220","524905","0.0-1.0-299.0","0","0","57115","","null","","","null","33","","","","","","","","","","","","","","","",""
"","ISI","","html-keyboard-response","221","525417","0.0-1.0-300.0","0","0","57115","","null","","","null","33","NaN","","","","","","","","","","","","","","",""
"","S2","","html-keyboard-response","222","525673","0.0-1.0-301.0","0","0","57115","","null","","","null","33","","NaN","","","","","","","","","","","","","",""
"","response","","html-keyboard-response","223","525891","0.0-1.0-302.0-0.0","0","0","57115","","214","","","75","33","","","1","33","training","adjacent","CD","3","4","N.jpg","O.jpg","1","1","1","",""
"","feedback","","html-keyboard-response","224","526907","0.0-1.0-303.0-0.0","0","0","57115","","null","","","null","33","","","","","","","","","","","","","","","",""
"","ITI","","html-keyboard-response","225","527912","0.0-1.0-306.0","0","0","57115","","null","","","null","33","","","","","","","","","","","","","","","NaN",""
"","S1","","html-keyboard-response","226","528169","0.0-1.0-308.0","0","0","57115","","null","","","null","34","","","","","","","","","","","","","","","",""
"","ISI","","html-keyboard-response","227","528680","0.0-1.0-309.0","0","0","57115","","null","","","null","34","NaN","","","","","","","","","","","","","","",""
"","S2","","html-keyboard-response","228","528945","0.0-1.0-310.0","0","0","57115","","null","","","null","34","","NaN","","","","","","","","","","","","","",""
"","response","","html-keyboard-response","229","529205","0.0-1.0-311.0-0.0","0","0","57115","","256","","","75","34","","","1","34","training","adjacent","FG","6","7","M.jpg","R.jpg","1","1","1","",""
"","feedback","","html-keyboard-response","230","530217","0.0-1.0-312.0-0.0","0","0","57115","","null","","","null","34","","","","","","","","","","","","","","","",""
"","ITI","","html-keyboard-response","231","531225","0.0-1.0-315.0","0","0","57115","","null","","","null","34","","","","","","","","","","","","","","","NaN",""
"","S1","","html-keyboard-response","232","531481","0.0-1.0-317.0","0","0","57115","","null","","","null","35","","","","","","","","","","","","","","","",""
"","ISI","","html-keyboard-response","233","531993","0.0-1.0-318.0","0","0","57115","","null","","","null","35","NaN","","","","","","","","","","","","","","",""
"","S2","","html-keyboard-response","234","532249","0.0-1.0-319.0","0","0","57115","","null","","","null","35","","NaN","","","","","","","","","","","","","",""
"","response","","html-keyboard-response","235","532395","0.0-1.0-320.0-0.0","0","0","57115","","142","","","75","35","","","1","35","training","adjacent","FG","6","7","M.jpg","R.jpg","1","1","1","",""
"","feedback","","html-keyboard-response","236","533401","0.0-1.0-321.0-0.0","0","0","57115","","null","","","null","35","","","","","","","","","","","","","","","",""
"","ITI","","html-keyboard-response","237","534409","0.0-1.0-324.0","0","0","57115","","null","","","null","35","","","","","","","","","","","","","","","NaN",""
"","S1","","html-keyboard-response","238","534665","0.0-1.0-326.0","0","0","57115","","null","","","null","36","","","","","","","","","","","","","","","",""
"","ISI","","html-keyboard-response","239","535177","0.0-1.0-327.0","0","0","57115","","null","","","null","36","NaN","","","","","","","","","","","","","","",""
"","S2","","html-keyboard-response","240","535433","0.0-1.0-328.0","0","0","57115","","null","","","null","36","","NaN","","","","","","","","","","","","","",""
"","response","","html-keyboard-response","241","535473","0.0-1.0-329.0-0.0","0","0","57115","","35","","","75","36","","","1","36","training","adjacent","DC","4","3","O.jpg","N.jpg","1","0","0","",""
"","feedback","","html-keyboard-response","242","536481","0.0-1.0-330.0-0.0","0","0","57115","","null","","","null","36","","","","","","","","","","","","","","","",""
"","time_out","","html-keyboard-response","243","538489","0.0-1.0-332.0-0.0","0","0","57115","","null","","","null","36","","","","","","","","","","","","","","","",""
"","ITI","","html-keyboard-response","244","539497","0.0-1.0-333.0","0","0","57115","","null","","","null","36","","","","","","","","","","","","","","","NaN",""
"","S1","","html-keyboard-response","245","539753","0.0-1.0-335.0","0","0","57115","","null","","","null","37","","","","","","","","","","","","","","","",""
"","ISI","","html-keyboard-response","246","540265","0.0-1.0-336.0","0","0","57115","","null","","","null","37","NaN","","","","","","","","","","","","","","",""
"","S2","","html-keyboard-response","247","540521","0.0-1.0-337.0","0","0","57115","","null","","","null","37","","NaN","","","","","","","","","","","","","",""
"","response","","html-keyboard-response","248","540801","0.0-1.0-338.0-0.0","0","0","57115","","275","","","68","37","","","1","37","training","adjacent","EF","5","6","P.jpg","M.jpg","0","1","0","",""
"","feedback","","html-keyboard-response","249","541809","0.0-1.0-339.0-0.0","0","0","57115","","null","","","null","37","","","","","","","","","","","","","","","",""
"","time_out","","html-keyboard-response","250","543817","0.0-1.0-341.0-0.0","0","0","57115","","null","","","null","37","","","","","","","","","","","","","","","",""
"","ITI","","html-keyboard-response","251","544825","0.0-1.0-342.0","0","0","57115","","null","","","null","37","","","","","","","","","","","","","","","NaN",""
"","S1","","html-keyboard-response","252","545081","0.0-1.0-344.0","0","0","57115","","null","","","null","38","","","","","","","","","","","","","","","",""
"","ISI","","html-keyboard-response","253","545593","0.0-1.0-345.0","0","0","57115","","null","","","null","38","NaN","","","","","","","","","","","","","","",""
"","S2","","html-keyboard-response","254","545849","0.0-1.0-346.0","0","0","57115","","null","","","null","38","","NaN","","","","","","","","","","","","","",""
"","response","","html-keyboard-response","255","546078","0.0-1.0-347.0-0.0","0","0","57115","","223","","","68","38","","","1","38","training","adjacent","GF","7","6","R.jpg","M.jpg","0","0","1","",""
"","feedback","","html-keyboard-response","256","547089","0.0-1.0-348.0-0.0","0","0","57115","","null","","","null","38","","","","","","","","","","","","","","","",""
"","ITI","","html-keyboard-response","257","548097","0.0-1.0-351.0","0","0","57115","","null","","","null","38","","","","","","","","","","","","","","","NaN",""
"","S1","","html-keyboard-response","258","548353","0.0-1.0-353.0","0","0","57115","","null","","","null","39","","","","","","","","","","","","","","","",""
"","ISI","","html-keyboard-response","259","548859","0.0-1.0-354.0","0","0","57115","","null","","","null","39","NaN","","","","","","","","","","","","","","",""
"","S2","","html-keyboard-response","260","549121","0.0-1.0-355.0","0","0","57115","","null","","","null","39","","NaN","","","","","","","","","","","","","",""
"","response","","html-keyboard-response","261","549332","0.0-1.0-356.0-0.0","0","0","57115","","207","","","68","39","","","1","39","training","adjacent","DC","4","3","O.jpg","N.jpg","0","0","1","",""
"","feedback","","html-keyboard-response","262","550345","0.0-1.0-357.0-0.0","0","0","57115","","null","","","null","39","","","","","","","","","","","","","","","",""
"","ITI","","html-keyboard-response","263","551353","0.0-1.0-360.0","0","0","57115","","null","","","null","39","","","","","","","","","","","","","","","NaN",""
"","S1","","html-keyboard-response","264","551609","0.0-1.0-362.0","0","0","57115","","null","","","null","40","","","","","","","","","","","","","","","",""
"","ISI","","html-keyboard-response","265","552121","0.0-1.0-363.0","0","0","57115","","null","","","null","40","NaN","","","","","","","","","","","","","","",""
"","S2","","html-keyboard-response","266","552377","0.0-1.0-364.0","0","0","57115","","null","","","null","40","","NaN","","","","","","","","","","","","","",""
"","response","","html-keyboard-response","267","552609","0.0-1.0-365.0-0.0","0","0","57115","","227","","","68","40","","","1","40","training","adjacent","DC","4","3","O.jpg","N.jpg","0","0","1","",""
"","feedback","","html-keyboard-response","268","553617","0.0-1.0-366.0-0.0","0","0","57115","","null","","","null","40","","","","","","","","","","","","","","","",""
"","ITI","","html-keyboard-response","269","554625","0.0-1.0-369.0","0","0","57115","","null","","","null","40","","","","","","","","","","","","","","","NaN",""
"","S1","","html-keyboard-response","270","554881","0.0-1.0-371.0","0","0","57115","","null","","","null","41","","","","","","","","","","","","","","","",""
"","ISI","","html-keyboard-response","271","555393","0.0-1.0-372.0","0","0","57115","","null","","","null","41","NaN","","","","","","","","","","","","","","",""
"","S2","","html-keyboard-response","272","555650","0.0-1.0-373.0","0","0","57115","","null","","","null","41","","NaN","","","","","","","","","","","","","",""
"","response","","html-keyboard-response","273","556101","0.0-1.0-374.0-0.0","0","0","57115","","446","","","75","41","","","1","41","training","adjacent","CD","3","4","N.jpg","O.jpg","1","1","1","",""
"","feedback","","html-keyboard-response","274","557113","0.0-1.0-375.0-0.0","0","0","57115","","null","","","null","41","","","","","","","","","","","","","","","",""
"","ITI","","html-keyboard-response","275","558121","0.0-1.0-378.0","0","0","57115","","null","","","null","41","","","","","","","","","","","","","","","NaN",""
"","S1","","html-keyboard-response","276","558377","0.0-1.0-380.0","0","0","57115","","null","","","null","42","","","","","","","","","","","","","","","",""
"","ISI","","html-keyboard-response","277","558889","0.0-1.0-381.0","0","0","57115","","null","","","null","42","NaN","","","","","","","","","","","","","","",""
"","S2","","html-keyboard-response","278","559144","0.0-1.0-382.0","0","0","57115","","null","","","null","42","","NaN","","","","","","","","","","","","","",""
"","response","","html-keyboard-response","279","559389","0.0-1.0-383.0-0.0","0","0","57115","","241","","","75","42","","","1","42","training","adjacent","FE","6","5","M.jpg","P.jpg","1","0","0","",""
"","feedback","","html-keyboard-response","280","560401","0.0-1.0-384.0-0.0","0","0","57115","","null","","","null","42","","","","","","","","","","","","","","","",""
"","time_out","","html-keyboard-response","281","562408","0.0-1.0-386.0-0.0","0","0","57115","","null","","","null","42","","","","","","","","","","","","","","","",""
"","ITI","","html-keyboard-response","282","563417","0.0-1.0-387.0","0","0","57115","","null","","","null","42","","","","","","","","","","","","","","","NaN",""
"","S1","","html-keyboard-response","283","563674","0.0-1.0-389.0","0","0","57115","","null","","","null","43","","","","","","","","","","","","","","","",""
"","ISI","","html-keyboard-response","284","564185","0.0-1.0-390.0","0","0","57115","","null","","","null","43","NaN","","","","","","","","","","","","","","",""
"","S2","","html-keyboard-response","285","564441","0.0-1.0-391.0","0","0","57115","","null","","","null","43","","NaN","","","","","","","","","","","","","",""
"","response","","html-keyboard-response","286","564680","0.0-1.0-392.0-0.0","0","0","57115","","235","","","75","43","","","1","43","training","adjacent","BA","2","1","L.jpg","Q.jpg","1","0","0","",""
"","feedback","","html-keyboard-response","287","565689","0.0-1.0-393.0-0.0","0","0","57115","","null","","","null","43","","","","","","","","","","","","","","","",""
"","time_out","","html-keyboard-response","288","567697","0.0-1.0-395.0-0.0","0","0","57115","","null","","","null","43","","","","","","","","","","","","","","","",""
"","ITI","","html-keyboard-response","289","568704","0.0-1.0-396.0","0","0","57115","","null","","","null","43","","","","","","","","","","","","","","","NaN",""
"","S1","","html-keyboard-response","290","568962","0.0-1.0-398.0","0","0","57115","","null","","","null","44","","","","","","","","","","","","","","","",""
"","ISI","","html-keyboard-response","291","569473","0.0-1.0-399.0","0","0","57115","","null","","","null","44","NaN","","","","","","","","","","","","","","",""
"","S2","","html-keyboard-response","292","569728","0.0-1.0-400.0","0","0","57115","","null","","","null","44","","NaN","","","","","","","","","","","","","",""
"","response","","html-keyboard-response","293","570110","0.0-1.0-401.0-0.0","0","0","57115","","375","","","75","44","","","1","44","training","adjacent","BC","2","3","L.jpg","N.jpg","1","1","1","",""
"","feedback","","html-keyboard-response","294","571121","0.0-1.0-402.0-0.0","0","0","57115","","null","","","null","44","","","","","","","","","","","","","","","",""
"","ITI","","html-keyboard-response","295","572129","0.0-1.0-405.0","0","0","57115","","null","","","null","44","","","","","","","","","","","","","","","NaN",""
"","S1","","html-keyboard-response","296","572385","0.0-1.0-407.0","0","0","57115","","null","","","null","45","","","","","","","","","","","","","","","",""
"","ISI","","html-keyboard-response","297","572897","0.0-1.0-408.0","0","0","57115","","null","","","null","45","NaN","","","","","","","","","","","","","","",""
"","S2","","html-keyboard-response","298","573153","0.0-1.0-409.0","0","0","57115","","null","","","null","45","","NaN","","","","","","","","","","","","","",""
"","response","","html-keyboard-response","299","573592","0.0-1.0-410.0-0.0","0","0","57115","","435","","","75","45","","","1","45","training","adjacent","ED","5","4","P.jpg","O.jpg","1","0","0","",""
"","feedback","","html-keyboard-response","300","574600","0.0-1.0-411.0-0.0","0","0","57115","","null","","","null","45","","","","","","","","","","","","","","","",""
"","time_out","","html-keyboard-response","301","576609","0.0-1.0-413.0-0.0","0","0","57115","","null","","","null","45","","","","","","","","","","","","","","","",""
"","ITI","","html-keyboard-response","302","577616","0.0-1.0-414.0","0","0","57115","","null","","","null","45","","","","","","","","","","","","","","","NaN",""
"","S1","","html-keyboard-response","303","577873","0.0-1.0-416.0","0","0","57115","","null","","","null","46","","","","","","","","","","","","","","","",""
"","ISI","","html-keyboard-response","304","578384","0.0-1.0-417.0","0","0","57115","","null","","","null","46","NaN","","","","","","","","","","","","","","",""
"","S2","","html-keyboard-response","305","578641","0.0-1.0-418.0","0","0","57115","","null","","","null","46","","NaN","","","","","","","","","","","","","",""
"","response","","html-keyboard-response","306","578858","0.0-1.0-419.0-0.0","0","0","57115","","212","","","68","46","","","1","46","training","adjacent","AB","1","2","Q.jpg","L.jpg","0","1","0","",""
"","feedback","","html-keyboard-response","307","579865","0.0-1.0-420.0-0.0","0","0","57115","","null","","","null","46","","","","","","","","","","","","","","","",""
"","time_out","","html-keyboard-response","308","581873","0.0-1.0-422.0-0.0","0","0","57115","","null","","","null","46","","","","","","","","","","","","","","","",""
"","ITI","","html-keyboard-response","309","582880","0.0-1.0-423.0","0","0","57115","","null","","","null","46","","","","","","","","","","","","","","","NaN",""
"","S1","","html-keyboard-response","310","583137","0.0-1.0-425.0","0","0","57115","","null","","","null","47","","","","","","","","","","","","","","","",""
"","ISI","","html-keyboard-response","311","583649","0.0-1.0-426.0","0","0","57115","","null","","","null","47","NaN","","","","","","","","","","","","","","",""
"","S2","","html-keyboard-response","312","583905","0.0-1.0-427.0","0","0","57115","","null","","","null","47","","NaN","","","","","","","","","","","","","",""
"","response","","html-keyboard-response","313","584199","0.0-1.0-428.0-0.0","0","0","57115","","289","","","68","47","","","1","47","training","adjacent","GF","7","6","R.jpg","M.jpg","0","0","1","",""
"","feedback","","html-keyboard-response","314","585209","0.0-1.0-429.0-0.0","0","0","57115","","null","","","null","47","","","","","","","","","","","","","","","",""
"","ITI","","html-keyboard-response","315","586216","0.0-1.0-432.0","0","0","57115","","null","","","null","47","","","","","","","","","","","","","","","NaN",""
"","block_over","","html-keyboard-response","316","590074","0.0-1.0-433.0-0.0","0","0","57115","","3837","","","32","47","","","","","","","","","","","","","","","",""
"","S1","","html-keyboard-response","317","590337","0.0-1.0-434.0","0","0","57115","","null","","","null","48","","","","","","","","","","","","","","","",""
"","ISI","","html-keyboard-response","318","590848","0.0-1.0-435.0","0","0","57115","","null","","","null","48","NaN","","","","","","","","","","","","","","",""
"","S2","","html-keyboard-response","319","591105","0.0-1.0-436.0","0","0","57115","","null","","","null","48","","NaN","","","","","","","","","","","","","",""
"","response","","html-keyboard-response","320","591395","0.0-1.0-437.0-0.0","0","0","57115","","286","","","68","48","","","2","48","training","adjacent","DC","4","3","O.jpg","N.jpg","0","0","1","",""
"","feedback","","html-keyboard-response","321","592401","0.0-1.0-438.0-0.0","0","0","57115","","null","","","null","48","","","","","","","","","","","","","","","",""
"","ITI","","html-keyboard-response","322","593409","0.0-1.0-441.0","0","0","57115","","null","","","null","48","","","","","","","","","","","","","","","NaN",""
"","S1","","html-keyboard-response","323","593664","0.0-1.0-443.0","0","0","57115","","null","","","null","49","","","","","","","","","","","","","","","",""
"","ISI","","html-keyboard-response","324","594169","0.0-1.0-444.0","0","0","57115","","null","","","null","49","NaN","","","","","","","","","","","","","","",""
"","S2","","html-keyboard-response","325","594425","0.0-1.0-445.0","0","0","57115","","null","","","null","49","","NaN","","","","","","","","","","","","","",""
"","response","","html-keyboard-response","326","594825","0.0-1.0-446.0-0.0","0","0","57115","","396","","","68","49","","","2","49","training","adjacent","EF","5","6","P.jpg","M.jpg","0","1","0","",""
"","feedback","","html-keyboard-response","327","595833","0.0-1.0-447.0-0.0","0","0","57115","","null","","","null","49","","","","","","","","","","","","","","","",""
"","time_out","","html-keyboard-response","328","597841","0.0-1.0-449.0-0.0","0","0","57115","","null","","","null","49","","","","","","","","","","","","","","","",""
"","ITI","","html-keyboard-response","329","598849","0.0-1.0-450.0","0","0","57115","","null","","","null","49","","","","","","","","","","","","","","","NaN",""
"","S1","","html-keyboard-response","330","599105","0.0-1.0-452.0","0","0","57115","","null","","","null","50","","","","","","","","","","","","","","","",""
"","ISI","","html-keyboard-response","331","599616","0.0-1.0-453.0","0","0","57115","","null","","","null","50","NaN","","","","","","","","","","","","","","",""
"","S2","","html-keyboard-response","332","599873","0.0-1.0-454.0","0","0","57115","","null","","","null","50","","NaN","","","","","","","","","","","","","",""
"","response","","html-keyboard-response","333","600129","0.0-1.0-455.0-0.0","0","0","57115","","252","","","75","50","","","2","50","training","adjacent","FG","6","7","M.jpg","R.jpg","1","1","1","",""
"","feedback","","html-keyboard-response","334","601136","0.0-1.0-456.0-0.0","0","0","57115","","null","","","null","50","","","","","","","","","","","","","","","",""
"","ITI","","html-keyboard-response","335","602145","0.0-1.0-459.0","0","0","57115","","null","","","null","50","","","","","","","","","","","","","","","NaN",""
"","S1","","html-keyboard-response","336","602401","0.0-1.0-461.0","0","0","57115","","null","","","null","51","","","","","","","","","","","","","","","",""
"","ISI","","html-keyboard-response","337","602913","0.0-1.0-462.0","0","0","57115","","null","","","null","51","NaN","","","","","","","","","","","","","","",""
"","S2","","html-keyboard-response","338","603169","0.0-1.0-463.0","0","0","57115","","null","","","null","51","","NaN","","","","","","","","","","","","","",""
"","response","","html-keyboard-response","339","603466","0.0-1.0-464.0-0.0","0","0","57115","","293","","","75","51","","","2","51","training","adjacent","FG","6","7","M.jpg","R.jpg","1","1","1","",""
"","feedback","","html-keyboard-response","340","604472","0.0-1.0-465.0-0.0","0","0","57115","","null","","","null","51","","","","","","","","","","","","","","","",""
"","ITI","","html-keyboard-response","341","605480","0.0-1.0-468.0","0","0","57115","","null","","","null","51","","","","","","","","","","","","","","","NaN",""
"","S1","","html-keyboard-response","342","605737","0.0-1.0-470.0","0","0","57115","","null","","","null","52","","","","","","","","","","","","","","","",""
"","ISI","","html-keyboard-response","343","606249","0.0-1.0-471.0","0","0","57115","","null","","","null","52","NaN","","","","","","","","","","","","","","",""
"","S2","","html-keyboard-response","344","606505","0.0-1.0-472.0","0","0","57115","","null","","","null","52","","NaN","","","","","","","","","","","","","",""
"","response","","html-keyboard-response","345","606856","0.0-1.0-473.0-0.0","0","0","57115","","347","","","68","52","","","2","52","training","adjacent","ED","5","4","P.jpg","O.jpg","0","0","1","",""
"","feedback","","html-keyboard-response","346","607865","0.0-1.0-474.0-0.0","0","0","57115","","null","","","null","52","","","","","","","","","","","","","","","",""
"","ITI","","html-keyboard-response","347","608873","0.0-1.0-477.0","0","0","57115","","null","","","null","52","","","","","","","","","","","","","","","NaN",""
"","S1","","html-keyboard-response","348","609129","0.0-1.0-479.0","0","0","57115","","null","","","null","53","","","","","","","","","","","","","","","",""
"","ISI","","html-keyboard-response","349","609640","0.0-1.0-480.0","0","0","57115","","null","","","null","53","NaN","","","","","","","","","","","","","","",""
"","S2","","html-keyboard-response","350","609897","0.0-1.0-481.0","0","0","57115","","null","","","null","53","","NaN","","","","","","","","","","","","","",""
"","response","","html-keyboard-response","351","610309","0.0-1.0-482.0-0.0","0","0","57115","","408","","","68","53","","","2","53","training","adjacent","DC","4","3","O.jpg","N.jpg","0","0","1","",""
"","feedback","","html-keyboard-response","352","611321","0.0-1.0-483.0-0.0","0","0","57115","","null","","","null","53","","","","","","","","","","","","","","","",""
"","ITI","","html-keyboard-response","353","612329","0.0-1.0-486.0","0","0","57115","","null","","","null","53","","","","","","","","","","","","","","","NaN",""
"","S1","","html-keyboard-response","354","612585","0.0-1.0-488.0","0","0","57115","","null","","","null","54","","","","","","","","","","","","","","","",""
"","ISI","","html-keyboard-response","355","613097","0.0-1.0-489.0","0","0","57115","","null","","","null","54","NaN","","","","","","","","","","","","","","",""
"","S2","","html-keyboard-response","356","613353","0.0-1.0-490.0","0","0","57115","","null","","","null","54","","NaN","","","","","","","","","","","","","",""
"","response","","html-keyboard-response","357","613591","0.0-1.0-491.0-0.0","0","0","57115","","234","","","68","54","","","2","54","training","adjacent","GF","7","6","R.jpg","M.jpg","0","0","1","",""
"","feedback","","html-keyboard-response","358","614601","0.0-1.0-492.0-0.0","0","0","57115","","null","","","null","54","","","","","","","","","","","","","","","",""
"","ITI","","html-keyboard-response","359","615609","0.0-1.0-495.0","0","0","57115","","null","","","null","54","","","","","","","","","","","","","","","NaN",""
"","S1","","html-keyboard-response","360","615865","0.0-1.0-497.0","0","0","57115","","null","","","null","55","","","","","","","","","","","","","","","",""
"","ISI","","html-keyboard-response","361","616377","0.0-1.0-498.0","0","0","57115","","null","","","null","55","NaN","","","","","","","","","","","","","","",""
"","S2","","html-keyboard-response","362","616633","0.0-1.0-499.0","0","0","57115","","null","","","null","55","","NaN","","","","","","","","","","","","","",""
"","response","","html-keyboard-response","363","616951","0.0-1.0-500.0-0.0","0","0","57115","","314","","","75","55","","","2","55","training","adjacent","GF","7","6","R.jpg","M.jpg","1","0","0","",""
"","feedback","","html-keyboard-response","364","617961","0.0-1.0-501.0-0.0","0","0","57115","","null","","","null","55","","","","","","","","","","","","","","","",""
"","time_out","","html-keyboard-response","365","619968","0.0-1.0-503.0-0.0","0","0","57115","","null","","","null","55","","","","","","","","","","","","","","","",""
"","ITI","","html-keyboard-response","366","620976","0.0-1.0-504.0","0","0","57115","","null","","","null","55","","","","","","","","","","","","","","","NaN",""
"","S1","","html-keyboard-response","367","621233","0.0-1.0-506.0","0","0","57115","","null","","","null","56","","","","","","","","","","","","","","","",""
"","ISI","","html-keyboard-response","368","621745","0.0-1.0-507.0","0","0","57115","","null","","","null","56","NaN","","","","","","","","","","","","","","",""
"","S2","","html-keyboard-response","369","622001","0.0-1.0-508.0","0","0","57115","","null","","","null","56","","NaN","","","","","","","","","","","","","",""
"","response","","html-keyboard-response","370","622374","0.0-1.0-509.0-0.0","0","0","57115","","369","","","75","56","","","2","56","training","adjacent","CB","3","2","N.jpg","L.jpg","1","0","0","",""
"","feedback","","html-keyboard-response","371","623385","0.0-1.0-510.0-0.0","0","0","57115","","null","","","null","56","","","","","","","","","","","","","","","",""
"","time_out","","html-keyboard-response","372","625393","0.0-1.0-512.0-0.0","0","0","57115","","null","","","null","56","","","","","","","","","","","","","","","",""
"","ITI","","html-keyboard-response","373","626401","0.0-1.0-513.0","0","0","57115","","null","","","null","56","","","","","","","","","","","","","","","NaN",""
"","S1","","html-keyboard-response","374","626657","0.0-1.0-515.0","0","0","57115","","null","","","null","57","","","","","","","","","","","","","","","",""
"","ISI","","html-keyboard-response","375","627169","0.0-1.0-516.0","0","0","57115","","null","","","null","57","NaN","","","","","","","","","","","","","","",""
"","S2","","html-keyboard-response","376","627425","0.0-1.0-517.0","0","0","57115","","null","","","null","57","","NaN","","","","","","","","","","","","","",""
"","response","","html-keyboard-response","377","627761","0.0-1.0-518.0-0.0","0","0","57115","","332","","","75","57","","","2","57","training","adjacent","CB","3","2","N.jpg","L.jpg","1","0","0","",""
"","feedback","","html-keyboard-response","378","628769","0.0-1.0-519.0-0.0","0","0","57115","","null","","","null","57","","","","","","","","","","","","","","","",""
"","time_out","","html-keyboard-response","379","630777","0.0-1.0-521.0-0.0","0","0","57115","","null","","","null","57","","","","","","","","","","","","","","","",""
"","ITI","","html-keyboard-response","380","631785","0.0-1.0-522.0","0","0","57115","","null","","","null","57","","","","","","","","","","","","","","","NaN",""
"","S1","","html-keyboard-response","381","632041","0.0-1.0-524.0","0","0","57115","","null","","","null","58","","","","","","","","","","","","","","","",""
"","ISI","","html-keyboard-response","382","632553","0.0-1.0-525.0","0","0","57115","","null","","","null","58","NaN","","","","","","","","","","","","","","",""
"","S2","","html-keyboard-response","383","632809","0.0-1.0-526.0","0","0","57115","","null","","","null","58","","NaN","","","","","","","","","","","","","",""
"","response","","html-keyboard-response","384","633116","0.0-1.0-527.0-0.0","0","0","57115","","302","","","68","58","","","2","58","training","adjacent","EF","5","6","P.jpg","M.jpg","0","1","0","",""
"","feedback","","html-keyboard-response","385","634121","0.0-1.0-528.0-0.0","0","0","57115","","null","","","null","58","","","","","","","","","","","","","","","",""
"","time_out","","html-keyboard-response","386","636129","0.0-1.0-530.0-0.0","0","0","57115","","null","","","null","58","","","","","","","","","","","","","","","",""
"","ITI","","html-keyboard-response","387","637137","0.0-1.0-531.0","0","0","57115","","null","","","null","58","","","","","","","","","","","","","","","NaN",""
"","S1","","html-keyboard-response","388","637393","0.0-1.0-533.0","0","0","57115","","null","","","null","59","","","","","","","","","","","","","","","",""
"","ISI","","html-keyboard-response","389","637905","0.0-1.0-534.0","0","0","57115","","null","","","null","59","NaN","","","","","","","","","","","","","","",""
"","S2","","html-keyboard-response","390","638161","0.0-1.0-535.0","0","0","57115","","null","","","null","59","","NaN","","","","","","","","","","","","","",""
"","response","","html-keyboard-response","391","638470","0.0-1.0-536.0-0.0","0","0","57115","","305","","","68","59","","","2","59","training","adjacent","CB","3","2","N.jpg","L.jpg","0","0","1","",""
"","feedback","","html-keyboard-response","392","639481","0.0-1.0-537.0-0.0","0","0","57115","","null","","","null","59","","","","","","","","","","","","","","","",""
"","ITI","","html-keyboard-response","393","640489","0.0-1.0-540.0","0","0","57115","","null","","","null","59","","","","","","","","","","","","","","","NaN",""
"","S1","","html-keyboard-response","394","640745","0.0-1.0-542.0","0","0","57115","","null","","","null","60","","","","","","","","","","","","","","","",""
"","ISI","","html-keyboard-response","395","641257","0.0-1.0-543.0","0","0","57115","","null","","","null","60","NaN","","","","","","","","","","","","","","",""
"","S2","","html-keyboard-response","396","641513","0.0-1.0-544.0","0","0","57115","","null","","","null","60","","NaN","","","","","","","","","","","","","",""
"","response","","html-keyboard-response","397","641818","0.0-1.0-545.0-0.0","0","0","57115","","300","","","75","60","","","2","60","training","adjacent","ED","5","4","P.jpg","O.jpg","1","0","0","",""
"","feedback","","html-keyboard-response","398","642825","0.0-1.0-546.0-0.0","0","0","57115","","null","","","null","60","","","","","","","","","","","","","","","",""
"","time_out","","html-keyboard-response","399","644833","0.0-1.0-548.0-0.0","0","0","57115","","null","","","null","60","","","","","","","","","","","","","","","",""
"","ITI","","html-keyboard-response","400","645841","0.0-1.0-549.0","0","0","57115","","null","","","null","60","","","","","","","","","","","","","","","NaN",""
"","S1","","html-keyboard-response","401","646097","0.0-1.0-551.0","0","0","57115","","null","","","null","61","","","","","","","","","","","","","","","",""
"","ISI","","html-keyboard-response","402","646609","0.0-1.0-552.0","0","0","57115","","null","","","null","61","NaN","","","","","","","","","","","","","","",""
"","S2","","html-keyboard-response","403","646865","0.0-1.0-553.0","0","0","57115","","null","","","null","61","","NaN","","","","","","","","","","","","","",""
"","response","","html-keyboard-response","404","647206","0.0-1.0-554.0-0.0","0","0","57115","","336","","","75","61","","","2","61","training","adjacent","BA","2","1","L.jpg","Q.jpg","1","0","0","",""
"","feedback","","html-keyboard-response","405","648217","0.0-1.0-555.0-0.0","0","0","57115","","null","","","null","61","","","","","","","","","","","","","","","",""
"","time_out","","html-keyboard-response","406","650226","0.0-1.0-557.0-0.0","0","0","57115","","null","","","null","61","","","","","","","","","","","","","","","",""
"","ITI","","html-keyboard-response","407","651233","0.0-1.0-558.0","0","0","57115","","null","","","null","61","","","","","","","","","","","","","","","NaN",""
"","S1","","html-keyboard-response","408","651489","0.0-1.0-560.0","0","0","57115","","null","","","null","62","","","","","","","","","","","","","","","",""
"","ISI","","html-keyboard-response","409","652001","0.0-1.0-561.0","0","0","57115","","null","","","null","62","NaN","","","","","","","","","","","","","","",""
"","S2","","html-keyboard-response","410","652257","0.0-1.0-562.0","0","0","57115","","null","","","null","62","","NaN","","","","","","","","","","","","","",""
"","response","","html-keyboard-response","411","652643","0.0-1.0-563.0-0.0","0","0","57115","","382","","","68","62","","","2","62","training","adjacent","ED","5","4","P.jpg","O.jpg","0","0","1","",""
"","feedback","","html-keyboard-response","412","653649","0.0-1.0-564.0-0.0","0","0","57115","","null","","","null","62","","","","","","","","","","","","","","","",""
"","ITI","","html-keyboard-response","413","654657","0.0-1.0-567.0","0","0","57115","","null","","","null","62","","","","","","","","","","","","","","","NaN",""
"","S1","","html-keyboard-response","414","654912","0.0-1.0-569.0","0","0","57115","","null","","","null","63","","","","","","","","","","","","","","","",""
"","ISI","","html-keyboard-response","415","655425","0.0-1.0-570.0","0","0","57115","","null","","","null","63","NaN","","","","","","","","","","","","","","",""
"","S2","","html-keyboard-response","416","655680","0.0-1.0-571.0","0","0","57115","","null","","","null","63","","NaN","","","","","","","","","","","","","",""
"","response","","html-keyboard-response","417","655949","0.0-1.0-572.0-0.0","0","0","57115","","264","","","68","63","","","2","63","training","adjacent","FE","6","5","M.jpg","P.jpg","0","0","1","",""
"","feedback","","html-keyboard-response","418","656960","0.0-1.0-573.0-0.0","0","0","57115","","null","","","null","63","","","","","","","","","","","","","","","",""
"","ITI","","html-keyboard-response","419","657969","0.0-1.0-576.0","0","0","57115","","null","","","null","63","","","","","","","","","","","","","","","NaN",""
"","S1","","html-keyboard-response","420","658225","0.0-1.0-578.0","0","0","57115","","null","","","null","64","","","","","","","","","","","","","","","",""
"","ISI","","html-keyboard-response","421","658737","0.0-1.0-579.0","0","0","57115","","null","","","null","64","NaN","","","","","","","","","","","","","","",""
"","S2","","html-keyboard-response","422","658993","0.0-1.0-580.0","0","0","57115","","null","","","null","64","","NaN","","","","","","","","","","","","","",""
"","response","","html-keyboard-response","423","659270","0.0-1.0-581.0-0.0","0","0","57115","","273","","","68","64","","","2","64","training","adjacent","DE","4","5","O.jpg","P.jpg","0","1","0","",""
"","feedback","","html-keyboard-response","424","660281","0.0-1.0-582.0-0.0","0","0","57115","","null","","","null","64","","","","","","","","","","","","","","","",""
"","time_out","","html-keyboard-response","425","662288","0.0-1.0-584.0-0.0","0","0","57115","","null","","","null","64","","","","","","","","","","","","","","","",""
"","ITI","","html-keyboard-response","426","663297","0.0-1.0-585.0","0","0","57115","","null","","","null","64","","","","","","","","","","","","","","","NaN",""
"","S1","","html-keyboard-response","427","663553","0.0-1.0-587.0","0","0","57115","","null","","","null","65","","","","","","","","","","","","","","","",""
"","ISI","","html-keyboard-response","428","664065","0.0-1.0-588.0","0","0","57115","","null","","","null","65","NaN","","","","","","","","","","","","","","",""
"","S2","","html-keyboard-response","429","664321","0.0-1.0-589.0","0","0","57115","","null","","","null","65","","NaN","","","","","","","","","","","","","",""
"","response","","html-keyboard-response","430","664551","0.0-1.0-590.0-0.0","0","0","57115","","226","","","68","65","","","2","65","training","adjacent","FE","6","5","M.jpg","P.jpg","0","0","1","",""
"","feedback","","html-keyboard-response","431","665561","0.0-1.0-591.0-0.0","0","0","57115","","null","","","null","65","","","","","","","","","","","","","","","",""
"","ITI","","html-keyboard-response","432","666568","0.0-1.0-594.0","0","0","57115","","null","","","null","65","","","","","","","","","","","","","","","NaN",""
"","S1","","html-keyboard-response","433","666825","0.0-1.0-596.0","0","0","57115","","null","","","null","66","","","","","","","","","","","","","","","",""
"","ISI","","html-keyboard-response","434","667329","0.0-1.0-597.0","0","0","57115","","null","","","null","66","NaN","","","","","","","","","","","","","","",""
"","S2","","html-keyboard-response","435","667584","0.0-1.0-598.0","0","0","57115","","null","","","null","66","","NaN","","","","","","","","","","","","","",""
"","response","","html-keyboard-response","436","667890","0.0-1.0-599.0-0.0","0","0","57115","","302","","","75","66","","","2","66","training","adjacent","BC","2","3","L.jpg","N.jpg","1","1","1","",""
"","feedback","","html-keyboard-response","437","668896","0.0-1.0-600.0-0.0","0","0","57115","","null","","","null","66","","","","","","","","","","","","","","","",""
"","ITI","","html-keyboard-response","438","669905","0.0-1.0-603.0","0","0","57115","","null","","","null","66","","","","","","","","","","","","","","","NaN",""
"","S1","","html-keyboard-response","439","670161","0.0-1.0-605.0","0","0","57115","","null","","","null","67","","","","","","","","","","","","","","","",""
"","ISI","","html-keyboard-response","440","670672","0.0-1.0-606.0","0","0","57115","","null","","","null","67","NaN","","","","","","","","","","","","","","",""
"","S2","","html-keyboard-response","441","670929","0.0-1.0-607.0","0","0","57115","","null","","","null","67","","NaN","","","","","","","","","","","","","",""
"","response","","html-keyboard-response","442","670989","0.0-1.0-608.0-0.0","0","0","57115","","56","","","68","67","","","2","67","training","adjacent","DC","4","3","O.jpg","N.jpg","0","0","1","",""
"","feedback","","html-keyboard-response","443","672000","0.0-1.0-609.0-0.0","0","0","57115","","null","","","null","67","","","","","","","","","","","","","","","",""
"","ITI","","html-keyboard-response","444","673009","0.0-1.0-612.0","0","0","57115","","null","","","null","67","","","","","","","","","","","","","","","NaN",""
"","S1","","html-keyboard-response","445","673265","0.0-1.0-614.0","0","0","57115","","null","","","null","68","","","","","","","","","","","","","","","",""
"","ISI","","html-keyboard-response","446","673769","0.0-1.0-615.0","0","0","57115","","null","","","null","68","NaN","","","","","","","","","","","","","","",""
"","S2","","html-keyboard-response","447","674025","0.0-1.0-616.0","0","0","57115","","null","","","null","68","","NaN","","","","","","","","","","","","","",""
"","response","","html-keyboard-response","448","674241","0.0-1.0-617.0-0.0","0","0","57115","","212","","","68","68","","","2","68","training","adjacent","DE","4","5","O.jpg","P.jpg","0","1","0","",""
"","feedback","","html-keyboard-response","449","675249","0.0-1.0-618.0-0.0","0","0","57115","","null","","","null","68","","","","","","","","","","","","","","","",""
"","time_out","","html-keyboard-response","450","677257","0.0-1.0-620.0-0.0","0","0","57115","","null","","","null","68","","","","","","","","","","","","","","","",""
"","ITI","","html-keyboard-response","451","678265","0.0-1.0-621.0","0","0","57115","","null","","","null","68","","","","","","","","","","","","","","","NaN",""
"","S1","","html-keyboard-response","452","678520","0.0-1.0-623.0","0","0","57115","","null","","","null","69","","","","","","","","","","","","","","","",""
"","ISI","","html-keyboard-response","453","679024","0.0-1.0-624.0","0","0","57115","","null","","","null","69","NaN","","","","","","","","","","","","","","",""
"","S2","","html-keyboard-response","454","679280","0.0-1.0-625.0","0","0","57115","","null","","","null","69","","NaN","","","","","","","","","","","","","",""
"","response","","html-keyboard-response","455","679489","0.0-1.0-626.0-0.0","0","0","57115","","205","","","68","69","","","2","69","training","adjacent","BA","2","1","L.jpg","Q.jpg","0","0","1","",""
"","feedback","","html-keyboard-response","456","680497","0.0-1.0-627.0-0.0","0","0","57115","","null","","","null","69","","","","","","","","","","","","","","","",""
"","ITI","","html-keyboard-response","457","681505","0.0-1.0-630.0","0","0","57115","","null","","","null","69","","","","","","","","","","","","","","","NaN",""
"","S1","","html-keyboard-response","458","681761","0.0-1.0-632.0","0","0","57115","","null","","","null","70","","","","","","","","","","","","","","","",""
"","ISI","","html-keyboard-response","459","682273","0.0-1.0-633.0","0","0","57115","","null","","","null","70","NaN","","","","","","","","","","","","","","",""
"","S2","","html-keyboard-response","460","682529","0.0-1.0-634.0","0","0","57115","","null","","","null","70","","NaN","","","","","","","","","","","","","",""
"","response","","html-keyboard-response","461","682662","0.0-1.0-635.0-0.0","0","0","57115","","129","","","75","70","","","2","70","training","adjacent","DE","4","5","O.jpg","P.jpg","1","1","1","",""
"","feedback","","html-keyboard-response","462","683673","0.0-1.0-636.0-0.0","0","0","57115","","null","","","null","70","","","","","","","","","","","","","","","",""
"","ITI","","html-keyboard-response","463","684680","0.0-1.0-639.0","0","0","57115","","null","","","null","70","","","","","","","","","","","","","","","NaN",""
"","S1","","html-keyboard-response","464","684937","0.0-1.0-641.0","0","0","57115","","null","","","null","71","","","","","","","","","","","","","","","",""
"","ISI","","html-keyboard-response","465","685449","0.0-1.0-642.0","0","0","57115","","null","","","null","71","NaN","","","","","","","","","","","","","","",""
"","S2","","html-keyboard-response","466","685705","0.0-1.0-643.0","0","0","57115","","null","","","null","71","","NaN","","","","","","","","","","","","","",""
"","response","","html-keyboard-response","467","685802","0.0-1.0-644.0-0.0","0","0","57115","","93","","","68","71","","","2","71","training","adjacent","FE","6","5","M.jpg","P.jpg","0","0","1","",""
"","feedback","","html-keyboard-response","468","686808","0.0-1.0-645.0-0.0","0","0","57115","","null","","","null","71","","","","","","","","","","","","","","","",""
"","ITI","","html-keyboard-response","469","687816","0.0-1.0-648.0","0","0","57115","","null","","","null","71","","","","","","","","","","","","","","","NaN",""
"","S1","","html-keyboard-response","470","688072","0.0-1.0-650.0","0","0","57115","","null","","","null","72","","","","","","","","","","","","","","","",""
"","ISI","","html-keyboard-response","471","688576","0.0-1.0-651.0","0","0","57115","","null","","","null","72","NaN","","","","","","","","","","","","","","",""
"","S2","","html-keyboard-response","472","688832","0.0-1.0-652.0","0","0","57115","","null","","","null","72","","NaN","","","","","","","","","","","","","",""
"","response","","html-keyboard-response","473","688868","0.0-1.0-653.0-0.0","0","0","57115","","32","","","75","72","","","2","72","training","adjacent","DC","4","3","O.jpg","N.jpg","1","0","0","",""
"","feedback","","html-keyboard-response","474","689881","0.0-1.0-654.0-0.0","0","0","57115","","null","","","null","72","","","","","","","","","","","","","","","",""
"","time_out","","html-keyboard-response","475","691888","0.0-1.0-656.0-0.0","0","0","57115","","null","","","null","72","","","","","","","","","","","","","","","",""
"","ITI","","html-keyboard-response","476","692897","0.0-1.0-657.0","0","0","57115","","null","","","null","72","","","","","","","","","","","","","","","NaN",""
"","S1","","html-keyboard-response","477","693153","0.0-1.0-659.0","0","0","57115","","null","","","null","73","","","","","","","","","","","","","","","",""
"","ISI","","html-keyboard-response","478","693665","0.0-1.0-660.0","0","0","57115","","null","","","null","73","NaN","","","","","","","","","","","","","","",""
"","S2","","html-keyboard-response","479","693921","0.0-1.0-661.0","0","0","57115","","null","","","null","73","","NaN","","","","","","","","","","","","","",""
"","response","","html-keyboard-response","480","694060","0.0-1.0-662.0-0.0","0","0","57115","","135","","","75","73","","","2","73","training","adjacent","BA","2","1","L.jpg","Q.jpg","1","0","0","",""
"","feedback","","html-keyboard-response","481","695072","0.0-1.0-663.0-0.0","0","0","57115","","null","","","null","73","","","","","","","","","","","","","","","",""
"","time_out","","html-keyboard-response","482","697080","0.0-1.0-665.0-0.0","0","0","57115","","null","","","null","73","","","","","","","","","","","","","","","",""
"","ITI","","html-keyboard-response","483","698089","0.0-1.0-666.0","0","0","57115","","null","","","null","73","","","","","","","","","","","","","","","NaN",""
"","S1","","html-keyboard-response","484","698345","0.0-1.0-668.0","0","0","57115","","null","","","null","74","","","","","","","","","","","","","","","",""
"","ISI","","html-keyboard-response","485","698857","0.0-1.0-669.0","0","0","57115","","null","","","null","74","NaN","","","","","","","","","","","","","","",""
"","S2","","html-keyboard-response","486","699113","0.0-1.0-670.0","0","0","57115","","null","","","null","74","","NaN","","","","","","","","","","","","","",""
"","response","","html-keyboard-response","487","699210","0.0-1.0-671.0-0.0","0","0","57115","","93","","","75","74","","","2","74","training","adjacent","CD","3","4","N.jpg","O.jpg","1","1","1","",""
"","feedback","","html-keyboard-response","488","700217","0.0-1.0-672.0-0.0","0","0","57115","","null","","","null","74","","","","","","","","","","","","","","","",""
"","ITI","","html-keyboard-response","489","701225","0.0-1.0-675.0","0","0","57115","","null","","","null","74","","","","","","","","","","","","","","","NaN",""
"","S1","","html-keyboard-response","490","701481","0.0-1.0-677.0","0","0","57115","","null","","","null","75","","","","","","","","","","","","","","","",""
"","ISI","","html-keyboard-response","491","701992","0.0-1.0-678.0","0","0","57115","","null","","","null","75","NaN","","","","","","","","","","","","","","",""
"","S2","","html-keyboard-response","492","702249","0.0-1.0-679.0","0","0","57115","","null","","","null","75","","NaN","","","","","","","","","","","","","",""
"","response","","html-keyboard-response","493","702275","0.0-1.0-680.0-0.0","0","0","57115","","23","","","68","75","","","2","75","training","adjacent","AB","1","2","Q.jpg","L.jpg","0","1","0","",""
"","feedback","","html-keyboard-response","494","703281","0.0-1.0-681.0-0.0","0","0","57115","","null","","","null","75","","","","","","","","","","","","","","","",""
"","time_out","","html-keyboard-response","495","705289","0.0-1.0-683.0-0.0","0","0","57115","","null","","","null","75","","","","","","","","","","","","","","","",""
"","ITI","","html-keyboard-response","496","706297","0.0-1.0-684.0","0","0","57115","","null","","","null","75","","","","","","","","","","","","","","","NaN",""
"","S1","","html-keyboard-response","497","706553","0.0-1.0-686.0","0","0","57115","","null","","","null","76","","","","","","","","","","","","","","","",""
"","ISI","","html-keyboard-response","498","707065","0.0-1.0-687.0","0","0","57115","","null","","","null","76","NaN","","","","","","","","","","","","","","",""
"","S2","","html-keyboard-response","499","707321","0.0-1.0-688.0","0","0","57115","","null","","","null","76","","NaN","","","","","","","","","","","","","",""
"","response","","html-keyboard-response","500","707605","0.0-1.0-689.0-0.0","0","0","57115","","263","","","68","76","","","2","76","training","adjacent","ED","5","4","P.jpg","O.jpg","0","0","1","",""
"","feedback","","html-keyboard-response","501","708617","0.0-1.0-690.0-0.0","0","0","57115","","null","","","null","76","","","","","","","","","","","","","","","",""
"","ITI","","html-keyboard-response","502","709625","0.0-1.0-693.0","0","0","57115","","null","","","null","76","","","","","","","","","","","","","","","NaN",""
"","S1","","html-keyboard-response","503","709881","0.0-1.0-695.0","0","0","57115","","null","","","null","77","","","","","","","","","","","","","","","",""
"","ISI","","html-keyboard-response","504","710393","0.0-1.0-696.0","0","0","57115","","null","","","null","77","NaN","","","","","","","","","","","","","","",""
"","S2","","html-keyboard-response","505","710649","0.0-1.0-697.0","0","0","57115","","null","","","null","77","","NaN","","","","","","","","","","","","","",""
"","response","","html-keyboard-response","506","710678","0.0-1.0-698.0-0.0","0","0","57115","","26","","","68","77","","","2","77","training","adjacent","AB","1","2","Q.jpg","L.jpg","0","1","0","",""
"","feedback","","html-keyboard-response","507","711689","0.0-1.0-699.0-0.0","0","0","57115","","null","","","null","77","","","","","","","","","","","","","","","",""
"","time_out","","html-keyboard-response","508","713696","0.0-1.0-701.0-0.0","0","0","57115","","null","","","null","77","","","","","","","","","","","","","","","",""
"","ITI","","html-keyboard-response","509","714705","0.0-1.0-702.0","0","0","57115","","null","","","null","77","","","","","","","","","","","","","","","NaN",""
"","S1","","html-keyboard-response","510","714961","0.0-1.0-704.0","0","0","57115","","null","","","null","78","","","","","","","","","","","","","","","",""
"","ISI","","html-keyboard-response","511","715472","0.0-1.0-705.0","0","0","57115","","null","","","null","78","NaN","","","","","","","","","","","","","","",""
"","S2","","html-keyboard-response","512","715729","0.0-1.0-706.0","0","0","57115","","null","","","null","78","","NaN","","","","","","","","","","","","","",""
"","response","","html-keyboard-response","513","715746","0.0-1.0-707.0-0.0","0","0","57115","","13","","","75","78","","","2","78","training","adjacent","DE","4","5","O.jpg","P.jpg","1","1","1","",""
"","feedback","","html-keyboard-response","514","716753","0.0-1.0-708.0-0.0","0","0","57115","","null","","","null","78","","","","","","","","","","","","","","","",""
"","ITI","","html-keyboard-response","515","717761","0.0-1.0-711.0","0","0","57115","","null","","","null","78","","","","","","","","","","","","","","","NaN",""
"","S1","","html-keyboard-response","516","718016","0.0-1.0-713.0","0","0","57115","","null","","","null","79","","","","","","","","","","","","","","","",""
"","ISI","","html-keyboard-response","517","718521","0.0-1.0-714.0","0","0","57115","","null","","","null","79","NaN","","","","","","","","","","","","","","",""
"","S2","","html-keyboard-response","518","718777","0.0-1.0-715.0","0","0","57115","","null","","","null","79","","NaN","","","","","","","","","","","","","",""
"","response","","html-keyboard-response","519","719164","0.0-1.0-716.0-0.0","0","0","57115","","384","","","75","79","","","2","79","training","adjacent","EF","5","6","P.jpg","M.jpg","1","1","1","",""
"","feedback","","html-keyboard-response","520","720176","0.0-1.0-717.0-0.0","0","0","57115","","null","","","null","79","","","","","","","","","","","","","","","",""
"","ITI","","html-keyboard-response","521","721184","0.0-1.0-720.0","0","0","57115","","null","","","null","79","","","","","","","","","","","","","","","NaN",""
"","S1","","html-keyboard-response","522","721441","0.0-1.0-722.0","0","0","57115","","null","","","null","80","","","","","","","","","","","","","","","",""
"","ISI","","html-keyboard-response","523","721952","0.0-1.0-723.0","0","0","57115","","null","","","null","80","NaN","","","","","","","","","","","","","","",""
"","S2","","html-keyboard-response","524","722208","0.0-1.0-724.0","0","0","57115","","null","","","null","80","","NaN","","","","","","","","","","","","","",""
"","response","","html-keyboard-response","525","722545","0.0-1.0-725.0-0.0","0","0","57115","","332","","","68","80","","","2","80","training","adjacent","BC","2","3","L.jpg","N.jpg","0","1","0","",""
"","feedback","","html-keyboard-response","526","723553","0.0-1.0-726.0-0.0","0","0","57115","","null","","","null","80","","","","","","","","","","","","","","","",""
"","time_out","","html-keyboard-response","527","725561","0.0-1.0-728.0-0.0","0","0","57115","","null","","","null","80","","","","","","","","","","","","","","","",""
"","ITI","","html-keyboard-response","528","726568","0.0-1.0-729.0","0","0","57115","","null","","","null","80","","","","","","","","","","","","","","","NaN",""
"","S1","","html-keyboard-response","529","726825","0.0-1.0-731.0","0","0","57115","","null","","","null","81","","","","","","","","","","","","","","","",""
"","ISI","","html-keyboard-response","530","727337","0.0-1.0-732.0","0","0","57115","","null","","","null","81","NaN","","","","","","","","","","","","","","",""
"","S2","","html-keyboard-response","531","727593","0.0-1.0-733.0","0","0","57115","","null","","","null","81","","NaN","","","","","","","","","","","","","",""
"","response","","html-keyboard-response","532","728099","0.0-1.0-734.0-0.0","0","0","57115","","501","","","75","81","","","2","81","training","adjacent","FG","6","7","M.jpg","R.jpg","1","1","1","",""
"","feedback","","html-keyboard-response","533","729104","0.0-1.0-735.0-0.0","0","0","57115","","null","","","null","81","","","","","","","","","","","","","","","",""
"","ITI","","html-keyboard-response","534","730112","0.0-1.0-738.0","0","0","57115","","null","","","null","81","","","","","","","","","","","","","","","NaN",""
"","S1","","html-keyboard-response","535","730369","0.0-1.0-740.0","0","0","57115","","null","","","null","82","","","","","","","","","","","","","","","",""
"","ISI","","html-keyboard-response","536","730873","0.0-1.0-741.0","0","0","57115","","null","","","null","82","NaN","","","","","","","","","","","","","","",""
"","S2","","html-keyboard-response","537","731129","0.0-1.0-742.0","0","0","57115","","null","","","null","82","","NaN","","","","","","","","","","","","","",""
"","response","","html-keyboard-response","538","731476","0.0-1.0-743.0-0.0","0","0","57115","","344","","","75","82","","","2","82","training","adjacent","CD","3","4","N.jpg","O.jpg","1","1","1","",""
"","feedback","","html-keyboard-response","539","732489","0.0-1.0-744.0-0.0","0","0","57115","","null","","","null","82","","","","","","","","","","","","","","","",""
"","ITI","","html-keyboard-response","540","733497","0.0-1.0-747.0","0","0","57115","","null","","","null","82","","","","","","","","","","","","","","","NaN",""
"","S1","","html-keyboard-response","541","733753","0.0-1.0-749.0","0","0","57115","","null","","","null","83","","","","","","","","","","","","","","","",""
"","ISI","","html-keyboard-response","542","734265","0.0-1.0-750.0","0","0","57115","","null","","","null","83","NaN","","","","","","","","","","","","","","",""
"","S2","","html-keyboard-response","543","734521","0.0-1.0-751.0","0","0","57115","","null","","","null","83","","NaN","","","","","","","","","","","","","",""
"","response","","html-keyboard-response","544","734810","0.0-1.0-752.0-0.0","0","0","57115","","285","","","68","83","","","2","83","training","adjacent","BA","2","1","L.jpg","Q.jpg","0","0","1","",""
"","feedback","","html-keyboard-response","545","735817","0.0-1.0-753.0-0.0","0","0","57115","","null","","","null","83","","","","","","","","","","","","","","","",""
"","ITI","","html-keyboard-response","546","736825","0.0-1.0-756.0","0","0","57115","","null","","","null","83","","","","","","","","","","","","","","","NaN",""
"","S1","","html-keyboard-response","547","737081","0.0-1.0-758.0","0","0","57115","","null","","","null","84","","","","","","","","","","","","","","","",""
"","ISI","","html-keyboard-response","548","737593","0.0-1.0-759.0","0","0","57115","","null","","","null","84","NaN","","","","","","","","","","","","","","",""
"","S2","","html-keyboard-response","549","737850","0.0-1.0-760.0","0","0","57115","","null","","","null","84","","NaN","","","","","","","","","","","","","",""
"","response","","html-keyboard-response","550","738382","0.0-1.0-761.0-0.0","0","0","57115","","527","","","68","84","","","2","84","training","adjacent","BC","2","3","L.jpg","N.jpg","0","1","0","",""
"","feedback","","html-keyboard-response","551","739393","0.0-1.0-762.0-0.0","0","0","57115","","null","","","null","84","","","","","","","","","","","","","","","",""
"","time_out","","html-keyboard-response","552","741400","0.0-1.0-764.0-0.0","0","0","57115","","null","","","null","84","","","","","","","","","","","","","","","",""
"","ITI","","html-keyboard-response","553","742409","0.0-1.0-765.0","0","0","57115","","null","","","null","84","","","","","","","","","","","","","","","NaN",""
"","S1","","html-keyboard-response","554","742665","0.0-1.0-767.0","0","0","57115","","null","","","null","85","","","","","","","","","","","","","","","",""
"","ISI","","html-keyboard-response","555","743177","0.0-1.0-768.0","0","0","57115","","null","","","null","85","NaN","","","","","","","","","","","","","","",""
"","S2","","html-keyboard-response","556","743433","0.0-1.0-769.0","0","0","57115","","null","","","null","85","","NaN","","","","","","","","","","","","","",""
"","response","","html-keyboard-response","557","743867","0.0-1.0-770.0-0.0","0","0","57115","","428","","","68","85","","","2","85","training","adjacent","BC","2","3","L.jpg","N.jpg","0","1","0","",""
"","feedback","","html-keyboard-response","558","744872","0.0-1.0-771.0-0.0","0","0","57115","","null","","","null","85","","","","","","","","","","","","","","","",""
"","time_out","","html-keyboard-response","559","746880","0.0-1.0-773.0-0.0","0","0","57115","","null","","","null","85","","","","","","","","","","","","","","","",""
"","ITI","","html-keyboard-response","560","747889","0.0-1.0-774.0","0","0","57115","","null","","","null","85","","","","","","","","","","","","","","","NaN",""
"","S1","","html-keyboard-response","561","748144","0.0-1.0-776.0","0","0","57115","","null","","","null","86","","","","","","","","","","","","","","","",""
"","ISI","","html-keyboard-response","562","748649","0.0-1.0-777.0","0","0","57115","","null","","","null","86","NaN","","","","","","","","","","","","","","",""
"","S2","","html-keyboard-response","563","748906","0.0-1.0-778.0","0","0","57115","","null","","","null","86","","NaN","","","","","","","","","","","","","",""
"","response","","html-keyboard-response","564","749147","0.0-1.0-779.0-0.0","0","0","57115","","234","","","68","86","","","2","86","training","adjacent","GF","7","6","R.jpg","M.jpg","0","0","1","",""
"","feedback","","html-keyboard-response","565","750153","0.0-1.0-780.0-0.0","0","0","57115","","null","","","null","86","","","","","","","","","","","","","","","",""
"","ITI","","html-keyboard-response","566","751161","0.0-1.0-783.0","0","0","57115","","null","","","null","86","","","","","","","","","","","","","","","NaN",""
"","S1","","html-keyboard-response","567","751417","0.0-1.0-785.0","0","0","57115","","null","","","null","87","","","","","","","","","","","","","","","",""
"","ISI","","html-keyboard-response","568","751929","0.0-1.0-786.0","0","0","57115","","null","","","null","87","NaN","","","","","","","","","","","","","","",""
"","S2","","html-keyboard-response","569","752184","0.0-1.0-787.0","0","0","57115","","null","","","null","87","","NaN","","","","","","","","","","","","","",""
"","response","","html-keyboard-response","570","752441","0.0-1.0-788.0-0.0","0","0","57115","","253","","","68","87","","","2","87","training","adjacent","GF","7","6","R.jpg","M.jpg","0","0","1","",""
"","feedback","","html-keyboard-response","571","753449","0.0-1.0-789.0-0.0","0","0","57115","","null","","","null","87","","","","","","","","","","","","","","","",""
"","ITI","","html-keyboard-response","572","754456","0.0-1.0-792.0","0","0","57115","","null","","","null","87","","","","","","","","","","","","","","","NaN",""
"","S1","","html-keyboard-response","573","754713","0.0-1.0-794.0","0","0","57115","","null","","","null","88","","","","","","","","","","","","","","","",""
"","ISI","","html-keyboard-response","574","755224","0.0-1.0-795.0","0","0","57115","","null","","","null","88","NaN","","","","","","","","","","","","","","",""
"","S2","","html-keyboard-response","575","755481","0.0-1.0-796.0","0","0","57115","","null","","","null","88","","NaN","","","","","","","","","","","","","",""
"","response","","html-keyboard-response","576","756010","0.0-1.0-797.0-0.0","0","0","57115","","525","","","68","88","","","2","88","training","adjacent","FE","6","5","M.jpg","P.jpg","0","0","1","",""
"","feedback","","html-keyboard-response","577","757017","0.0-1.0-798.0-0.0","0","0","57115","","null","","","null","88","","","","","","","","","","","","","","","",""
"","ITI","","html-keyboard-response","578","758024","0.0-1.0-801.0","0","0","57115","","null","","","null","88","","","","","","","","","","","","","","","NaN",""
"","S1","","html-keyboard-response","579","758281","0.0-1.0-803.0","0","0","57115","","null","","","null","89","","","","","","","","","","","","","","","",""
"","ISI","","html-keyboard-response","580","758793","0.0-1.0-804.0","0","0","57115","","null","","","null","89","NaN","","","","","","","","","","","","","","",""
"","S2","","html-keyboard-response","581","759049","0.0-1.0-805.0","0","0","57115","","null","","","null","89","","NaN","","","","","","","","","","","","","",""
"","response","","html-keyboard-response","582","759532","0.0-1.0-806.0-0.0","0","0","57115","","479","","","75","89","","","2","89","training","adjacent","FG","6","7","M.jpg","R.jpg","1","1","1","",""
