"success","ttype","start_time","trial_type","trial_index","time_elapsed","internal_node_id","warning","missed_checkup","PID","view_history","rt","responses","repeat_instructions","key_press","index","keypress_isi","keypress_S2","block","trial_num","phase","group_type","pair_type","S1_stim","S2_stim","S1_img","S2_img","S1_chosen","S1_higher","accuracy","keypress_iti","total_bonus_tally"
"true","full_screen","d04142023hr2025","fullscreen","0","342600","0.0-0.0","0","0","37850","","","","","","","","","","","","","","","","","","","","","",""
"","instructions","","instructions","1","353301","0.0-1.0-0.0-0.0","0","0","37850","[{""page_index"":0,""viewing_time"":2207},{""page_index"":1,""viewing_time"":4330},{""page_index"":2,""viewing_time"":2871},{""page_index"":3,""viewing_time"":1291}]","10700","","","","","","","","","","","","","","","","","","","",""
"","comprehension_check","","survey-multi-choice","2","367038","0.0-1.0-0.0-1.0","0","0","37850","","13730","{""Q0"":""True"",""Q1"":""D"",""Q2"":""Once the second image appears and while the screen 'MAKE A CHOICE' is shown"",""Q3"":""Green mark"",""Q4"":""either D or K""}","0","","","","","","","","","","","","","","","","","",""
"","start_exp","","html-keyboard-response","3","368769","0.0-1.0-1.0","0","0","37850","","1727","","","32","","","","","","","","","","","","","","","","",""
"","S1","","html-keyboard-response","4","369031","0.0-1.0-2.0","0","0","37850","","null","","","null","0","","","","","","","","","","","","","","","",""
"","ISI","","html-keyboard-response","5","370040","0.0-1.0-3.0","0","0","37850","","null","","","null","0","NaN","","","","","","","","","","","","","","",""
"","S2","","html-keyboard-response","6","370302","0.0-1.0-4.0","0","0","37850","","null","","","null","0","","NaN","","","","","","","","","","","","","",""
"","response","","html-keyboard-response","7","371162","0.0-1.0-5.0-0.0","0","0","37850","","857","","","68","0","","","1","0","training","adjacent","DE","4","5","O.jpg","Q.jpg","1","1","1","",""
"","feedback","","html-keyboard-response","8","372177","0.0-1.0-6.0-0.0","0","0","37850","","null","","","null","0","","","","","","","","","","","","","","","",""
"","ITI","","html-keyboard-response","9","373182","0.0-1.0-9.0","0","0","37850","","null","","","null","0","","","","","","","","","","","","","","","NaN",""
"","S1","","html-keyboard-response","10","373437","0.0-1.0-11.0","0","0","37850","","null","","","null","1","","","","","","","","","","","","","","","",""
"","ISI","","html-keyboard-response","11","374447","0.0-1.0-12.0","0","0","37850","","null","","","null","1","NaN","","","","","","","","","","","","","","",""
"","S2","","html-keyboard-response","12","374703","0.0-1.0-13.0","0","0","37850","","null","","","null","1","","NaN","","","","","","","","","","","","","",""
"","response","","html-keyboard-response","13","375499","0.0-1.0-14.0-0.0","0","0","37850","","794","","","68","1","","","1","1","training","adjacent","EF","5","6","Q.jpg","N.jpg","1","1","1","",""
"","feedback","","html-keyboard-response","14","376513","0.0-1.0-15.0-0.0","0","0","37850","","null","","","null","1","","","","","","","","","","","","","","","",""
"","ITI","","html-keyboard-response","15","377517","0.0-1.0-18.0","0","0","37850","","null","","","null","1","","","","","","","","","","","","","","","NaN",""
"","S1","","html-keyboard-response","16","377774","0.0-1.0-20.0","0","0","37850","","null","","","null","2","","","","","","","","","","","","","","","",""
"","ISI","","html-keyboard-response","17","378783","0.0-1.0-21.0","0","0","37850","","null","","","null","2","NaN","","","","","","","","","","","","","","",""
"","S2","","html-keyboard-response","18","379038","0.0-1.0-22.0","0","0","37850","","null","","","null","2","","NaN","","","","","","","","","","","","","",""
"","response","","html-keyboard-response","19","379828","0.0-1.0-23.0-0.0","0","0","37850","","788","","","68","2","","","1","2","training","adjacent","ED","5","4","Q.jpg","O.jpg","1","0","0","",""
"","feedback","","html-keyboard-response","20","380839","0.0-1.0-24.0-0.0","0","0","37850","","null","","","null","2","","","","","","","","","","","","","","","",""
"","time_out","","html-keyboard-response","21","382847","0.0-1.0-26.0-0.0","0","0","37850","","null","","","null","2","","","","","","","","","","","","","","","",""
"","ITI","","html-keyboard-response","22","383857","0.0-1.0-27.0","0","0","37850","","null","","","null","2","","","","","","","","","","","","","","","NaN",""
"","S1","","html-keyboard-response","23","384118","0.0-1.0-29.0","0","0","37850","","null","","","null","3","","","","","","","","","","","","","","","",""
"","ISI","","html-keyboard-response","24","385128","0.0-1.0-30.0","0","0","37850","","null","","","null","3","NaN","","","","","","","","","","","","","","",""
"","S2","","html-keyboard-response","25","385390","0.0-1.0-31.0","0","0","37850","","null","","","null","3","","NaN","","","","","","","","","","","","","",""
"","response","","html-keyboard-response","26","386163","0.0-1.0-32.0-0.0","0","0","37850","","770","","","75","3","","","1","3","training","adjacent","EF","5","6","Q.jpg","N.jpg","0","1","0","",""
"","feedback","","html-keyboard-response","27","387178","0.0-1.0-33.0-0.0","0","0","37850","","null","","","null","3","","","","","","","","","","","","","","","",""
"","time_out","","html-keyboard-response","28","389180","0.0-1.0-35.0-0.0","0","0","37850","","null","","","null","3","","","","","","","","","","","","","","","",""
"","ITI","","html-keyboard-response","29","390189","0.0-1.0-36.0","0","0","37850","","null","","","null","3","","","","","","","","","","","","","","","NaN",""
"","S1","","html-keyboard-response","30","390446","0.0-1.0-38.0","0","0","37850","","null","","","null","4","","","","","","","","","","","","","","","",""
"","ISI","","html-keyboard-response","31","391455","0.0-1.0-39.0","0","0","37850","","null","","","null","4","NaN","","","","","","","","","","","","","","",""
"","S2","","html-keyboard-response","32","391711","0.0-1.0-40.0","0","0","37850","","null","","","null","4","","NaN","","","","","","","","","","","","","",""
"","response","","html-keyboard-response","33","392148","0.0-1.0-41.0-0.0","0","0","37850","","434","","","68","4","","","1","4","training","adjacent","DC","4","3","O.jpg","L.jpg","1","0","0","",""
"","feedback","","html-keyboard-response","34","393157","0.0-1.0-42.0-0.0","0","0","37850","","null","","","null","4","","","","","","","","","","","","","","","",""
"","time_out","","html-keyboard-response","35","395165","0.0-1.0-44.0-0.0","0","0","37850","","null","","","null","4","","","","","","","","","","","","","","","",""
"","ITI","","html-keyboard-response","36","396175","0.0-1.0-45.0","0","0","37850","","null","","","null","4","","","","","","","","","","","","","","","NaN",""
"","S1","","html-keyboard-response","37","396431","0.0-1.0-47.0","0","0","37850","","null","","","null","5","","","","","","","","","","","","","","","",""
"","ISI","","html-keyboard-response","38","397441","0.0-1.0-48.0","0","0","37850","","null","","","null","5","NaN","","","","","","","","","","","","","","",""
"","S2","","html-keyboard-response","39","397702","0.0-1.0-49.0","0","0","37850","","null","","","null","5","","NaN","","","","","","","","","","","","","",""
"","response","","html-keyboard-response","40","398073","0.0-1.0-50.0-0.0","0","0","37850","","369","","","68","5","","","1","5","training","adjacent","BC","2","3","R.jpg","L.jpg","1","1","1","",""
"","feedback","","html-keyboard-response","41","399078","0.0-1.0-51.0-0.0","0","0","37850","","null","","","null","5","","","","","","","","","","","","","","","",""
"","ITI","","html-keyboard-response","42","400089","0.0-1.0-54.0","0","0","37850","","null","","","null","5","","","","","","","","","","","","","","","NaN",""
"","S1","","html-keyboard-response","43","400350","0.0-1.0-56.0","0","0","37850","","null","","","null","6","","","","","","","","","","","","","","","",""
"","ISI","","html-keyboard-response","44","401359","0.0-1.0-57.0","0","0","37850","","null","","","null","6","NaN","","","","","","","","","","","","","","",""
"","S2","","html-keyboard-response","45","401615","0.0-1.0-58.0","0","0","37850","","null","","","null","6","","NaN","","","","","","","","","","","","","",""
"","response","","html-keyboard-response","46","402373","0.0-1.0-59.0-0.0","0","0","37850","","755","","","68","6","","","1","6","training","adjacent","ED","5","4","Q.jpg","O.jpg","1","0","0","",""
"","feedback","","html-keyboard-response","47","403383","0.0-1.0-60.0-0.0","0","0","37850","","null","","","null","6","","","","","","","","","","","","","","","",""
"","time_out","","html-keyboard-response","48","405394","0.0-1.0-62.0-0.0","0","0","37850","","null","","","null","6","","","","","","","","","","","","","","","",""
"","ITI","","html-keyboard-response","49","406398","0.0-1.0-63.0","0","0","37850","","null","","","null","6","","","","","","","","","","","","","","","NaN",""
"","S1","","html-keyboard-response","50","406654","0.0-1.0-65.0","0","0","37850","","null","","","null","7","","","","","","","","","","","","","","","",""
"","ISI","","html-keyboard-response","51","407664","0.0-1.0-66.0","0","0","37850","","null","","","null","7","NaN","","","","","","","","","","","","","","",""
"","S2","","html-keyboard-response","52","407925","0.0-1.0-67.0","0","0","37850","","null","","","null","7","","NaN","","","","","","","","","","","","","",""
"","response","","html-keyboard-response","53","408681","0.0-1.0-68.0-0.0","0","0","37850","","754","","","75","7","","","1","7","training","adjacent","EF","5","6","Q.jpg","N.jpg","0","1","0","",""
"","feedback","","html-keyboard-response","54","409690","0.0-1.0-69.0-0.0","0","0","37850","","null","","","null","7","","","","","","","","","","","","","","","",""
"","time_out","","html-keyboard-response","55","411694","0.0-1.0-71.0-0.0","0","0","37850","","null","","","null","7","","","","","","","","","","","","","","","",""
"","ITI","","html-keyboard-response","56","412703","0.0-1.0-72.0","0","0","37850","","null","","","null","7","","","","","","","","","","","","","","","NaN",""
"","S1","","html-keyboard-response","57","412958","0.0-1.0-74.0","0","0","37850","","null","","","null","8","","","","","","","","","","","","","","","",""
"","ISI","","html-keyboard-response","58","413968","0.0-1.0-75.0","0","0","37850","","null","","","null","8","NaN","","","","","","","","","","","","","","",""
"","S2","","html-keyboard-response","59","414226","0.0-1.0-76.0","0","0","37850","","null","","","null","8","","NaN","","","","","","","","","","","","","",""
"","response","","html-keyboard-response","60","414802","0.0-1.0-77.0-0.0","0","0","37850","","573","","","75","8","","","1","8","training","adjacent","DE","4","5","O.jpg","Q.jpg","0","1","0","",""
"","feedback","","html-keyboard-response","61","415809","0.0-1.0-78.0-0.0","0","0","37850","","null","","","null","8","","","","","","","","","","","","","","","",""
"","time_out","","html-keyboard-response","62","417817","0.0-1.0-80.0-0.0","0","0","37850","","null","","","null","8","","","","","","","","","","","","","","","",""
"","ITI","","html-keyboard-response","63","418822","0.0-1.0-81.0","0","0","37850","","null","","","null","8","","","","","","","","","","","","","","","NaN",""
"","S1","","html-keyboard-response","64","419079","0.0-1.0-83.0","0","0","37850","","null","","","null","9","","","","","","","","","","","","","","","",""
"","ISI","","html-keyboard-response","65","420087","0.0-1.0-84.0","0","0","37850","","null","","","null","9","NaN","","","","","","","","","","","","","","",""
"","S2","","html-keyboard-response","66","420342","0.0-1.0-85.0","0","0","37850","","null","","","null","9","","NaN","","","","","","","","","","","","","",""
"","response","","html-keyboard-response","67","420812","0.0-1.0-86.0-0.0","0","0","37850","","468","","","68","9","","","1","9","training","adjacent","CD","3","4","L.jpg","O.jpg","1","1","1","",""
"","feedback","","html-keyboard-response","68","421822","0.0-1.0-87.0-0.0","0","0","37850","","null","","","null","9","","","","","","","","","","","","","","","",""
"","ITI","","html-keyboard-response","69","422833","0.0-1.0-90.0","0","0","37850","","null","","","null","9","","","","","","","","","","","","","","","NaN",""
"","S1","","html-keyboard-response","70","423094","0.0-1.0-92.0","0","0","37850","","null","","","null","10","","","","","","","","","","","","","","","",""
"","ISI","","html-keyboard-response","71","424104","0.0-1.0-93.0","0","0","37850","","null","","","null","10","NaN","","","","","","","","","","","","","","",""
"","S2","","html-keyboard-response","72","424359","0.0-1.0-94.0","0","0","37850","","null","","","null","10","","NaN","","","","","","","","","","","","","",""
"","response","","html-keyboard-response","73","424776","0.0-1.0-95.0-0.0","0","0","37850","","414","","","68","10","","","1","10","training","adjacent","BA","2","1","R.jpg","P.jpg","1","0","0","",""
"","feedback","","html-keyboard-response","74","425782","0.0-1.0-96.0-0.0","0","0","37850","","null","","","null","10","","","","","","","","","","","","","","","",""
"","time_out","","html-keyboard-response","75","427790","0.0-1.0-98.0-0.0","0","0","37850","","null","","","null","10","","","","","","","","","","","","","","","",""
"","ITI","","html-keyboard-response","76","428800","0.0-1.0-99.0","0","0","37850","","null","","","null","10","","","","","","","","","","","","","","","NaN",""
"","S1","","html-keyboard-response","77","429055","0.0-1.0-101.0","0","0","37850","","null","","","null","11","","","","","","","","","","","","","","","",""
"","ISI","","html-keyboard-response","78","430066","0.0-1.0-102.0","0","0","37850","","null","","","null","11","NaN","","","","","","","","","","","","","","",""
"","S2","","html-keyboard-response","79","430327","0.0-1.0-103.0","0","0","37850","","null","","","null","11","","NaN","","","","","","","","","","","","","",""
"","response","","html-keyboard-response","80","430717","0.0-1.0-104.0-0.0","0","0","37850","","387","","","68","11","","","1","11","training","adjacent","GF","7","6","M.jpg","N.jpg","1","0","0","",""
"","feedback","","html-keyboard-response","81","431726","0.0-1.0-105.0-0.0","0","0","37850","","null","","","null","11","","","","","","","","","","","","","","","",""
"","time_out","","html-keyboard-response","82","433735","0.0-1.0-107.0-0.0","0","0","37850","","null","","","null","11","","","","","","","","","","","","","","","",""
"","ITI","","html-keyboard-response","83","434744","0.0-1.0-108.0","0","0","37850","","null","","","null","11","","","","","","","","","","","","","","","NaN",""
"","S1","","html-keyboard-response","84","435000","0.0-1.0-110.0","0","0","37850","","null","","","null","12","","","","","","","","","","","","","","","",""
"","ISI","","html-keyboard-response","85","436010","0.0-1.0-111.0","0","0","37850","","null","","","null","12","NaN","","","","","","","","","","","","","","",""
"","S2","","html-keyboard-response","86","436272","0.0-1.0-112.0","0","0","37850","","null","","","null","12","","NaN","","","","","","","","","","","","","",""
"","response","","html-keyboard-response","87","436921","0.0-1.0-113.0-0.0","0","0","37850","","648","","","75","12","","","1","12","training","adjacent","CB","3","2","L.jpg","R.jpg","0","0","1","",""
"","feedback","","html-keyboard-response","88","437927","0.0-1.0-114.0-0.0","0","0","37850","","null","","","null","12","","","","","","","","","","","","","","","",""
"","ITI","","html-keyboard-response","89","438935","0.0-1.0-117.0","0","0","37850","","null","","","null","12","","","","","","","","","","","","","","","NaN",""
"","S1","","html-keyboard-response","90","439191","0.0-1.0-119.0","0","0","37850","","null","","","null","13","","","","","","","","","","","","","","","",""
"","ISI","","html-keyboard-response","91","440201","0.0-1.0-120.0","0","0","37850","","null","","","null","13","NaN","","","","","","","","","","","","","","",""
"","S2","","html-keyboard-response","92","440463","0.0-1.0-121.0","0","0","37850","","null","","","null","13","","NaN","","","","","","","","","","","","","",""
"","response","","html-keyboard-response","93","440926","0.0-1.0-122.0-0.0","0","0","37850","","461","","","68","13","","","1","13","training","adjacent","BC","2","3","R.jpg","L.jpg","1","1","1","",""
"","feedback","","html-keyboard-response","94","441937","0.0-1.0-123.0-0.0","0","0","37850","","null","","","null","13","","","","","","","","","","","","","","","",""
"","ITI","","html-keyboard-response","95","442947","0.0-1.0-126.0","0","0","37850","","null","","","null","13","","","","","","","","","","","","","","","NaN",""
"","S1","","html-keyboard-response","96","443209","0.0-1.0-128.0","0","0","37850","","null","","","null","14","","","","","","","","","","","","","","","",""
"","ISI","","html-keyboard-response","97","444217","0.0-1.0-129.0","0","0","37850","","null","","","null","14","NaN","","","","","","","","","","","","","","",""
"","S2","","html-keyboard-response","98","444479","0.0-1.0-130.0","0","0","37850","","null","","","null","14","","NaN","","","","","","","","","","","","","",""
"","response","","html-keyboard-response","99","444859","0.0-1.0-131.0-0.0","0","0","37850","","378","","","68","14","","","1","14","training","adjacent","FG","6","7","N.jpg","M.jpg","1","1","1","",""
"","feedback","","html-keyboard-response","100","445873","0.0-1.0-132.0-0.0","0","0","37850","","null","","","null","14","","","","","","","","","","","","","","","",""
"","ITI","","html-keyboard-response","101","446879","0.0-1.0-135.0","0","0","37850","","null","","","null","14","","","","","","","","","","","","","","","NaN",""
"","S1","","html-keyboard-response","102","447139","0.0-1.0-137.0","0","0","37850","","null","","","null","15","","","","","","","","","","","","","","","",""
"","ISI","","html-keyboard-response","103","448143","0.0-1.0-138.0","0","0","37850","","null","","","null","15","NaN","","","","","","","","","","","","","","",""
"","S2","","html-keyboard-response","104","448398","0.0-1.0-139.0","0","0","37850","","null","","","null","15","","NaN","","","","","","","","","","","","","",""
"","response","","html-keyboard-response","105","449097","0.0-1.0-140.0-0.0","0","0","37850","","696","","","75","15","","","1","15","training","adjacent","EF","5","6","Q.jpg","N.jpg","0","1","0","",""
"","feedback","","html-keyboard-response","106","450104","0.0-1.0-141.0-0.0","0","0","37850","","null","","","null","15","","","","","","","","","","","","","","","",""
"","time_out","","html-keyboard-response","107","452114","0.0-1.0-143.0-0.0","0","0","37850","","null","","","null","15","","","","","","","","","","","","","","","",""
"","ITI","","html-keyboard-response","108","453118","0.0-1.0-144.0","0","0","37850","","null","","","null","15","","","","","","","","","","","","","","","NaN",""
"","S1","","html-keyboard-response","109","453374","0.0-1.0-146.0","0","0","37850","","null","","","null","16","","","","","","","","","","","","","","","",""
"","ISI","","html-keyboard-response","110","454383","0.0-1.0-147.0","0","0","37850","","null","","","null","16","NaN","","","","","","","","","","","","","","",""
"","S2","","html-keyboard-response","111","454639","0.0-1.0-148.0","0","0","37850","","null","","","null","16","","NaN","","","","","","","","","","","","","",""
"","response","","html-keyboard-response","112","455101","0.0-1.0-149.0-0.0","0","0","37850","","460","","","68","16","","","1","16","training","adjacent","AB","1","2","P.jpg","R.jpg","1","1","1","",""
"","feedback","","html-keyboard-response","113","456114","0.0-1.0-150.0-0.0","0","0","37850","","null","","","null","16","","","","","","","","","","","","","","","",""
"","ITI","","html-keyboard-response","114","457123","0.0-1.0-153.0","0","0","37850","","null","","","null","16","","","","","","","","","","","","","","","NaN",""
"","S1","","html-keyboard-response","115","457385","0.0-1.0-155.0","0","0","37850","","null","","","null","17","","","","","","","","","","","","","","","",""
"","ISI","","html-keyboard-response","116","458394","0.0-1.0-156.0","0","0","37850","","null","","","null","17","NaN","","","","","","","","","","","","","","",""
"","S2","","html-keyboard-response","117","458656","0.0-1.0-157.0","0","0","37850","","null","","","null","17","","NaN","","","","","","","","","","","","","",""
"","response","","html-keyboard-response","118","459230","0.0-1.0-158.0-0.0","0","0","37850","","573","","","68","17","","","1","17","training","adjacent","DE","4","5","O.jpg","Q.jpg","1","1","1","",""
"","feedback","","html-keyboard-response","119","460240","0.0-1.0-159.0-0.0","0","0","37850","","null","","","null","17","","","","","","","","","","","","","","","",""
"","ITI","","html-keyboard-response","120","461251","0.0-1.0-162.0","0","0","37850","","null","","","null","17","","","","","","","","","","","","","","","NaN",""
"","S1","","html-keyboard-response","121","461512","0.0-1.0-164.0","0","0","37850","","null","","","null","18","","","","","","","","","","","","","","","",""
"","ISI","","html-keyboard-response","122","462522","0.0-1.0-165.0","0","0","37850","","null","","","null","18","NaN","","","","","","","","","","","","","","",""
"","S2","","html-keyboard-response","123","462784","0.0-1.0-166.0","0","0","37850","","null","","","null","18","","NaN","","","","","","","","","","","","","",""
"","response","","html-keyboard-response","124","463217","0.0-1.0-167.0-0.0","0","0","37850","","432","","","68","18","","","1","18","training","adjacent","AB","1","2","P.jpg","R.jpg","1","1","1","",""
"","feedback","","html-keyboard-response","125","464223","0.0-1.0-168.0-0.0","0","0","37850","","null","","","null","18","","","","","","","","","","","","","","","",""
"","ITI","","html-keyboard-response","126","465233","0.0-1.0-171.0","0","0","37850","","null","","","null","18","","","","","","","","","","","","","","","NaN",""
"","S1","","html-keyboard-response","127","465488","0.0-1.0-173.0","0","0","37850","","null","","","null","19","","","","","","","","","","","","","","","",""
"","ISI","","html-keyboard-response","128","466499","0.0-1.0-174.0","0","0","37850","","null","","","null","19","NaN","","","","","","","","","","","","","","",""
"","S2","","html-keyboard-response","129","466760","0.0-1.0-175.0","0","0","37850","","null","","","null","19","","NaN","","","","","","","","","","","","","",""
"","response","","html-keyboard-response","130","467633","0.0-1.0-176.0-0.0","0","0","37850","","870","","","75","19","","","1","19","training","adjacent","CB","3","2","L.jpg","R.jpg","0","0","1","",""
"","feedback","","html-keyboard-response","131","468640","0.0-1.0-177.0-0.0","0","0","37850","","null","","","null","19","","","","","","","","","","","","","","","",""
"","ITI","","html-keyboard-response","132","469651","0.0-1.0-180.0","0","0","37850","","null","","","null","19","","","","","","","","","","","","","","","NaN",""
"","S1","","html-keyboard-response","133","469906","0.0-1.0-182.0","0","0","37850","","null","","","null","20","","","","","","","","","","","","","","","",""
"","ISI","","html-keyboard-response","134","470911","0.0-1.0-183.0","0","0","37850","","null","","","null","20","NaN","","","","","","","","","","","","","","",""
"","S2","","html-keyboard-response","135","471166","0.0-1.0-184.0","0","0","37850","","null","","","null","20","","NaN","","","","","","","","","","","","","",""
"","response","","html-keyboard-response","136","471748","0.0-1.0-185.0-0.0","0","0","37850","","579","","","75","20","","","1","20","training","adjacent","ED","5","4","Q.jpg","O.jpg","0","0","1","",""
"","feedback","","html-keyboard-response","137","472762","0.0-1.0-186.0-0.0","0","0","37850","","null","","","null","20","","","","","","","","","","","","","","","",""
"","ITI","","html-keyboard-response","138","473766","0.0-1.0-189.0","0","0","37850","","null","","","null","20","","","","","","","","","","","","","","","NaN",""
"","S1","","html-keyboard-response","139","474023","0.0-1.0-191.0","0","0","37850","","null","","","null","21","","","","","","","","","","","","","","","",""
"","ISI","","html-keyboard-response","140","475031","0.0-1.0-192.0","0","0","37850","","null","","","null","21","NaN","","","","","","","","","","","","","","",""
"","S2","","html-keyboard-response","141","475288","0.0-1.0-193.0","0","0","37850","","null","","","null","21","","NaN","","","","","","","","","","","","","",""
"","response","","html-keyboard-response","142","475662","0.0-1.0-194.0-0.0","0","0","37850","","372","","","75","21","","","1","21","training","adjacent","CB","3","2","L.jpg","R.jpg","0","0","1","",""
"","feedback","","html-keyboard-response","143","476675","0.0-1.0-195.0-0.0","0","0","37850","","null","","","null","21","","","","","","","","","","","","","","","",""
"","ITI","","html-keyboard-response","144","477683","0.0-1.0-198.0","0","0","37850","","null","","","null","21","","","","","","","","","","","","","","","NaN",""
"","S1","","html-keyboard-response","145","477947","0.0-1.0-200.0","0","0","37850","","null","","","null","22","","","","","","","","","","","","","","","",""
"","ISI","","html-keyboard-response","146","478951","0.0-1.0-201.0","0","0","37850","","null","","","null","22","NaN","","","","","","","","","","","","","","",""
"","S2","","html-keyboard-response","147","479211","0.0-1.0-202.0","0","0","37850","","null","","","null","22","","NaN","","","","","","","","","","","","","",""
"","response","","html-keyboard-response","148","479974","0.0-1.0-203.0-0.0","0","0","37850","","760","","","68","22","","","1","22","training","adjacent","FE","6","5","N.jpg","Q.jpg","1","0","0","",""
"","feedback","","html-keyboard-response","149","480982","0.0-1.0-204.0-0.0","0","0","37850","","null","","","null","22","","","","","","","","","","","","","","","",""
"","time_out","","html-keyboard-response","150","482991","0.0-1.0-206.0-0.0","0","0","37850","","null","","","null","22","","","","","","","","","","","","","","","",""
"","ITI","","html-keyboard-response","151","484000","0.0-1.0-207.0","0","0","37850","","null","","","null","22","","","","","","","","","","","","","","","NaN",""
"","S1","","html-keyboard-response","152","484256","0.0-1.0-209.0","0","0","37850","","null","","","null","23","","","","","","","","","","","","","","","",""
"","ISI","","html-keyboard-response","153","485267","0.0-1.0-210.0","0","0","37850","","null","","","null","23","NaN","","","","","","","","","","","","","","",""
"","S2","","html-keyboard-response","154","485528","0.0-1.0-211.0","0","0","37850","","null","","","null","23","","NaN","","","","","","","","","","","","","",""
"","response","","html-keyboard-response","155","486505","0.0-1.0-212.0-0.0","0","0","37850","","975","","","68","23","","","1","23","training","adjacent","GF","7","6","M.jpg","N.jpg","1","0","0","",""
"","feedback","","html-keyboard-response","156","487507","0.0-1.0-213.0-0.0","0","0","37850","","null","","","null","23","","","","","","","","","","","","","","","",""
"","time_out","","html-keyboard-response","157","489516","0.0-1.0-215.0-0.0","0","0","37850","","null","","","null","23","","","","","","","","","","","","","","","",""
"","ITI","","html-keyboard-response","158","490531","0.0-1.0-216.0","0","0","37850","","null","","","null","23","","","","","","","","","","","","","","","NaN",""
"","S1","","html-keyboard-response","159","490793","0.0-1.0-218.0","0","0","37850","","null","","","null","24","","","","","","","","","","","","","","","",""
"","ISI","","html-keyboard-response","160","491802","0.0-1.0-219.0","0","0","37850","","null","","","null","24","NaN","","","","","","","","","","","","","","",""
"","S2","","html-keyboard-response","161","492059","0.0-1.0-220.0","0","0","37850","","null","","","null","24","","NaN","","","","","","","","","","","","","",""
"","response","","html-keyboard-response","162","492629","0.0-1.0-221.0-0.0","0","0","37850","","568","","","68","24","","","1","24","training","adjacent","GF","7","6","M.jpg","N.jpg","1","0","0","",""
"","feedback","","html-keyboard-response","163","493643","0.0-1.0-222.0-0.0","0","0","37850","","null","","","null","24","","","","","","","","","","","","","","","",""
"","time_out","","html-keyboard-response","164","495652","0.0-1.0-224.0-0.0","0","0","37850","","null","","","null","24","","","","","","","","","","","","","","","",""
"","ITI","","html-keyboard-response","165","496656","0.0-1.0-225.0","0","0","37850","","null","","","null","24","","","","","","","","","","","","","","","NaN",""
"","S1","","html-keyboard-response","166","496912","0.0-1.0-227.0","0","0","37850","","null","","","null","25","","","","","","","","","","","","","","","",""
"","ISI","","html-keyboard-response","167","497922","0.0-1.0-228.0","0","0","37850","","null","","","null","25","NaN","","","","","","","","","","","","","","",""
"","S2","","html-keyboard-response","168","498178","0.0-1.0-229.0","0","0","37850","","null","","","null","25","","NaN","","","","","","","","","","","","","",""
"","response","","html-keyboard-response","169","498713","0.0-1.0-230.0-0.0","0","0","37850","","533","","","75","25","","","1","25","training","adjacent","BA","2","1","R.jpg","P.jpg","0","0","1","",""
"","feedback","","html-keyboard-response","170","499722","0.0-1.0-231.0-0.0","0","0","37850","","null","","","null","25","","","","","","","","","","","","","","","",""
"","ITI","","html-keyboard-response","171","500731","0.0-1.0-234.0","0","0","37850","","null","","","null","25","","","","","","","","","","","","","","","NaN",""
"","S1","","html-keyboard-response","172","500992","0.0-1.0-236.0","0","0","37850","","null","","","null","26","","","","","","","","","","","","","","","",""
"","ISI","","html-keyboard-response","173","502003","0.0-1.0-237.0","0","0","37850","","null","","","null","26","NaN","","","","","","","","","","","","","","",""
"","S2","","html-keyboard-response","174","502264","0.0-1.0-238.0","0","0","37850","","null","","","null","26","","NaN","","","","","","","","","","","","","",""
"","response","","html-keyboard-response","175","503197","0.0-1.0-239.0-0.0","0","0","37850","","930","","","68","26","","","1","26","training","adjacent","FE","6","5","N.jpg","Q.jpg","1","0","0","",""
"","feedback","","html-keyboard-response","176","504209","0.0-1.0-240.0-0.0","0","0","37850","","null","","","null","26","","","","","","","","","","","","","","","",""
"","time_out","","html-keyboard-response","177","506217","0.0-1.0-242.0-0.0","0","0","37850","","null","","","null","26","","","","","","","","","","","","","","","",""
"","ITI","","html-keyboard-response","178","507226","0.0-1.0-243.0","0","0","37850","","null","","","null","26","","","","","","","","","","","","","","","NaN",""
"","S1","","html-keyboard-response","179","507483","0.0-1.0-245.0","0","0","37850","","null","","","null","27","","","","","","","","","","","","","","","",""
"","ISI","","html-keyboard-response","180","508487","0.0-1.0-246.0","0","0","37850","","null","","","null","27","NaN","","","","","","","","","","","","","","",""
"","S2","","html-keyboard-response","181","508748","0.0-1.0-247.0","0","0","37850","","null","","","null","27","","NaN","","","","","","","","","","","","","",""
"","response","","html-keyboard-response","182","509470","0.0-1.0-248.0-0.0","0","0","37850","","719","","","68","27","","","1","27","training","adjacent","AB","1","2","P.jpg","R.jpg","1","1","1","",""
"","feedback","","html-keyboard-response","183","510484","0.0-1.0-249.0-0.0","0","0","37850","","null","","","null","27","","","","","","","","","","","","","","","",""
"","ITI","","html-keyboard-response","184","511488","0.0-1.0-252.0","0","0","37850","","null","","","null","27","","","","","","","","","","","","","","","NaN",""
"","S1","","html-keyboard-response","185","511746","0.0-1.0-254.0","0","0","37850","","null","","","null","28","","","","","","","","","","","","","","","",""
"","ISI","","html-keyboard-response","186","512754","0.0-1.0-255.0","0","0","37850","","null","","","null","28","NaN","","","","","","","","","","","","","","",""
"","S2","","html-keyboard-response","187","513009","0.0-1.0-256.0","0","0","37850","","null","","","null","28","","NaN","","","","","","","","","","","","","",""
"","response","","html-keyboard-response","188","513480","0.0-1.0-257.0-0.0","0","0","37850","","468","","","75","28","","","1","28","training","adjacent","BA","2","1","R.jpg","P.jpg","0","0","1","",""
"","feedback","","html-keyboard-response","189","514490","0.0-1.0-258.0-0.0","0","0","37850","","null","","","null","28","","","","","","","","","","","","","","","",""
"","ITI","","html-keyboard-response","190","515499","0.0-1.0-261.0","0","0","37850","","null","","","null","28","","","","","","","","","","","","","","","NaN",""
"","S1","","html-keyboard-response","191","515759","0.0-1.0-263.0","0","0","37850","","null","","","null","29","","","","","","","","","","","","","","","",""
"","ISI","","html-keyboard-response","192","516771","0.0-1.0-264.0","0","0","37850","","null","","","null","29","NaN","","","","","","","","","","","","","","",""
"","S2","","html-keyboard-response","193","517032","0.0-1.0-265.0","0","0","37850","","null","","","null","29","","NaN","","","","","","","","","","","","","",""
"","response","","html-keyboard-response","194","517348","0.0-1.0-266.0-0.0","0","0","37850","","313","","","68","29","","","1","29","training","adjacent","DE","4","5","O.jpg","Q.jpg","1","1","1","",""
"","feedback","","html-keyboard-response","195","518356","0.0-1.0-267.0-0.0","0","0","37850","","null","","","null","29","","","","","","","","","","","","","","","",""
"","ITI","","html-keyboard-response","196","519360","0.0-1.0-270.0","0","0","37850","","null","","","null","29","","","","","","","","","","","","","","","NaN",""
"","S1","","html-keyboard-response","197","519615","0.0-1.0-272.0","0","0","37850","","null","","","null","30","","","","","","","","","","","","","","","",""
"","ISI","","html-keyboard-response","198","520625","0.0-1.0-273.0","0","0","37850","","null","","","null","30","NaN","","","","","","","","","","","","","","",""
"","S2","","html-keyboard-response","199","520880","0.0-1.0-274.0","0","0","37850","","null","","","null","30","","NaN","","","","","","","","","","","","","",""
"","response","","html-keyboard-response","200","522064","0.0-1.0-275.0-0.0","0","0","37850","","1181","","","75","30","","","1","30","training","adjacent","CD","3","4","L.jpg","O.jpg","0","1","0","",""
"","feedback","","html-keyboard-response","201","523075","0.0-1.0-276.0-0.0","0","0","37850","","null","","","null","30","","","","","","","","","","","","","","","",""
"","time_out","","html-keyboard-response","202","525084","0.0-1.0-278.0-0.0","0","0","37850","","null","","","null","30","","","","","","","","","","","","","","","",""
"","ITI","","html-keyboard-response","203","526088","0.0-1.0-279.0","0","0","37850","","null","","","null","30","","","","","","","","","","","","","","","NaN",""
"","S1","","html-keyboard-response","204","526343","0.0-1.0-281.0","0","0","37850","","null","","","null","31","","","","","","","","","","","","","","","",""
"","ISI","","html-keyboard-response","205","527352","0.0-1.0-282.0","0","0","37850","","null","","","null","31","NaN","","","","","","","","","","","","","","",""
"","S2","","html-keyboard-response","206","527609","0.0-1.0-283.0","0","0","37850","","null","","","null","31","","NaN","","","","","","","","","","","","","",""
"","response","","html-keyboard-response","207","528679","0.0-1.0-284.0-0.0","0","0","37850","","1067","","","68","31","","","1","31","training","adjacent","DC","4","3","O.jpg","L.jpg","1","0","0","",""
"","feedback","","html-keyboard-response","208","529689","0.0-1.0-285.0-0.0","0","0","37850","","null","","","null","31","","","","","","","","","","","","","","","",""
"","time_out","","html-keyboard-response","209","531696","0.0-1.0-287.0-0.0","0","0","37850","","null","","","null","31","","","","","","","","","","","","","","","",""
"","ITI","","html-keyboard-response","210","532706","0.0-1.0-288.0","0","0","37850","","null","","","null","31","","","","","","","","","","","","","","","NaN",""
"","S1","","html-keyboard-response","211","532962","0.0-1.0-290.0","0","0","37850","","null","","","null","32","","","","","","","","","","","","","","","",""
"","ISI","","html-keyboard-response","212","533971","0.0-1.0-291.0","0","0","37850","","null","","","null","32","NaN","","","","","","","","","","","","","","",""
"","S2","","html-keyboard-response","213","534233","0.0-1.0-292.0","0","0","37850","","null","","","null","32","","NaN","","","","","","","","","","","","","",""
"","response","","html-keyboard-response","214","535323","0.0-1.0-293.0-0.0","0","0","37850","","1088","","","75","32","","","1","32","training","adjacent","ED","5","4","Q.jpg","O.jpg","0","0","1","",""
"","feedback","","html-keyboard-response","215","536328","0.0-1.0-294.0-0.0","0","0","37850","","null","","","null","32","","","","","","","","","","","","","","","",""
"","ITI","","html-keyboard-response","216","537338","0.0-1.0-297.0","0","0","37850","","null","","","null","32","","","","","","","","","","","","","","","NaN",""
"","S1","","html-keyboard-response","217","537594","0.0-1.0-299.0","0","0","37850","","null","","","null","33","","","","","","","","","","","","","","","",""
"","ISI","","html-keyboard-response","218","538604","0.0-1.0-300.0","0","0","37850","","null","","","null","33","NaN","","","","","","","","","","","","","","",""
"","S2","","html-keyboard-response","219","538865","0.0-1.0-301.0","0","0","37850","","null","","","null","33","","NaN","","","","","","","","","","","","","",""
"","response","","html-keyboard-response","220","539427","0.0-1.0-302.0-0.0","0","0","37850","","560","","","75","33","","","1","33","training","adjacent","BA","2","1","R.jpg","P.jpg","0","0","1","",""
"","feedback","","html-keyboard-response","221","540432","0.0-1.0-303.0-0.0","0","0","37850","","null","","","null","33","","","","","","","","","","","","","","","",""
"","ITI","","html-keyboard-response","222","541441","0.0-1.0-306.0","0","0","37850","","null","","","null","33","","","","","","","","","","","","","","","NaN",""
"","S1","","html-keyboard-response","223","541698","0.0-1.0-308.0","0","0","37850","","null","","","null","34","","","","","","","","","","","","","","","",""
"","ISI","","html-keyboard-response","224","542708","0.0-1.0-309.0","0","0","37850","","null","","","null","34","NaN","","","","","","","","","","","","","","",""
"","S2","","html-keyboard-response","225","542969","0.0-1.0-310.0","0","0","37850","","null","","","null","34","","NaN","","","","","","","","","","","","","",""
"","response","","html-keyboard-response","226","543631","0.0-1.0-311.0-0.0","0","0","37850","","659","","","68","34","","","1","34","training","adjacent","BC","2","3","R.jpg","L.jpg","1","1","1","",""
"","feedback","","html-keyboard-response","227","544640","0.0-1.0-312.0-0.0","0","0","37850","","null","","","null","34","","","","","","","","","","","","","","","",""
"","ITI","","html-keyboard-response","228","545651","0.0-1.0-315.0","0","0","37850","","null","","","null","34","","","","","","","","","","","","","","","NaN",""
"","S1","","html-keyboard-response","229","545912","0.0-1.0-317.0","0","0","37850","","null","","","null","35","","","","","","","","","","","","","","","",""
"","ISI","","html-keyboard-response","230","546922","0.0-1.0-318.0","0","0","37850","","null","","","null","35","NaN","","","","","","","","","","","","","","",""
"","S2","","html-keyboard-response","231","547178","0.0-1.0-319.0","0","0","37850","","null","","","null","35","","NaN","","","","","","","","","","","","","",""
"","response","","html-keyboard-response","232","547671","0.0-1.0-320.0-0.0","0","0","37850","","491","","","68","35","","","1","35","training","adjacent","FE","6","5","N.jpg","Q.jpg","1","0","0","",""
"","feedback","","html-keyboard-response","233","548682","0.0-1.0-321.0-0.0","0","0","37850","","null","","","null","35","","","","","","","","","","","","","","","",""
"","time_out","","html-keyboard-response","234","550690","0.0-1.0-323.0-0.0","0","0","37850","","null","","","null","35","","","","","","","","","","","","","","","",""
"","ITI","","html-keyboard-response","235","551700","0.0-1.0-324.0","0","0","37850","","null","","","null","35","","","","","","","","","","","","","","","NaN",""
"","S1","","html-keyboard-response","236","551962","0.0-1.0-326.0","0","0","37850","","null","","","null","36","","","","","","","","","","","","","","","",""
"","ISI","","html-keyboard-response","237","552971","0.0-1.0-327.0","0","0","37850","","null","","","null","36","NaN","","","","","","","","","","","","","","",""
"","S2","","html-keyboard-response","238","553233","0.0-1.0-328.0","0","0","37850","","null","","","null","36","","NaN","","","","","","","","","","","","","",""
"","response","","html-keyboard-response","239","553850","0.0-1.0-329.0-0.0","0","0","37850","","616","","","68","36","","","1","36","training","adjacent","DC","4","3","O.jpg","L.jpg","1","0","0","",""
"","feedback","","html-keyboard-response","240","554858","0.0-1.0-330.0-0.0","0","0","37850","","null","","","null","36","","","","","","","","","","","","","","","",""
"","time_out","","html-keyboard-response","241","556867","0.0-1.0-332.0-0.0","0","0","37850","","null","","","null","36","","","","","","","","","","","","","","","",""
"","ITI","","html-keyboard-response","242","557877","0.0-1.0-333.0","0","0","37850","","null","","","null","36","","","","","","","","","","","","","","","NaN",""
"","S1","","html-keyboard-response","243","558137","0.0-1.0-335.0","0","0","37850","","null","","","null","37","","","","","","","","","","","","","","","",""
"","ISI","","html-keyboard-response","244","559148","0.0-1.0-336.0","0","0","37850","","null","","","null","37","NaN","","","","","","","","","","","","","","",""
"","S2","","html-keyboard-response","245","559410","0.0-1.0-337.0","0","0","37850","","null","","","null","37","","NaN","","","","","","","","","","","","","",""
"","response","","html-keyboard-response","246","560342","0.0-1.0-338.0-0.0","0","0","37850","","930","","","75","37","","","1","37","training","adjacent","FE","6","5","N.jpg","Q.jpg","0","0","1","",""
"","feedback","","html-keyboard-response","247","561354","0.0-1.0-339.0-0.0","0","0","37850","","null","","","null","37","","","","","","","","","","","","","","","",""
"","ITI","","html-keyboard-response","248","562363","0.0-1.0-342.0","0","0","37850","","null","","","null","37","","","","","","","","","","","","","","","NaN",""
"","S1","","html-keyboard-response","249","562617","0.0-1.0-344.0","0","0","37850","","null","","","null","38","","","","","","","","","","","","","","","",""
"","ISI","","html-keyboard-response","250","563626","0.0-1.0-345.0","0","0","37850","","null","","","null","38","NaN","","","","","","","","","","","","","","",""
"","S2","","html-keyboard-response","251","563885","0.0-1.0-346.0","0","0","37850","","null","","","null","38","","NaN","","","","","","","","","","","","","",""
"","response","","html-keyboard-response","252","565359","0.0-1.0-347.0-0.0","0","0","37850","","1471","","","75","38","","","1","38","training","adjacent","FG","6","7","N.jpg","M.jpg","0","1","0","",""
"","feedback","","html-keyboard-response","253","566370","0.0-1.0-348.0-0.0","0","0","37850","","null","","","null","38","","","","","","","","","","","","","","","",""
"","time_out","","html-keyboard-response","254","568378","0.0-1.0-350.0-0.0","0","0","37850","","null","","","null","38","","","","","","","","","","","","","","","",""
"","ITI","","html-keyboard-response","255","569388","0.0-1.0-351.0","0","0","37850","","null","","","null","38","","","","","","","","","","","","","","","NaN",""
"","S1","","html-keyboard-response","256","569649","0.0-1.0-353.0","0","0","37850","","null","","","null","39","","","","","","","","","","","","","","","",""
"","ISI","","html-keyboard-response","257","570660","0.0-1.0-354.0","0","0","37850","","null","","","null","39","NaN","","","","","","","","","","","","","","",""
"","S2","","html-keyboard-response","258","570921","0.0-1.0-355.0","0","0","37850","","null","","","null","39","","NaN","","","","","","","","","","","","","",""
"","response","","html-keyboard-response","259","571902","0.0-1.0-356.0-0.0","0","0","37850","","979","","","75","39","","","1","39","training","adjacent","CB","3","2","L.jpg","R.jpg","0","0","1","",""
"","feedback","","html-keyboard-response","260","572917","0.0-1.0-357.0-0.0","0","0","37850","","null","","","null","39","","","","","","","","","","","","","","","",""
"","ITI","","html-keyboard-response","261","573922","0.0-1.0-360.0","0","0","37850","","null","","","null","39","","","","","","","","","","","","","","","NaN",""
"","S1","","html-keyboard-response","262","574177","0.0-1.0-362.0","0","0","37850","","null","","","null","40","","","","","","","","","","","","","","","",""
"","ISI","","html-keyboard-response","263","575187","0.0-1.0-363.0","0","0","37850","","null","","","null","40","NaN","","","","","","","","","","","","","","",""
"","S2","","html-keyboard-response","264","575442","0.0-1.0-364.0","0","0","37850","","null","","","null","40","","NaN","","","","","","","","","","","","","",""
"","response","","html-keyboard-response","265","575785","0.0-1.0-365.0-0.0","0","0","37850","","342","","","68","40","","","1","40","training","adjacent","BC","2","3","R.jpg","L.jpg","1","1","1","",""
"","feedback","","html-keyboard-response","266","576795","0.0-1.0-366.0-0.0","0","0","37850","","null","","","null","40","","","","","","","","","","","","","","","",""
"","ITI","","html-keyboard-response","267","577806","0.0-1.0-369.0","0","0","37850","","null","","","null","40","","","","","","","","","","","","","","","NaN",""
"","S1","","html-keyboard-response","268","578067","0.0-1.0-371.0","0","0","37850","","null","","","null","41","","","","","","","","","","","","","","","",""
"","ISI","","html-keyboard-response","269","579077","0.0-1.0-372.0","0","0","37850","","null","","","null","41","NaN","","","","","","","","","","","","","","",""
"","S2","","html-keyboard-response","270","579339","0.0-1.0-373.0","0","0","37850","","null","","","null","41","","NaN","","","","","","","","","","","","","",""
"","response","","html-keyboard-response","271","579667","0.0-1.0-374.0-0.0","0","0","37850","","326","","","68","41","","","1","41","training","adjacent","AB","1","2","P.jpg","R.jpg","1","1","1","",""
"","feedback","","html-keyboard-response","272","580674","0.0-1.0-375.0-0.0","0","0","37850","","null","","","null","41","","","","","","","","","","","","","","","",""
"","ITI","","html-keyboard-response","273","581683","0.0-1.0-378.0","0","0","37850","","null","","","null","41","","","","","","","","","","","","","","","NaN",""
"","S1","","html-keyboard-response","274","581939","0.0-1.0-380.0","0","0","37850","","null","","","null","42","","","","","","","","","","","","","","","",""
"","ISI","","html-keyboard-response","275","582949","0.0-1.0-381.0","0","0","37850","","null","","","null","42","NaN","","","","","","","","","","","","","","",""
"","S2","","html-keyboard-response","276","583210","0.0-1.0-382.0","0","0","37850","","null","","","null","42","","NaN","","","","","","","","","","","","","",""
"","response","","html-keyboard-response","277","584775","0.0-1.0-383.0-0.0","0","0","37850","","1563","","","75","42","","","1","42","training","adjacent","GF","7","6","M.jpg","N.jpg","0","0","1","",""
"","feedback","","html-keyboard-response","278","585788","0.0-1.0-384.0-0.0","0","0","37850","","null","","","null","42","","","","","","","","","","","","","","","",""
"","ITI","","html-keyboard-response","279","586793","0.0-1.0-387.0","0","0","37850","","null","","","null","42","","","","","","","","","","","","","","","NaN",""
"","S1","","html-keyboard-response","280","587053","0.0-1.0-389.0","0","0","37850","","null","","","null","43","","","","","","","","","","","","","","","",""
"","ISI","","html-keyboard-response","281","588056","0.0-1.0-390.0","0","0","37850","","null","","","null","43","NaN","","","","","","","","","","","","","","",""
"","S2","","html-keyboard-response","282","588314","0.0-1.0-391.0","0","0","37850","","null","","","null","43","","NaN","","","","","","","","","","","","","",""
"","response","","html-keyboard-response","283","588893","0.0-1.0-392.0-0.0","0","0","37850","","577","","","68","43","","","1","43","training","adjacent","DC","4","3","O.jpg","L.jpg","1","0","0","",""
"","feedback","","html-keyboard-response","284","589898","0.0-1.0-393.0-0.0","0","0","37850","","null","","","null","43","","","","","","","","","","","","","","","",""
"","time_out","","html-keyboard-response","285","591906","0.0-1.0-395.0-0.0","0","0","37850","","null","","","null","43","","","","","","","","","","","","","","","",""
"","ITI","","html-keyboard-response","286","592916","0.0-1.0-396.0","0","0","37850","","null","","","null","43","","","","","","","","","","","","","","","NaN",""
"","S1","","html-keyboard-response","287","593177","0.0-1.0-398.0","0","0","37850","","null","","","null","44","","","","","","","","","","","","","","","",""
"","ISI","","html-keyboard-response","288","594188","0.0-1.0-399.0","0","0","37850","","null","","","null","44","NaN","","","","","","","","","","","","","","",""
"","S2","","html-keyboard-response","289","594449","0.0-1.0-400.0","0","0","37850","","null","","","null","44","","NaN","","","","","","","","","","","","","",""
"","response","","html-keyboard-response","290","595316","0.0-1.0-401.0-0.0","0","0","37850","","865","","","75","44","","","1","44","training","adjacent","FG","6","7","N.jpg","M.jpg","0","1","0","",""
"","feedback","","html-keyboard-response","291","596324","0.0-1.0-402.0-0.0","0","0","37850","","null","","","null","44","","","","","","","","","","","","","","","",""
"","time_out","","html-keyboard-response","292","598333","0.0-1.0-404.0-0.0","0","0","37850","","null","","","null","44","","","","","","","","","","","","","","","",""
"","ITI","","html-keyboard-response","293","599337","0.0-1.0-405.0","0","0","37850","","null","","","null","44","","","","","","","","","","","","","","","NaN",""
"","S1","","html-keyboard-response","294","599592","0.0-1.0-407.0","0","0","37850","","null","","","null","45","","","","","","","","","","","","","","","",""
"","ISI","","html-keyboard-response","295","600602","0.0-1.0-408.0","0","0","37850","","null","","","null","45","NaN","","","","","","","","","","","","","","",""
"","S2","","html-keyboard-response","296","600858","0.0-1.0-409.0","0","0","37850","","null","","","null","45","","NaN","","","","","","","","","","","","","",""
"","response","","html-keyboard-response","297","601294","0.0-1.0-410.0-0.0","0","0","37850","","433","","","75","45","","","1","45","training","adjacent","CD","3","4","L.jpg","O.jpg","0","1","0","",""
"","feedback","","html-keyboard-response","298","602297","0.0-1.0-411.0-0.0","0","0","37850","","null","","","null","45","","","","","","","","","","","","","","","",""
"","time_out","","html-keyboard-response","299","604306","0.0-1.0-413.0-0.0","0","0","37850","","null","","","null","45","","","","","","","","","","","","","","","",""
"","ITI","","html-keyboard-response","300","605316","0.0-1.0-414.0","0","0","37850","","null","","","null","45","","","","","","","","","","","","","","","NaN",""
"","S1","","html-keyboard-response","301","605577","0.0-1.0-416.0","0","0","37850","","null","","","null","46","","","","","","","","","","","","","","","",""
"","ISI","","html-keyboard-response","302","606588","0.0-1.0-417.0","0","0","37850","","null","","","null","46","NaN","","","","","","","","","","","","","","",""
"","S2","","html-keyboard-response","303","606843","0.0-1.0-418.0","0","0","37850","","null","","","null","46","","NaN","","","","","","","","","","","","","",""
"","response","","html-keyboard-response","304","608112","0.0-1.0-419.0-0.0","0","0","37850","","1267","","","68","46","","","1","46","training","adjacent","FG","6","7","N.jpg","M.jpg","1","1","1","",""
"","feedback","","html-keyboard-response","305","609124","0.0-1.0-420.0-0.0","0","0","37850","","null","","","null","46","","","","","","","","","","","","","","","",""
"","ITI","","html-keyboard-response","306","610133","0.0-1.0-423.0","0","0","37850","","null","","","null","46","","","","","","","","","","","","","","","NaN",""
"","S1","","html-keyboard-response","307","610396","0.0-1.0-425.0","0","0","37850","","null","","","null","47","","","","","","","","","","","","","","","",""
"","ISI","","html-keyboard-response","308","611406","0.0-1.0-426.0","0","0","37850","","null","","","null","47","NaN","","","","","","","","","","","","","","",""
"","S2","","html-keyboard-response","309","611667","0.0-1.0-427.0","0","0","37850","","null","","","null","47","","NaN","","","","","","","","","","","","","",""
"","response","","html-keyboard-response","310","612236","0.0-1.0-428.0-0.0","0","0","37850","","568","","","75","47","","","1","47","training","adjacent","CD","3","4","L.jpg","O.jpg","0","1","0","",""
"","feedback","","html-keyboard-response","311","613245","0.0-1.0-429.0-0.0","0","0","37850","","null","","","null","47","","","","","","","","","","","","","","","",""
"","time_out","","html-keyboard-response","312","615254","0.0-1.0-431.0-0.0","0","0","37850","","null","","","null","47","","","","","","","","","","","","","","","",""
"","ITI","","html-keyboard-response","313","616259","0.0-1.0-432.0","0","0","37850","","null","","","null","47","","","","","","","","","","","","","","","NaN",""
"","block_over","","html-keyboard-response","314","720946","0.0-1.0-433.0-0.0","0","0","37850","","104684","","","32","47","","","","","","","","","","","","","","","",""
"","S1","","html-keyboard-response","315","721208","0.0-1.0-434.0","0","0","37850","","null","","","null","48","","","","","","","","","","","","","","","",""
"","ISI","","html-keyboard-response","316","722214","0.0-1.0-435.0","0","0","37850","","null","","","null","48","NaN","","","","","","","","","","","","","","",""
"","S2","","html-keyboard-response","317","722469","0.0-1.0-436.0","0","0","37850","","null","","","null","48","","NaN","","","","","","","","","","","","","",""
"","response","","html-keyboard-response","318","723268","0.0-1.0-437.0-0.0","0","0","37850","","797","","","68","48","","","2","48","training","adjacent","EF","5","6","Q.jpg","N.jpg","1","1","1","",""
"","feedback","","html-keyboard-response","319","724280","0.0-1.0-438.0-0.0","0","0","37850","","null","","","null","48","","","","","","","","","","","","","","","",""
"","ITI","","html-keyboard-response","320","725284","0.0-1.0-441.0","0","0","37850","","null","","","null","48","","","","","","","","","","","","","","","NaN",""
"","S1","","html-keyboard-response","321","725540","0.0-1.0-443.0","0","0","37850","","null","","","null","49","","","","","","","","","","","","","","","",""
"","ISI","","html-keyboard-response","322","726550","0.0-1.0-444.0","0","0","37850","","null","","","null","49","NaN","","","","","","","","","","","","","","",""
"","S2","","html-keyboard-response","323","726804","0.0-1.0-445.0","0","0","37850","","null","","","null","49","","NaN","","","","","","","","","","","","","",""
"","response","","html-keyboard-response","324","727391","0.0-1.0-446.0-0.0","0","0","37850","","584","","","68","49","","","2","49","training","adjacent","DE","4","5","O.jpg","Q.jpg","1","1","1","",""
"","feedback","","html-keyboard-response","325","728396","0.0-1.0-447.0-0.0","0","0","37850","","null","","","null","49","","","","","","","","","","","","","","","",""
"","ITI","","html-keyboard-response","326","729406","0.0-1.0-450.0","0","0","37850","","null","","","null","49","","","","","","","","","","","","","","","NaN",""
"","S1","","html-keyboard-response","327","729662","0.0-1.0-452.0","0","0","37850","","null","","","null","50","","","","","","","","","","","","","","","",""
"","ISI","","html-keyboard-response","328","730672","0.0-1.0-453.0","0","0","37850","","null","","","null","50","NaN","","","","","","","","","","","","","","",""
"","S2","","html-keyboard-response","329","730933","0.0-1.0-454.0","0","0","37850","","null","","","null","50","","NaN","","","","","","","","","","","","","",""
"","response","","html-keyboard-response","330","731299","0.0-1.0-455.0-0.0","0","0","37850","","364","","","68","50","","","2","50","training","adjacent","AB","1","2","P.jpg","R.jpg","1","1","1","",""
"","feedback","","html-keyboard-response","331","732308","0.0-1.0-456.0-0.0","0","0","37850","","null","","","null","50","","","","","","","","","","","","","","","",""
"","ITI","","html-keyboard-response","332","733319","0.0-1.0-459.0","0","0","37850","","null","","","null","50","","","","","","","","","","","","","","","NaN",""
"","S1","","html-keyboard-response","333","733574","0.0-1.0-461.0","0","0","37850","","null","","","null","51","","","","","","","","","","","","","","","",""
"","ISI","","html-keyboard-response","334","734584","0.0-1.0-462.0","0","0","37850","","null","","","null","51","NaN","","","","","","","","","","","","","","",""
"","S2","","html-keyboard-response","335","734846","0.0-1.0-463.0","0","0","37850","","null","","","null","51","","NaN","","","","","","","","","","","","","",""
"","response","","html-keyboard-response","336","735449","0.0-1.0-464.0-0.0","0","0","37850","","601","","","68","51","","","2","51","training","adjacent","DC","4","3","O.jpg","L.jpg","1","0","0","",""
"","feedback","","html-keyboard-response","337","736459","0.0-1.0-465.0-0.0","0","0","37850","","null","","","null","51","","","","","","","","","","","","","","","",""
"","time_out","","html-keyboard-response","338","738468","0.0-1.0-467.0-0.0","0","0","37850","","null","","","null","51","","","","","","","","","","","","","","","",""
"","ITI","","html-keyboard-response","339","739478","0.0-1.0-468.0","0","0","37850","","null","","","null","51","","","","","","","","","","","","","","","NaN",""
"","S1","","html-keyboard-response","340","739734","0.0-1.0-470.0","0","0","37850","","null","","","null","52","","","","","","","","","","","","","","","",""
"","ISI","","html-keyboard-response","341","740743","0.0-1.0-471.0","0","0","37850","","null","","","null","52","NaN","","","","","","","","","","","","","","",""
"","S2","","html-keyboard-response","342","741004","0.0-1.0-472.0","0","0","37850","","null","","","null","52","","NaN","","","","","","","","","","","","","",""
"","response","","html-keyboard-response","343","742162","0.0-1.0-473.0-0.0","0","0","37850","","1155","","","75","52","","","2","52","training","adjacent","BC","2","3","R.jpg","L.jpg","0","1","0","",""
"","feedback","","html-keyboard-response","344","743175","0.0-1.0-474.0-0.0","0","0","37850","","null","","","null","52","","","","","","","","","","","","","","","",""
"","time_out","","html-keyboard-response","345","745184","0.0-1.0-476.0-0.0","0","0","37850","","null","","","null","52","","","","","","","","","","","","","","","",""
"","ITI","","html-keyboard-response","346","746189","0.0-1.0-477.0","0","0","37850","","null","","","null","52","","","","","","","","","","","","","","","NaN",""
"","S1","","html-keyboard-response","347","746444","0.0-1.0-479.0","0","0","37850","","null","","","null","53","","","","","","","","","","","","","","","",""
"","ISI","","html-keyboard-response","348","747454","0.0-1.0-480.0","0","0","37850","","null","","","null","53","NaN","","","","","","","","","","","","","","",""
"","S2","","html-keyboard-response","349","747709","0.0-1.0-481.0","0","0","37850","","null","","","null","53","","NaN","","","","","","","","","","","","","",""
"","response","","html-keyboard-response","350","748207","0.0-1.0-482.0-0.0","0","0","37850","","497","","","68","53","","","2","53","training","adjacent","DC","4","3","O.jpg","L.jpg","1","0","0","",""
"","feedback","","html-keyboard-response","351","749213","0.0-1.0-483.0-0.0","0","0","37850","","null","","","null","53","","","","","","","","","","","","","","","",""
"","time_out","","html-keyboard-response","352","751221","0.0-1.0-485.0-0.0","0","0","37850","","null","","","null","53","","","","","","","","","","","","","","","",""
"","ITI","","html-keyboard-response","353","752231","0.0-1.0-486.0","0","0","37850","","null","","","null","53","","","","","","","","","","","","","","","NaN",""
"","S1","","html-keyboard-response","354","752493","0.0-1.0-488.0","0","0","37850","","null","","","null","54","","","","","","","","","","","","","","","",""
"","ISI","","html-keyboard-response","355","753503","0.0-1.0-489.0","0","0","37850","","null","","","null","54","NaN","","","","","","","","","","","","","","",""
"","S2","","html-keyboard-response","356","753764","0.0-1.0-490.0","0","0","37850","","null","","","null","54","","NaN","","","","","","","","","","","","","",""
"","response","","html-keyboard-response","357","754255","0.0-1.0-491.0-0.0","0","0","37850","","488","","","68","54","","","2","54","training","adjacent","FG","6","7","N.jpg","M.jpg","1","1","1","",""
"","feedback","","html-keyboard-response","358","755262","0.0-1.0-492.0-0.0","0","0","37850","","null","","","null","54","","","","","","","","","","","","","","","",""
"","ITI","","html-keyboard-response","359","756272","0.0-1.0-495.0","0","0","37850","","null","","","null","54","","","","","","","","","","","","","","","NaN",""
"","S1","","html-keyboard-response","360","756533","0.0-1.0-497.0","0","0","37850","","null","","","null","55","","","","","","","","","","","","","","","",""
"","ISI","","html-keyboard-response","361","757545","0.0-1.0-498.0","0","0","37850","","null","","","null","55","NaN","","","","","","","","","","","","","","",""
"","S2","","html-keyboard-response","362","757805","0.0-1.0-499.0","0","0","37850","","null","","","null","55","","NaN","","","","","","","","","","","","","",""
"","response","","html-keyboard-response","363","758268","0.0-1.0-500.0-0.0","0","0","37850","","460","","","75","55","","","2","55","training","adjacent","FE","6","5","N.jpg","Q.jpg","0","0","1","",""
"","feedback","","html-keyboard-response","364","759278","0.0-1.0-501.0-0.0","0","0","37850","","null","","","null","55","","","","","","","","","","","","","","","",""
"","ITI","","html-keyboard-response","365","760289","0.0-1.0-504.0","0","0","37850","","null","","","null","55","","","","","","","","","","","","","","","NaN",""
"","S1","","html-keyboard-response","366","760550","0.0-1.0-506.0","0","0","37850","","null","","","null","56","","","","","","","","","","","","","","","",""
"","ISI","","html-keyboard-response","367","761561","0.0-1.0-507.0","0","0","37850","","null","","","null","56","NaN","","","","","","","","","","","","","","",""
"","S2","","html-keyboard-response","368","761822","0.0-1.0-508.0","0","0","37850","","null","","","null","56","","NaN","","","","","","","","","","","","","",""
"","response","","html-keyboard-response","369","762824","0.0-1.0-509.0-0.0","0","0","37850","","1000","","","68","56","","","2","56","training","adjacent","CD","3","4","L.jpg","O.jpg","1","1","1","",""
"","feedback","","html-keyboard-response","370","763829","0.0-1.0-510.0-0.0","0","0","37850","","null","","","null","56","","","","","","","","","","","","","","","",""
"","ITI","","html-keyboard-response","371","764840","0.0-1.0-513.0","0","0","37850","","null","","","null","56","","","","","","","","","","","","","","","NaN",""
"","S1","","html-keyboard-response","372","765101","0.0-1.0-515.0","0","0","37850","","null","","","null","57","","","","","","","","","","","","","","","",""
"","ISI","","html-keyboard-response","373","766112","0.0-1.0-516.0","0","0","37850","","null","","","null","57","NaN","","","","","","","","","","","","","","",""
"","S2","","html-keyboard-response","374","766373","0.0-1.0-517.0","0","0","37850","","null","","","null","57","","NaN","","","","","","","","","","","","","",""
"","response","","html-keyboard-response","375","767181","0.0-1.0-518.0-0.0","0","0","37850","","806","","","68","57","","","2","57","training","adjacent","EF","5","6","Q.jpg","N.jpg","1","1","1","",""
"","feedback","","html-keyboard-response","376","768190","0.0-1.0-519.0-0.0","0","0","37850","","null","","","null","57","","","","","","","","","","","","","","","",""
"","ITI","","html-keyboard-response","377","769199","0.0-1.0-522.0","0","0","37850","","null","","","null","57","","","","","","","","","","","","","","","NaN",""
"","S1","","html-keyboard-response","378","769456","0.0-1.0-524.0","0","0","37850","","null","","","null","58","","","","","","","","","","","","","","","",""
"","ISI","","html-keyboard-response","379","770462","0.0-1.0-525.0","0","0","37850","","null","","","null","58","NaN","","","","","","","","","","","","","","",""
"","S2","","html-keyboard-response","380","770721","0.0-1.0-526.0","0","0","37850","","null","","","null","58","","NaN","","","","","","","","","","","","","",""
"","response","","html-keyboard-response","381","772060","0.0-1.0-527.0-0.0","0","0","37850","","1337","","","68","58","","","2","58","training","adjacent","GF","7","6","M.jpg","N.jpg","1","0","0","",""
"","feedback","","html-keyboard-response","382","773072","0.0-1.0-528.0-0.0","0","0","37850","","null","","","null","58","","","","","","","","","","","","","","","",""
"","time_out","","html-keyboard-response","383","775081","0.0-1.0-530.0-0.0","0","0","37850","","null","","","null","58","","","","","","","","","","","","","","","",""
"","ITI","","html-keyboard-response","384","776085","0.0-1.0-531.0","0","0","37850","","null","","","null","58","","","","","","","","","","","","","","","NaN",""
"","S1","","html-keyboard-response","385","776342","0.0-1.0-533.0","0","0","37850","","null","","","null","59","","","","","","","","","","","","","","","",""
"","ISI","","html-keyboard-response","386","777350","0.0-1.0-534.0","0","0","37850","","null","","","null","59","NaN","","","","","","","","","","","","","","",""
"","S2","","html-keyboard-response","387","777606","0.0-1.0-535.0","0","0","37850","","null","","","null","59","","NaN","","","","","","","","","","","","","",""
"","response","","html-keyboard-response","388","778110","0.0-1.0-536.0-0.0","0","0","37850","","503","","","68","59","","","2","59","training","adjacent","DC","4","3","O.jpg","L.jpg","1","0","0","",""
"","feedback","","html-keyboard-response","389","779118","0.0-1.0-537.0-0.0","0","0","37850","","null","","","null","59","","","","","","","","","","","","","","","",""
"","time_out","","html-keyboard-response","390","781129","0.0-1.0-539.0-0.0","0","0","37850","","null","","","null","59","","","","","","","","","","","","","","","",""
"","ITI","","html-keyboard-response","391","782133","0.0-1.0-540.0","0","0","37850","","null","","","null","59","","","","","","","","","","","","","","","NaN",""
"","S1","","html-keyboard-response","392","782389","0.0-1.0-542.0","0","0","37850","","null","","","null","60","","","","","","","","","","","","","","","",""
"","ISI","","html-keyboard-response","393","783400","0.0-1.0-543.0","0","0","37850","","null","","","null","60","NaN","","","","","","","","","","","","","","",""
"","S2","","html-keyboard-response","394","783661","0.0-1.0-544.0","0","0","37850","","null","","","null","60","","NaN","","","","","","","","","","","","","",""
"","response","","html-keyboard-response","395","784233","0.0-1.0-545.0-0.0","0","0","37850","","570","","","75","60","","","2","60","training","adjacent","DE","4","5","O.jpg","Q.jpg","0","1","0","",""
"","feedback","","html-keyboard-response","396","785240","0.0-1.0-546.0-0.0","0","0","37850","","null","","","null","60","","","","","","","","","","","","","","","",""
"","time_out","","html-keyboard-response","397","787248","0.0-1.0-548.0-0.0","0","0","37850","","null","","","null","60","","","","","","","","","","","","","","","",""
"","ITI","","html-keyboard-response","398","788257","0.0-1.0-549.0","0","0","37850","","null","","","null","60","","","","","","","","","","","","","","","NaN",""
"","S1","","html-keyboard-response","399","788519","0.0-1.0-551.0","0","0","37850","","null","","","null","61","","","","","","","","","","","","","","","",""
"","ISI","","html-keyboard-response","400","789530","0.0-1.0-552.0","0","0","37850","","null","","","null","61","NaN","","","","","","","","","","","","","","",""
"","S2","","html-keyboard-response","401","789790","0.0-1.0-553.0","0","0","37850","","null","","","null","61","","NaN","","","","","","","","","","","","","",""
"","response","","html-keyboard-response","402","790292","0.0-1.0-554.0-0.0","0","0","37850","","500","","","68","61","","","2","61","training","adjacent","GF","7","6","M.jpg","N.jpg","1","0","0","",""
"","feedback","","html-keyboard-response","403","791303","0.0-1.0-555.0-0.0","0","0","37850","","null","","","null","61","","","","","","","","","","","","","","","",""
"","time_out","","html-keyboard-response","404","793308","0.0-1.0-557.0-0.0","0","0","37850","","null","","","null","61","","","","","","","","","","","","","","","",""
"","ITI","","html-keyboard-response","405","794317","0.0-1.0-558.0","0","0","37850","","null","","","null","61","","","","","","","","","","","","","","","NaN",""
"","S1","","html-keyboard-response","406","794574","0.0-1.0-560.0","0","0","37850","","null","","","null","62","","","","","","","","","","","","","","","",""
"","ISI","","html-keyboard-response","407","795583","0.0-1.0-561.0","0","0","37850","","null","","","null","62","NaN","","","","","","","","","","","","","","",""
"","S2","","html-keyboard-response","408","795838","0.0-1.0-562.0","0","0","37850","","null","","","null","62","","NaN","","","","","","","","","","","","","",""
"","response","","html-keyboard-response","409","796530","0.0-1.0-563.0-0.0","0","0","37850","","689","","","68","62","","","2","62","training","adjacent","BC","2","3","R.jpg","L.jpg","1","1","1","",""
"","feedback","","html-keyboard-response","410","797534","0.0-1.0-564.0-0.0","0","0","37850","","null","","","null","62","","","","","","","","","","","","","","","",""
"","ITI","","html-keyboard-response","411","798543","0.0-1.0-567.0","0","0","37850","","null","","","null","62","","","","","","","","","","","","","","","NaN",""
"","S1","","html-keyboard-response","412","798800","0.0-1.0-569.0","0","0","37850","","null","","","null","63","","","","","","","","","","","","","","","",""
"","ISI","","html-keyboard-response","413","799810","0.0-1.0-570.0","0","0","37850","","null","","","null","63","NaN","","","","","","","","","","","","","","",""
"","S2","","html-keyboard-response","414","800072","0.0-1.0-571.0","0","0","37850","","null","","","null","63","","NaN","","","","","","","","","","","","","",""
"","response","","html-keyboard-response","415","800578","0.0-1.0-572.0-0.0","0","0","37850","","504","","","75","63","","","2","63","training","adjacent","CB","3","2","L.jpg","R.jpg","0","0","1","",""
"","feedback","","html-keyboard-response","416","801581","0.0-1.0-573.0-0.0","0","0","37850","","null","","","null","63","","","","","","","","","","","","","","","",""
"","ITI","","html-keyboard-response","417","802591","0.0-1.0-576.0","0","0","37850","","null","","","null","63","","","","","","","","","","","","","","","NaN",""
"","S1","","html-keyboard-response","418","802846","0.0-1.0-578.0","0","0","37850","","null","","","null","64","","","","","","","","","","","","","","","",""
"","ISI","","html-keyboard-response","419","803857","0.0-1.0-579.0","0","0","37850","","null","","","null","64","NaN","","","","","","","","","","","","","","",""
"","S2","","html-keyboard-response","420","804117","0.0-1.0-580.0","0","0","37850","","null","","","null","64","","NaN","","","","","","","","","","","","","",""
"","response","","html-keyboard-response","421","804522","0.0-1.0-581.0-0.0","0","0","37850","","403","","","75","64","","","2","64","training","adjacent","DE","4","5","O.jpg","Q.jpg","0","1","0","",""
"","feedback","","html-keyboard-response","422","805533","0.0-1.0-582.0-0.0","0","0","37850","","null","","","null","64","","","","","","","","","","","","","","","",""
"","time_out","","html-keyboard-response","423","807543","0.0-1.0-584.0-0.0","0","0","37850","","null","","","null","64","","","","","","","","","","","","","","","",""
"","ITI","","html-keyboard-response","424","808552","0.0-1.0-585.0","0","0","37850","","null","","","null","64","","","","","","","","","","","","","","","NaN",""
"","S1","","html-keyboard-response","425","808814","0.0-1.0-587.0","0","0","37850","","null","","","null","65","","","","","","","","","","","","","","","",""
"","ISI","","html-keyboard-response","426","809824","0.0-1.0-588.0","0","0","37850","","null","","","null","65","NaN","","","","","","","","","","","","","","",""
"","S2","","html-keyboard-response","427","810079","0.0-1.0-589.0","0","0","37850","","null","","","null","65","","NaN","","","","","","","","","","","","","",""
"","response","","html-keyboard-response","428","810434","0.0-1.0-590.0-0.0","0","0","37850","","353","","","68","65","","","2","65","training","adjacent","AB","1","2","P.jpg","R.jpg","1","1","1","",""
"","feedback","","html-keyboard-response","429","811450","0.0-1.0-591.0-0.0","0","0","37850","","null","","","null","65","","","","","","","","","","","","","","","",""
"","ITI","","html-keyboard-response","430","812454","0.0-1.0-594.0","0","0","37850","","null","","","null","65","","","","","","","","","","","","","","","NaN",""
"","S1","","html-keyboard-response","431","812710","0.0-1.0-596.0","0","0","37850","","null","","","null","66","","","","","","","","","","","","","","","",""
"","ISI","","html-keyboard-response","432","813720","0.0-1.0-597.0","0","0","37850","","null","","","null","66","NaN","","","","","","","","","","","","","","",""
"","S2","","html-keyboard-response","433","813974","0.0-1.0-598.0","0","0","37850","","null","","","null","66","","NaN","","","","","","","","","","","","","",""
"","response","","html-keyboard-response","434","814568","0.0-1.0-599.0-0.0","0","0","37850","","591","","","75","66","","","2","66","training","adjacent","FE","6","5","N.jpg","Q.jpg","0","0","1","",""
"","feedback","","html-keyboard-response","435","815575","0.0-1.0-600.0-0.0","0","0","37850","","null","","","null","66","","","","","","","","","","","","","","","",""
"","ITI","","html-keyboard-response","436","816581","0.0-1.0-603.0","0","0","37850","","null","","","null","66","","","","","","","","","","","","","","","NaN",""
"","S1","","html-keyboard-response","437","816842","0.0-1.0-605.0","0","0","37850","","null","","","null","67","","","","","","","","","","","","","","","",""
"","ISI","","html-keyboard-response","438","817847","0.0-1.0-606.0","0","0","37850","","null","","","null","67","NaN","","","","","","","","","","","","","","",""
"","S2","","html-keyboard-response","439","818102","0.0-1.0-607.0","0","0","37850","","null","","","null","67","","NaN","","","","","","","","","","","","","",""
"","response","","html-keyboard-response","440","818925","0.0-1.0-608.0-0.0","0","0","37850","","821","","","75","67","","","2","67","training","adjacent","BA","2","1","R.jpg","P.jpg","0","0","1","",""
"","feedback","","html-keyboard-response","441","819936","0.0-1.0-609.0-0.0","0","0","37850","","null","","","null","67","","","","","","","","","","","","","","","",""
"","ITI","","html-keyboard-response","442","820941","0.0-1.0-612.0","0","0","37850","","null","","","null","67","","","","","","","","","","","","","","","NaN",""
"","S1","","html-keyboard-response","443","821202","0.0-1.0-614.0","0","0","37850","","null","","","null","68","","","","","","","","","","","","","","","",""
"","ISI","","html-keyboard-response","444","822207","0.0-1.0-615.0","0","0","37850","","null","","","null","68","NaN","","","","","","","","","","","","","","",""
"","S2","","html-keyboard-response","445","822462","0.0-1.0-616.0","0","0","37850","","null","","","null","68","","NaN","","","","","","","","","","","","","",""
"","response","","html-keyboard-response","446","822852","0.0-1.0-617.0-0.0","0","0","37850","","388","","","68","68","","","2","68","training","adjacent","AB","1","2","P.jpg","R.jpg","1","1","1","",""
"","feedback","","html-keyboard-response","447","823867","0.0-1.0-618.0-0.0","0","0","37850","","null","","","null","68","","","","","","","","","","","","","","","",""
"","ITI","","html-keyboard-response","448","824882","0.0-1.0-621.0","0","0","37850","","null","","","null","68","","","","","","","","","","","","","","","NaN",""
"","S1","","html-keyboard-response","449","825142","0.0-1.0-623.0","0","0","37850","","null","","","null","69","","","","","","","","","","","","","","","",""
"","ISI","","html-keyboard-response","450","826154","0.0-1.0-624.0","0","0","37850","","null","","","null","69","NaN","","","","","","","","","","","","","","",""
"","S2","","html-keyboard-response","451","826415","0.0-1.0-625.0","0","0","37850","","null","","","null","69","","NaN","","","","","","","","","","","","","",""
"","response","","html-keyboard-response","452","826995","0.0-1.0-626.0-0.0","0","0","37850","","578","","","68","69","","","2","69","training","adjacent","FG","6","7","N.jpg","M.jpg","1","1","1","",""
"","feedback","","html-keyboard-response","453","828005","0.0-1.0-627.0-0.0","0","0","37850","","null","","","null","69","","","","","","","","","","","","","","","",""
"","ITI","","html-keyboard-response","454","829016","0.0-1.0-630.0","0","0","37850","","null","","","null","69","","","","","","","","","","","","","","","NaN",""
"","S1","","html-keyboard-response","455","829271","0.0-1.0-632.0","0","0","37850","","null","","","null","70","","","","","","","","","","","","","","","",""
"","ISI","","html-keyboard-response","456","830282","0.0-1.0-633.0","0","0","37850","","null","","","null","70","NaN","","","","","","","","","","","","","","",""
"","S2","","html-keyboard-response","457","830543","0.0-1.0-634.0","0","0","37850","","null","","","null","70","","NaN","","","","","","","","","","","","","",""
"","response","","html-keyboard-response","458","831496","0.0-1.0-635.0-0.0","0","0","37850","","950","","","68","70","","","2","70","training","adjacent","CD","3","4","L.jpg","O.jpg","1","1","1","",""
"","feedback","","html-keyboard-response","459","832503","0.0-1.0-636.0-0.0","0","0","37850","","null","","","null","70","","","","","","","","","","","","","","","",""
"","ITI","","html-keyboard-response","460","833512","0.0-1.0-639.0","0","0","37850","","null","","","null","70","","","","","","","","","","","","","","","NaN",""
"","S1","","html-keyboard-response","461","833770","0.0-1.0-641.0","0","0","37850","","null","","","null","71","","","","","","","","","","","","","","","",""
"","ISI","","html-keyboard-response","462","834774","0.0-1.0-642.0","0","0","37850","","null","","","null","71","NaN","","","","","","","","","","","","","","",""
"","S2","","html-keyboard-response","463","835030","0.0-1.0-643.0","0","0","37850","","null","","","null","71","","NaN","","","","","","","","","","","","","",""
"","response","","html-keyboard-response","464","835586","0.0-1.0-644.0-0.0","0","0","37850","","553","","","75","71","","","2","71","training","adjacent","CB","3","2","L.jpg","R.jpg","0","0","1","",""
"","feedback","","html-keyboard-response","465","836603","0.0-1.0-645.0-0.0","0","0","37850","","null","","","null","71","","","","","","","","","","","","","","","",""
"","ITI","","html-keyboard-response","466","837613","0.0-1.0-648.0","0","0","37850","","null","","","null","71","","","","","","","","","","","","","","","NaN",""
"","S1","","html-keyboard-response","467","837875","0.0-1.0-650.0","0","0","37850","","null","","","null","72","","","","","","","","","","","","","","","",""
"","ISI","","html-keyboard-response","468","838879","0.0-1.0-651.0","0","0","37850","","null","","","null","72","NaN","","","","","","","","","","","","","","",""
"","S2","","html-keyboard-response","469","839134","0.0-1.0-652.0","0","0","37850","","null","","","null","72","","NaN","","","","","","","","","","","","","",""
"","response","","html-keyboard-response","470","839708","0.0-1.0-653.0-0.0","0","0","37850","","571","","","68","72","","","2","72","training","adjacent","ED","5","4","Q.jpg","O.jpg","1","0","0","",""
"","feedback","","html-keyboard-response","471","840719","0.0-1.0-654.0-0.0","0","0","37850","","null","","","null","72","","","","","","","","","","","","","","","",""
"","time_out","","html-keyboard-response","472","842728","0.0-1.0-656.0-0.0","0","0","37850","","null","","","null","72","","","","","","","","","","","","","","","",""
"","ITI","","html-keyboard-response","473","843738","0.0-1.0-657.0","0","0","37850","","null","","","null","72","","","","","","","","","","","","","","","NaN",""
"","S1","","html-keyboard-response","474","843999","0.0-1.0-659.0","0","0","37850","","null","","","null","73","","","","","","","","","","","","","","","",""
"","ISI","","html-keyboard-response","475","845009","0.0-1.0-660.0","0","0","37850","","null","","","null","73","NaN","","","","","","","","","","","","","","",""
"","S2","","html-keyboard-response","476","845270","0.0-1.0-661.0","0","0","37850","","null","","","null","73","","NaN","","","","","","","","","","","","","",""
"","response","","html-keyboard-response","477","845782","0.0-1.0-662.0-0.0","0","0","37850","","509","","","68","73","","","2","73","training","adjacent","FG","6","7","N.jpg","M.jpg","1","1","1","",""
"","feedback","","html-keyboard-response","478","846791","0.0-1.0-663.0-0.0","0","0","37850","","null","","","null","73","","","","","","","","","","","","","","","",""
"","ITI","","html-keyboard-response","479","847800","0.0-1.0-666.0","0","0","37850","","null","","","null","73","","","","","","","","","","","","","","","NaN",""
"","S1","","html-keyboard-response","480","848057","0.0-1.0-668.0","0","0","37850","","null","","","null","74","","","","","","","","","","","","","","","",""
"","ISI","","html-keyboard-response","481","849066","0.0-1.0-669.0","0","0","37850","","null","","","null","74","NaN","","","","","","","","","","","","","","",""
"","S2","","html-keyboard-response","482","849328","0.0-1.0-670.0","0","0","37850","","null","","","null","74","","NaN","","","","","","","","","","","","","",""
"","response","","html-keyboard-response","483","849780","0.0-1.0-671.0-0.0","0","0","37850","","450","","","75","74","","","2","74","training","adjacent","BA","2","1","R.jpg","P.jpg","0","0","1","",""
"","feedback","","html-keyboard-response","484","850794","0.0-1.0-672.0-0.0","0","0","37850","","null","","","null","74","","","","","","","","","","","","","","","",""
"","ITI","","html-keyboard-response","485","851801","0.0-1.0-675.0","0","0","37850","","null","","","null","74","","","","","","","","","","","","","","","NaN",""
"","S1","","html-keyboard-response","486","852056","0.0-1.0-677.0","0","0","37850","","null","","","null","75","","","","","","","","","","","","","","","",""
"","ISI","","html-keyboard-response","487","853066","0.0-1.0-678.0","0","0","37850","","null","","","null","75","NaN","","","","","","","","","","","","","","",""
"","S2","","html-keyboard-response","488","853328","0.0-1.0-679.0","0","0","37850","","null","","","null","75","","NaN","","","","","","","","","","","","","",""
"","response","","html-keyboard-response","489","853813","0.0-1.0-680.0-0.0","0","0","37850","","483","","","68","75","","","2","75","training","adjacent","EF","5","6","Q.jpg","N.jpg","1","1","1","",""
"","feedback","","html-keyboard-response","490","854824","0.0-1.0-681.0-0.0","0","0","37850","","null","","","null","75","","","","","","","","","","","","","","","",""
"","ITI","","html-keyboard-response","491","855835","0.0-1.0-684.0","0","0","37850","","null","","","null","75","","","","","","","","","","","","","","","NaN",""
"","S1","","html-keyboard-response","492","856097","0.0-1.0-686.0","0","0","37850","","null","","","null","76","","","","","","","","","","","","","","","",""
"","ISI","","html-keyboard-response","493","857107","0.0-1.0-687.0","0","0","37850","","null","","","null","76","NaN","","","","","","","","","","","","","","",""
"","S2","","html-keyboard-response","494","857368","0.0-1.0-688.0","0","0","37850","","null","","","null","76","","NaN","","","","","","","","","","","","","",""
"","response","","html-keyboard-response","495","858390","0.0-1.0-689.0-0.0","0","0","37850","","1021","","","68","76","","","2","76","training","adjacent","ED","5","4","Q.jpg","O.jpg","1","0","0","",""
"","feedback","","html-keyboard-response","496","859401","0.0-1.0-690.0-0.0","0","0","37850","","null","","","null","76","","","","","","","","","","","","","","","",""
"","time_out","","html-keyboard-response","497","861408","0.0-1.0-692.0-0.0","0","0","37850","","null","","","null","76","","","","","","","","","","","","","","","",""
"","ITI","","html-keyboard-response","498","862418","0.0-1.0-693.0","0","0","37850","","null","","","null","76","","","","","","","","","","","","","","","NaN",""
"","S1","","html-keyboard-response","499","862679","0.0-1.0-695.0","0","0","37850","","null","","","null","77","","","","","","","","","","","","","","","",""
"","ISI","","html-keyboard-response","500","863689","0.0-1.0-696.0","0","0","37850","","null","","","null","77","NaN","","","","","","","","","","","","","","",""
"","S2","","html-keyboard-response","501","863951","0.0-1.0-697.0","0","0","37850","","null","","","null","77","","NaN","","","","","","","","","","","","","",""
"","response","","html-keyboard-response","502","864555","0.0-1.0-698.0-0.0","0","0","37850","","602","","","68","77","","","2","77","training","adjacent","FG","6","7","N.jpg","M.jpg","1","1","1","",""
"","feedback","","html-keyboard-response","503","865571","0.0-1.0-699.0-0.0","0","0","37850","","null","","","null","77","","","","","","","","","","","","","","","",""
"","ITI","","html-keyboard-response","504","866575","0.0-1.0-702.0","0","0","37850","","null","","","null","77","","","","","","","","","","","","","","","NaN",""
"","S1","","html-keyboard-response","505","866830","0.0-1.0-704.0","0","0","37850","","null","","","null","78","","","","","","","","","","","","","","","",""
"","ISI","","html-keyboard-response","506","867841","0.0-1.0-705.0","0","0","37850","","null","","","null","78","NaN","","","","","","","","","","","","","","",""
"","S2","","html-keyboard-response","507","868096","0.0-1.0-706.0","0","0","37850","","null","","","null","78","","NaN","","","","","","","","","","","","","",""
"","response","","html-keyboard-response","508","868758","0.0-1.0-707.0-0.0","0","0","37850","","661","","","68","78","","","2","78","training","adjacent","BC","2","3","R.jpg","L.jpg","1","1","1","",""
"","feedback","","html-keyboard-response","509","869768","0.0-1.0-708.0-0.0","0","0","37850","","null","","","null","78","","","","","","","","","","","","","","","",""
"","ITI","","html-keyboard-response","510","870778","0.0-1.0-711.0","0","0","37850","","null","","","null","78","","","","","","","","","","","","","","","NaN",""
"","S1","","html-keyboard-response","511","871039","0.0-1.0-713.0","0","0","37850","","null","","","null","79","","","","","","","","","","","","","","","",""
"","ISI","","html-keyboard-response","512","872049","0.0-1.0-714.0","0","0","37850","","null","","","null","79","NaN","","","","","","","","","","","","","","",""
"","S2","","html-keyboard-response","513","872304","0.0-1.0-715.0","0","0","37850","","null","","","null","79","","NaN","","","","","","","","","","","","","",""
"","response","","html-keyboard-response","514","872867","0.0-1.0-716.0-0.0","0","0","37850","","560","","","75","79","","","2","79","training","adjacent","CD","3","4","L.jpg","O.jpg","0","1","0","",""
"","feedback","","html-keyboard-response","515","873872","0.0-1.0-717.0-0.0","0","0","37850","","null","","","null","79","","","","","","","","","","","","","","","",""
"","time_out","","html-keyboard-response","516","875881","0.0-1.0-719.0-0.0","0","0","37850","","null","","","null","79","","","","","","","","","","","","","","","",""
"","ITI","","html-keyboard-response","517","876889","0.0-1.0-720.0","0","0","37850","","null","","","null","79","","","","","","","","","","","","","","","NaN",""
"","S1","","html-keyboard-response","518","877146","0.0-1.0-722.0","0","0","37850","","null","","","null","80","","","","","","","","","","","","","","","",""
"","ISI","","html-keyboard-response","519","878150","0.0-1.0-723.0","0","0","37850","","null","","","null","80","NaN","","","","","","","","","","","","","","",""
"","S2","","html-keyboard-response","520","878412","0.0-1.0-724.0","0","0","37850","","null","","","null","80","","NaN","","","","","","","","","","","","","",""
"","response","","html-keyboard-response","521","879524","0.0-1.0-725.0-0.0","0","0","37850","","1109","","","75","80","","","2","80","training","adjacent","ED","5","4","Q.jpg","O.jpg","0","0","1","",""
"","feedback","","html-keyboard-response","522","880536","0.0-1.0-726.0-0.0","0","0","37850","","null","","","null","80","","","","","","","","","","","","","","","",""
"","ITI","","html-keyboard-response","523","881546","0.0-1.0-729.0","0","0","37850","","null","","","null","80","","","","","","","","","","","","","","","NaN",""
"","S1","","html-keyboard-response","524","881808","0.0-1.0-731.0","0","0","37850","","null","","","null","81","","","","","","","","","","","","","","","",""
"","ISI","","html-keyboard-response","525","882817","0.0-1.0-732.0","0","0","37850","","null","","","null","81","NaN","","","","","","","","","","","","","","",""
"","S2","","html-keyboard-response","526","883079","0.0-1.0-733.0","0","0","37850","","null","","","null","81","","NaN","","","","","","","","","","","","","",""
"","response","","html-keyboard-response","527","883619","0.0-1.0-734.0-0.0","0","0","37850","","537","","","68","81","","","2","81","training","adjacent","BC","2","3","R.jpg","L.jpg","1","1","1","",""
"","feedback","","html-keyboard-response","528","884623","0.0-1.0-735.0-0.0","0","0","37850","","null","","","null","81","","","","","","","","","","","","","","","",""
"","ITI","","html-keyboard-response","529","885633","0.0-1.0-738.0","0","0","37850","","null","","","null","81","","","","","","","","","","","","","","","NaN",""
"","S1","","html-keyboard-response","530","885889","0.0-1.0-740.0","0","0","37850","","null","","","null","82","","","","","","","","","","","","","","","",""
"","ISI","","html-keyboard-response","531","886899","0.0-1.0-741.0","0","0","37850","","null","","","null","82","NaN","","","","","","","","","","","","","","",""
"","S2","","html-keyboard-response","532","887159","0.0-1.0-742.0","0","0","37850","","null","","","null","82","","NaN","","","","","","","","","","","","","",""
"","response","","html-keyboard-response","533","887992","0.0-1.0-743.0-0.0","0","0","37850","","830","","","68","82","","","2","82","training","adjacent","CD","3","4","L.jpg","O.jpg","1","1","1","",""
"","feedback","","html-keyboard-response","534","889000","0.0-1.0-744.0-0.0","0","0","37850","","null","","","null","82","","","","","","","","","","","","","","","",""
"","ITI","","html-keyboard-response","535","890010","0.0-1.0-747.0","0","0","37850","","null","","","null","82","","","","","","","","","","","","","","","NaN",""
"","S1","","html-keyboard-response","536","890271","0.0-1.0-749.0","0","0","37850","","null","","","null","83","","","","","","","","","","","","","","","",""
"","ISI","","html-keyboard-response","537","891281","0.0-1.0-750.0","0","0","37850","","null","","","null","83","NaN","","","","","","","","","","","","","","",""
"","S2","","html-keyboard-response","538","891537","0.0-1.0-751.0","0","0","37850","","null","","","null","83","","NaN","","","","","","","","","","","","","",""
"","response","","html-keyboard-response","539","892165","0.0-1.0-752.0-0.0","0","0","37850","","626","","","75","83","","","2","83","training","adjacent","FE","6","5","N.jpg","Q.jpg","0","0","1","",""
"","feedback","","html-keyboard-response","540","893175","0.0-1.0-753.0-0.0","0","0","37850","","null","","","null","83","","","","","","","","","","","","","","","",""
"","ITI","","html-keyboard-response","541","894178","0.0-1.0-756.0","0","0","37850","","null","","","null","83","","","","","","","","","","","","","","","NaN",""
"","S1","","html-keyboard-response","542","894439","0.0-1.0-758.0","0","0","37850","","null","","","null","84","","","","","","","","","","","","","","","",""
"","ISI","","html-keyboard-response","543","895450","0.0-1.0-759.0","0","0","37850","","null","","","null","84","NaN","","","","","","","","","","","","","","",""
"","S2","","html-keyboard-response","544","895705","0.0-1.0-760.0","0","0","37850","","null","","","null","84","","NaN","","","","","","","","","","","","","",""
"","response","","html-keyboard-response","545","896413","0.0-1.0-761.0-0.0","0","0","37850","","705","","","75","84","","","2","84","training","adjacent","CB","3","2","L.jpg","R.jpg","0","0","1","",""
"","feedback","","html-keyboard-response","546","897423","0.0-1.0-762.0-0.0","0","0","37850","","null","","","null","84","","","","","","","","","","","","","","","",""
"","ITI","","html-keyboard-response","547","898433","0.0-1.0-765.0","0","0","37850","","null","","","null","84","","","","","","","","","","","","","","","NaN",""
"","S1","","html-keyboard-response","548","898689","0.0-1.0-767.0","0","0","37850","","null","","","null","85","","","","","","","","","","","","","","","",""
"","ISI","","html-keyboard-response","549","899699","0.0-1.0-768.0","0","0","37850","","null","","","null","85","NaN","","","","","","","","","","","","","","",""
"","S2","","html-keyboard-response","550","899960","0.0-1.0-769.0","0","0","37850","","null","","","null","85","","NaN","","","","","","","","","","","","","",""
"","response","","html-keyboard-response","551","900274","0.0-1.0-770.0-0.0","0","0","37850","","311","","","68","85","","","2","85","training","adjacent","AB","1","2","P.jpg","R.jpg","1","1","1","",""
"","feedback","","html-keyboard-response","552","901283","0.0-1.0-771.0-0.0","0","0","37850","","null","","","null","85","","","","","","","","","","","","","","","",""
"","ITI","","html-keyboard-response","553","902288","0.0-1.0-774.0","0","0","37850","","null","","","null","85","","","","","","","","","","","","","","","NaN",""
"","S1","","html-keyboard-response","554","902542","0.0-1.0-776.0","0","0","37850","","null","","","null","86","","","","","","","","","","","","","","","",""
"","ISI","","html-keyboard-response","555","903553","0.0-1.0-777.0","0","0","37850","","null","","","null","86","NaN","","","","","","","","","","","","","","",""
"","S2","","html-keyboard-response","556","903808","0.0-1.0-778.0","0","0","37850","","null","","","null","86","","NaN","","","","","","","","","","","","","",""
"","response","","html-keyboard-response","557","904227","0.0-1.0-779.0-0.0","0","0","37850","","416","","","75","86","","","2","86","training","adjacent","BA","2","1","R.jpg","P.jpg","0","0","1","",""
"","feedback","","html-keyboard-response","558","905231","0.0-1.0-780.0-0.0","0","0","37850","","null","","","null","86","","","","","","","","","","","","","","","",""
"","ITI","","html-keyboard-response","559","906240","0.0-1.0-783.0","0","0","37850","","null","","","null","86","","","","","","","","","","","","","","","NaN",""
"","S1","","html-keyboard-response","560","906497","0.0-1.0-785.0","0","0","37850","","null","","","null","87","","","","","","","","","","","","","","","",""
"","ISI","","html-keyboard-response","561","907506","0.0-1.0-786.0","0","0","37850","","null","","","null","87","NaN","","","","","","","","","","","","","","",""
"","S2","","html-keyboard-response","562","907768","0.0-1.0-787.0","0","0","37850","","null","","","null","87","","NaN","","","","","","","","","","","","","",""
"","response","","html-keyboard-response","563","908189","0.0-1.0-788.0-0.0","0","0","37850","","419","","","75","87","","","2","87","training","adjacent","BA","2","1","R.jpg","P.jpg","0","0","1","",""
"","feedback","","html-keyboard-response","564","909201","0.0-1.0-789.0-0.0","0","0","37850","","null","","","null","87","","","","","","","","","","","","","","","",""
"","ITI","","html-keyboard-response","565","910211","0.0-1.0-792.0","0","0","37850","","null","","","null","87","","","","","","","","","","","","","","","NaN",""
"","S1","","html-keyboard-response","566","910473","0.0-1.0-794.0","0","0","37850","","null","","","null","88","","","","","","","","","","","","","","","",""
"","ISI","","html-keyboard-response","567","911483","0.0-1.0-795.0","0","0","37850","","null","","","null","88","NaN","","","","","","","","","","","","","","",""
"","S2","","html-keyboard-response","568","911745","0.0-1.0-796.0","0","0","37850","","null","","","null","88","","NaN","","","","","","","","","","","","","",""
"","response","","html-keyboard-response","569","912378","0.0-1.0-797.0-0.0","0","0","37850","","630","","","75","88","","","2","88","training","adjacent","GF","7","6","M.jpg","N.jpg","0","0","1","",""
"","feedback","","html-keyboard-response","570","913387","0.0-1.0-798.0-0.0","0","0","37850","","null","","","null","88","","","","","","","","","","","","","","","",""
"","ITI","","html-keyboard-response","571","914391","0.0-1.0-801.0","0","0","37850","","null","","","null","88","","","","","","","","","","","","","","","NaN",""
"","S1","","html-keyboard-response","572","914652","0.0-1.0-803.0","0","0","37850","","null","","","null","89","","","","","","","","","","","","","","","",""
"","ISI","","html-keyboard-response","573","915658","0.0-1.0-804.0","0","0","37850","","null","","","null","89","NaN","","","","","","","","","","","","","","",""
"","S2","","html-keyboard-response","574","915915","0.0-1.0-805.0","0","0","37850","","null","","","null","89","","NaN","","","","","","","","","","","","","",""
"","response","","html-keyboard-response","575","916655","0.0-1.0-806.0-0.0","0","0","37850","","737","","","75","89","","","2","89","training","adjacent","FE","6","5","N.jpg","Q.jpg","0","0","1","",""
"","feedback","","html-keyboard-response","576","917665","0.0-1.0-807.0-0.0","0","0","37850","","null","","","null","89","","","","","","","","","","","","","","","",""
"","ITI","","html-keyboard-response","577","918676","0.0-1.0-810.0","0","0","37850","","null","","","null","89","","","","","","","","","","","","","","","NaN",""
"","S1","","html-keyboard-response","578","918937","0.0-1.0-812.0","0","0","37850","","null","","","null","90","","","","","","","","","","","","","","","",""
"","ISI","","html-keyboard-response","579","919947","0.0-1.0-813.0","0","0","37850","","null","","","null","90","NaN","","","","","","","","","","","","","","",""
"","S2","","html-keyboard-response","580","920208","0.0-1.0-814.0","0","0","37850","","null","","","null","90","","NaN","","","","","","","","","","","","","",""
"","response","","html-keyboard-response","581","920623","0.0-1.0-815.0-0.0","0","0","37850","","412","","","68","90","","","2","90","training","adjacent","EF","5","6","Q.jpg","N.jpg","1","1","1","",""
"","feedback","","html-keyboard-response","582","921632","0.0-1.0-816.0-0.0","0","0","37850","","null","","","null","90","","","","","","","","","","","","","","","",""
