"success","ttype","start_time","trial_type","trial_index","time_elapsed","internal_node_id","warning","missed_checkup","PID","view_history","rt","responses","repeat_instructions","key_press","index","keypress_isi","keypress_S2","block","trial_num","phase","group_type","pair_type","S1_stim","S2_stim","S1_img","S2_img","S1_chosen","S1_higher","accuracy","keypress_iti","total_bonus_tally"
"true","full_screen","d07282022hr1708","fullscreen","0","33257","0.0-0.0","0","0","60322","","","","","","","","","","","","","","","","","","","","","",""
"","instructions","","instructions","1","74253","0.0-1.0-0.0-0.0","0","0","60322","[{""page_index"":0,""viewing_time"":7459},{""page_index"":1,""viewing_time"":17355},{""page_index"":2,""viewing_time"":14918},{""page_index"":3,""viewing_time"":1262}]","40995","","","","","","","","","","","","","","","","","","","",""
"","comprehension_check","","survey-multi-choice","2","89719","0.0-1.0-0.0-1.0","0","0","60322","","15461","{""Q0"":""True"",""Q1"":""True"",""Q2"":""When you see the prompt 'MAKE A CHOICE' after the second image was presented"",""Q3"":""Green mark"",""Q4"":""either D or K""}","0","","","","","","","","","","","","","","","","","",""
"","start_exp","","html-keyboard-response","3","90999","0.0-1.0-1.0","0","0","60322","","1278","","","32","","","","","","","","","","","","","","","","",""
"","S1","","html-keyboard-response","4","91253","0.0-1.0-2.0","0","0","60322","","null","","","null","0","","","","","","","","","","","","","","","",""
"","ISI","","html-keyboard-response","5","93255","0.0-1.0-3.0","0","0","60322","","null","","","null","0","NaN","","","","","","","","","","","","","","",""
"","S2","","html-keyboard-response","6","93508","0.0-1.0-4.0","0","0","60322","","null","","","null","0","","NaN","","","","","","","","","","","","","",""
"","response","","html-keyboard-response","7","94009","0.0-1.0-5.0","0","0","60322","","499","","","75","0","","","1","0","training","adjacent","AB","1","2","Q.jpg","R.jpg","0","1","0","",""
"","feedback","","html-keyboard-response","8","95017","0.0-1.0-6.0-0.0","0","0","60322","","null","","","null","0","","","","","","","","","","","","","","","",""
"","time_out","","html-keyboard-response","9","97021","0.0-1.0-8.0-0.0","0","0","60322","","null","","","null","0","","","","","","","","","","","","","","","",""
"","ITI","","html-keyboard-response","10","98023","0.0-1.0-9.0","0","0","60322","","null","","","null","0","","","","","","","","","","","","","","","NaN",""
"","S1","","html-keyboard-response","11","98275","0.0-1.0-11.0","0","0","60322","","null","","","null","1","","","","","","","","","","","","","","","",""
"","ISI","","html-keyboard-response","12","100278","0.0-1.0-12.0","0","0","60322","","null","","","null","1","NaN","","","","","","","","","","","","","","",""
"","S2","","html-keyboard-response","13","100533","0.0-1.0-13.0","0","0","60322","","null","","","null","1","","NaN","","","","","","","","","","","","","",""
"","response","","html-keyboard-response","14","100887","0.0-1.0-14.0","0","0","60322","","353","","","75","1","","","1","1","training","adjacent","FG","6","7","N.jpg","P.jpg","0","1","0","",""
"","feedback","","html-keyboard-response","15","101890","0.0-1.0-15.0-0.0","0","0","60322","","null","","","null","1","","","","","","","","","","","","","","","",""
"","time_out","","html-keyboard-response","16","103892","0.0-1.0-17.0-0.0","0","0","60322","","null","","","null","1","","","","","","","","","","","","","","","",""
"","ITI","","html-keyboard-response","17","104894","0.0-1.0-18.0","0","0","60322","","null","","","null","1","","","","","","","","","","","","","","","NaN",""
"","S1","","html-keyboard-response","18","105147","0.0-1.0-20.0","0","0","60322","","null","","","null","2","","","","","","","","","","","","","","","",""
"","ISI","","html-keyboard-response","19","107149","0.0-1.0-21.0","0","0","60322","","null","","","null","2","NaN","","","","","","","","","","","","","","",""
"","S2","","html-keyboard-response","20","107401","0.0-1.0-22.0","0","0","60322","","null","","","null","2","","NaN","","","","","","","","","","","","","",""
"","response","","html-keyboard-response","21","108075","0.0-1.0-23.0","0","0","60322","","672","","","75","2","","","1","2","training","adjacent","BA","2","1","R.jpg","Q.jpg","0","0","1","",""
"","feedback","","html-keyboard-response","22","109077","0.0-1.0-24.0-0.0","0","0","60322","","null","","","null","2","","","","","","","","","","","","","","","",""
"","ITI","","html-keyboard-response","23","110078","0.0-1.0-27.0","0","0","60322","","null","","","null","2","","","","","","","","","","","","","","","NaN",""
"","S1","","html-keyboard-response","24","110332","0.0-1.0-29.0","0","0","60322","","null","","","null","3","","","","","","","","","","","","","","","",""
"","ISI","","html-keyboard-response","25","112333","0.0-1.0-30.0","0","0","60322","","null","","","null","3","NaN","","","","","","","","","","","","","","",""
"","S2","","html-keyboard-response","26","112585","0.0-1.0-31.0","0","0","60322","","null","","","null","3","","NaN","","","","","","","","","","","","","",""
"","response","","html-keyboard-response","27","112925","0.0-1.0-32.0","0","0","60322","","338","","","68","3","","","1","3","training","adjacent","BC","2","3","R.jpg","L.jpg","1","1","1","",""
"","feedback","","html-keyboard-response","28","113927","0.0-1.0-33.0-0.0","0","0","60322","","null","","","null","3","","","","","","","","","","","","","","","",""
"","ITI","","html-keyboard-response","29","114930","0.0-1.0-36.0","0","0","60322","","null","","","null","3","","","","","","","","","","","","","","","NaN",""
"","S1","","html-keyboard-response","30","115182","0.0-1.0-38.0","0","0","60322","","null","","","null","4","","","","","","","","","","","","","","","",""
"","ISI","","html-keyboard-response","31","117184","0.0-1.0-39.0","0","0","60322","","null","","","null","4","NaN","","","","","","","","","","","","","","",""
"","S2","","html-keyboard-response","32","117437","0.0-1.0-40.0","0","0","60322","","null","","","null","4","","NaN","","","","","","","","","","","","","",""
"","response","","html-keyboard-response","33","117873","0.0-1.0-41.0","0","0","60322","","435","","","68","4","","","1","4","training","adjacent","FE","6","5","N.jpg","M.jpg","1","0","0","",""
"","feedback","","html-keyboard-response","34","118874","0.0-1.0-42.0-0.0","0","0","60322","","null","","","null","4","","","","","","","","","","","","","","","",""
"","time_out","","html-keyboard-response","35","120877","0.0-1.0-44.0-0.0","0","0","60322","","null","","","null","4","","","","","","","","","","","","","","","",""
"","ITI","","html-keyboard-response","36","121879","0.0-1.0-45.0","0","0","60322","","null","","","null","4","","","","","","","","","","","","","","","NaN",""
"","S1","","html-keyboard-response","37","122131","0.0-1.0-47.0","0","0","60322","","null","","","null","5","","","","","","","","","","","","","","","",""
"","ISI","","html-keyboard-response","38","124133","0.0-1.0-48.0","0","0","60322","","null","","","null","5","NaN","","","","","","","","","","","","","","",""
"","S2","","html-keyboard-response","39","124385","0.0-1.0-49.0","0","0","60322","","null","","","null","5","","NaN","","","","","","","","","","","","","",""
"","response","","html-keyboard-response","40","124771","0.0-1.0-50.0","0","0","60322","","385","","","75","5","","","1","5","training","adjacent","DC","4","3","O.jpg","L.jpg","0","0","1","",""
"","feedback","","html-keyboard-response","41","125773","0.0-1.0-51.0-0.0","0","0","60322","","null","","","null","5","","","","","","","","","","","","","","","",""
"","ITI","","html-keyboard-response","42","126775","0.0-1.0-54.0","0","0","60322","","null","","","null","5","","","","","","","","","","","","","","","NaN",""
"","S1","","html-keyboard-response","43","127028","0.0-1.0-56.0","0","0","60322","","null","","","null","6","","","","","","","","","","","","","","","",""
"","ISI","","html-keyboard-response","44","129030","0.0-1.0-57.0","0","0","60322","","null","","","null","6","NaN","","","","","","","","","","","","","","",""
"","S2","","html-keyboard-response","45","129284","0.0-1.0-58.0","0","0","60322","","null","","","null","6","","NaN","","","","","","","","","","","","","",""
"","response","","html-keyboard-response","46","129441","0.0-1.0-59.0","0","0","60322","","155","","","68","6","","","1","6","training","adjacent","AB","1","2","Q.jpg","R.jpg","1","1","1","",""
"","feedback","","html-keyboard-response","47","130444","0.0-1.0-60.0-0.0","0","0","60322","","null","","","null","6","","","","","","","","","","","","","","","",""
"","ITI","","html-keyboard-response","48","131446","0.0-1.0-63.0","0","0","60322","","null","","","null","6","","","","","","","","","","","","","","","NaN",""
"","S1","","html-keyboard-response","49","131699","0.0-1.0-65.0","0","0","60322","","null","","","null","7","","","","","","","","","","","","","","","",""
"","ISI","","html-keyboard-response","50","133701","0.0-1.0-66.0","0","0","60322","","null","","","null","7","NaN","","","","","","","","","","","","","","",""
"","S2","","html-keyboard-response","51","133954","0.0-1.0-67.0","0","0","60322","","null","","","null","7","","NaN","","","","","","","","","","","","","",""
"","response","","html-keyboard-response","52","134363","0.0-1.0-68.0","0","0","60322","","407","","","75","7","","","1","7","training","adjacent","BA","2","1","R.jpg","Q.jpg","0","0","1","",""
"","feedback","","html-keyboard-response","53","135365","0.0-1.0-69.0-0.0","0","0","60322","","null","","","null","7","","","","","","","","","","","","","","","",""
"","ITI","","html-keyboard-response","54","136367","0.0-1.0-72.0","0","0","60322","","null","","","null","7","","","","","","","","","","","","","","","NaN",""
"","S1","","html-keyboard-response","55","136619","0.0-1.0-74.0","0","0","60322","","null","","","null","8","","","","","","","","","","","","","","","",""
"","ISI","","html-keyboard-response","56","138621","0.0-1.0-75.0","0","0","60322","","null","","","null","8","NaN","","","","","","","","","","","","","","",""
"","S2","","html-keyboard-response","57","138872","0.0-1.0-76.0","0","0","60322","","null","","","null","8","","NaN","","","","","","","","","","","","","",""
"","response","","html-keyboard-response","58","139053","0.0-1.0-77.0","0","0","60322","","179","","","75","8","","","1","8","training","adjacent","DC","4","3","O.jpg","L.jpg","0","0","1","",""
"","feedback","","html-keyboard-response","59","140055","0.0-1.0-78.0-0.0","0","0","60322","","null","","","null","8","","","","","","","","","","","","","","","",""
"","ITI","","html-keyboard-response","60","141057","0.0-1.0-81.0","0","0","60322","","null","","","null","8","","","","","","","","","","","","","","","NaN",""
"","S1","","html-keyboard-response","61","141309","0.0-1.0-83.0","0","0","60322","","null","","","null","9","","","","","","","","","","","","","","","",""
"","ISI","","html-keyboard-response","62","143310","0.0-1.0-84.0","0","0","60322","","null","","","null","9","NaN","","","","","","","","","","","","","","",""
"","S2","","html-keyboard-response","63","143564","0.0-1.0-85.0","0","0","60322","","null","","","null","9","","NaN","","","","","","","","","","","","","",""
"","response","","html-keyboard-response","64","143753","0.0-1.0-86.0","0","0","60322","","187","","","68","9","","","1","9","training","adjacent","AB","1","2","Q.jpg","R.jpg","1","1","1","",""
"","feedback","","html-keyboard-response","65","144755","0.0-1.0-87.0-0.0","0","0","60322","","null","","","null","9","","","","","","","","","","","","","","","",""
"","ITI","","html-keyboard-response","66","145757","0.0-1.0-90.0","0","0","60322","","null","","","null","9","","","","","","","","","","","","","","","NaN",""
"","S1","","html-keyboard-response","67","146010","0.0-1.0-92.0","0","0","60322","","null","","","null","10","","","","","","","","","","","","","","","",""
"","ISI","","html-keyboard-response","68","148016","0.0-1.0-93.0","0","0","60322","","null","","","null","10","NaN","","","","","","","","","","","","","","",""
"","S2","","html-keyboard-response","69","148269","0.0-1.0-94.0","0","0","60322","","null","","","null","10","","NaN","","","","","","","","","","","","","",""
"","response","","html-keyboard-response","70","148635","0.0-1.0-95.0","0","0","60322","","365","","","68","10","","","1","10","training","adjacent","CD","3","4","L.jpg","O.jpg","1","1","1","",""
"","feedback","","html-keyboard-response","71","149637","0.0-1.0-96.0-0.0","0","0","60322","","null","","","null","10","","","","","","","","","","","","","","","",""
"","ITI","","html-keyboard-response","72","150638","0.0-1.0-99.0","0","0","60322","","null","","","null","10","","","","","","","","","","","","","","","NaN",""
"","S1","","html-keyboard-response","73","150890","0.0-1.0-101.0","0","0","60322","","null","","","null","11","","","","","","","","","","","","","","","",""
"","ISI","","html-keyboard-response","74","152892","0.0-1.0-102.0","0","0","60322","","null","","","null","11","NaN","","","","","","","","","","","","","","",""
"","S2","","html-keyboard-response","75","153144","0.0-1.0-103.0","0","0","60322","","null","","","null","11","","NaN","","","","","","","","","","","","","",""
"","response","","html-keyboard-response","76","153354","0.0-1.0-104.0","0","0","60322","","208","","","75","11","","","1","11","training","adjacent","DC","4","3","O.jpg","L.jpg","0","0","1","",""
"","feedback","","html-keyboard-response","77","154356","0.0-1.0-105.0-0.0","0","0","60322","","null","","","null","11","","","","","","","","","","","","","","","",""
"","ITI","","html-keyboard-response","78","155358","0.0-1.0-108.0","0","0","60322","","null","","","null","11","","","","","","","","","","","","","","","NaN",""
"","S1","","html-keyboard-response","79","155610","0.0-1.0-110.0","0","0","60322","","null","","","null","12","","","","","","","","","","","","","","","",""
"","ISI","","html-keyboard-response","80","157612","0.0-1.0-111.0","0","0","60322","","null","","","null","12","NaN","","","","","","","","","","","","","","",""
"","S2","","html-keyboard-response","81","157865","0.0-1.0-112.0","0","0","60322","","null","","","null","12","","NaN","","","","","","","","","","","","","",""
"","response","","html-keyboard-response","82","158308","0.0-1.0-113.0","0","0","60322","","442","","","75","12","","","1","12","training","adjacent","FE","6","5","N.jpg","M.jpg","0","0","1","",""
"","feedback","","html-keyboard-response","83","159311","0.0-1.0-114.0-0.0","0","0","60322","","null","","","null","12","","","","","","","","","","","","","","","",""
"","ITI","","html-keyboard-response","84","160313","0.0-1.0-117.0","0","0","60322","","null","","","null","12","","","","","","","","","","","","","","","NaN",""
"","S1","","html-keyboard-response","85","160566","0.0-1.0-119.0","0","0","60322","","null","","","null","13","","","","","","","","","","","","","","","",""
"","ISI","","html-keyboard-response","86","162567","0.0-1.0-120.0","0","0","60322","","null","","","null","13","NaN","","","","","","","","","","","","","","",""
"","S2","","html-keyboard-response","87","162820","0.0-1.0-121.0","0","0","60322","","null","","","null","13","","NaN","","","","","","","","","","","","","",""
"","response","","html-keyboard-response","88","163164","0.0-1.0-122.0","0","0","60322","","343","","","75","13","","","1","13","training","adjacent","DE","4","5","O.jpg","M.jpg","0","1","0","",""
"","feedback","","html-keyboard-response","89","164165","0.0-1.0-123.0-0.0","0","0","60322","","null","","","null","13","","","","","","","","","","","","","","","",""
"","time_out","","html-keyboard-response","90","166167","0.0-1.0-125.0-0.0","0","0","60322","","null","","","null","13","","","","","","","","","","","","","","","",""
"","ITI","","html-keyboard-response","91","167170","0.0-1.0-126.0","0","0","60322","","null","","","null","13","","","","","","","","","","","","","","","NaN",""
"","S1","","html-keyboard-response","92","167437","0.0-1.0-128.0","0","0","60322","","null","","","null","14","","","","","","","","","","","","","","","",""
"","ISI","","html-keyboard-response","93","169438","0.0-1.0-129.0","0","0","60322","","null","","","null","14","NaN","","","","","","","","","","","","","","",""
"","S2","","html-keyboard-response","94","169691","0.0-1.0-130.0","0","0","60322","","null","","","null","14","","NaN","","","","","","","","","","","","","",""
"","response","","html-keyboard-response","95","170044","0.0-1.0-131.0","0","0","60322","","352","","","75","14","","","1","14","training","adjacent","BA","2","1","R.jpg","Q.jpg","0","0","1","",""
"","feedback","","html-keyboard-response","96","171046","0.0-1.0-132.0-0.0","0","0","60322","","null","","","null","14","","","","","","","","","","","","","","","",""
"","ITI","","html-keyboard-response","97","172048","0.0-1.0-135.0","0","0","60322","","null","","","null","14","","","","","","","","","","","","","","","NaN",""
"","S1","","html-keyboard-response","98","172301","0.0-1.0-137.0","0","0","60322","","null","","","null","15","","","","","","","","","","","","","","","",""
"","ISI","","html-keyboard-response","99","174304","0.0-1.0-138.0","0","0","60322","","null","","","null","15","NaN","","","","","","","","","","","","","","",""
"","S2","","html-keyboard-response","100","174555","0.0-1.0-139.0","0","0","60322","","null","","","null","15","","NaN","","","","","","","","","","","","","",""
"","response","","html-keyboard-response","101","174974","0.0-1.0-140.0","0","0","60322","","417","","","75","15","","","1","15","training","adjacent","FE","6","5","N.jpg","M.jpg","0","0","1","",""
"","feedback","","html-keyboard-response","102","175975","0.0-1.0-141.0-0.0","0","0","60322","","null","","","null","15","","","","","","","","","","","","","","","",""
"","ITI","","html-keyboard-response","103","176978","0.0-1.0-144.0","0","0","60322","","null","","","null","15","","","","","","","","","","","","","","","NaN",""
"","S1","","html-keyboard-response","104","177233","0.0-1.0-146.0","0","0","60322","","null","","","null","16","","","","","","","","","","","","","","","",""
"","ISI","","html-keyboard-response","105","179235","0.0-1.0-147.0","0","0","60322","","null","","","null","16","NaN","","","","","","","","","","","","","","",""
"","S2","","html-keyboard-response","106","179488","0.0-1.0-148.0","0","0","60322","","null","","","null","16","","NaN","","","","","","","","","","","","","",""
"","response","","html-keyboard-response","107","179820","0.0-1.0-149.0","0","0","60322","","331","","","75","16","","","1","16","training","adjacent","BC","2","3","R.jpg","L.jpg","0","1","0","",""
"","feedback","","html-keyboard-response","108","180823","0.0-1.0-150.0-0.0","0","0","60322","","null","","","null","16","","","","","","","","","","","","","","","",""
"","time_out","","html-keyboard-response","109","182825","0.0-1.0-152.0-0.0","0","0","60322","","null","","","null","16","","","","","","","","","","","","","","","",""
"","ITI","","html-keyboard-response","110","183827","0.0-1.0-153.0","0","0","60322","","null","","","null","16","","","","","","","","","","","","","","","NaN",""
"","S1","","html-keyboard-response","111","184079","0.0-1.0-155.0","0","0","60322","","null","","","null","17","","","","","","","","","","","","","","","",""
"","ISI","","html-keyboard-response","112","186082","0.0-1.0-156.0","0","0","60322","","null","","","null","17","NaN","","","","","","","","","","","","","","",""
"","S2","","html-keyboard-response","113","186334","0.0-1.0-157.0","0","0","60322","","null","","","null","17","","NaN","","","","","","","","","","","","","",""
"","response","","html-keyboard-response","114","186618","0.0-1.0-158.0","0","0","60322","","282","","","75","17","","","1","17","training","adjacent","ED","5","4","M.jpg","O.jpg","0","0","1","",""
"","feedback","","html-keyboard-response","115","187620","0.0-1.0-159.0-0.0","0","0","60322","","null","","","null","17","","","","","","","","","","","","","","","",""
"","ITI","","html-keyboard-response","116","188622","0.0-1.0-162.0","0","0","60322","","null","","","null","17","","","","","","","","","","","","","","","NaN",""
"","S1","","html-keyboard-response","117","188875","0.0-1.0-164.0","0","0","60322","","null","","","null","18","","","","","","","","","","","","","","","",""
"","ISI","","html-keyboard-response","118","190877","0.0-1.0-165.0","0","0","60322","","null","","","null","18","NaN","","","","","","","","","","","","","","",""
"","S2","","html-keyboard-response","119","191130","0.0-1.0-166.0","0","0","60322","","null","","","null","18","","NaN","","","","","","","","","","","","","",""
"","response","","html-keyboard-response","120","191528","0.0-1.0-167.0","0","0","60322","","397","","","75","18","","","1","18","training","adjacent","BC","2","3","R.jpg","L.jpg","0","1","0","",""
"","feedback","","html-keyboard-response","121","192531","0.0-1.0-168.0-0.0","0","0","60322","","null","","","null","18","","","","","","","","","","","","","","","",""
"","time_out","","html-keyboard-response","122","194533","0.0-1.0-170.0-0.0","0","0","60322","","null","","","null","18","","","","","","","","","","","","","","","",""
"","ITI","","html-keyboard-response","123","195535","0.0-1.0-171.0","0","0","60322","","null","","","null","18","","","","","","","","","","","","","","","NaN",""
"","S1","","html-keyboard-response","124","195788","0.0-1.0-173.0","0","0","60322","","null","","","null","19","","","","","","","","","","","","","","","",""
"","ISI","","html-keyboard-response","125","197791","0.0-1.0-174.0","0","0","60322","","null","","","null","19","NaN","","","","","","","","","","","","","","",""
"","S2","","html-keyboard-response","126","198044","0.0-1.0-175.0","0","0","60322","","null","","","null","19","","NaN","","","","","","","","","","","","","",""
"","response","","html-keyboard-response","127","198412","0.0-1.0-176.0","0","0","60322","","366","","","75","19","","","1","19","training","adjacent","BA","2","1","R.jpg","Q.jpg","0","0","1","",""
"","feedback","","html-keyboard-response","128","199414","0.0-1.0-177.0-0.0","0","0","60322","","null","","","null","19","","","","","","","","","","","","","","","",""
"","ITI","","html-keyboard-response","129","200416","0.0-1.0-180.0","0","0","60322","","null","","","null","19","","","","","","","","","","","","","","","NaN",""
"","S1","","html-keyboard-response","130","200668","0.0-1.0-182.0","0","0","60322","","null","","","null","20","","","","","","","","","","","","","","","",""
"","ISI","","html-keyboard-response","131","202669","0.0-1.0-183.0","0","0","60322","","null","","","null","20","NaN","","","","","","","","","","","","","","",""
"","S2","","html-keyboard-response","132","202922","0.0-1.0-184.0","0","0","60322","","null","","","null","20","","NaN","","","","","","","","","","","","","",""
"","response","","html-keyboard-response","133","203282","0.0-1.0-185.0","0","0","60322","","358","","","68","20","","","1","20","training","adjacent","ED","5","4","M.jpg","O.jpg","1","0","0","",""
"","feedback","","html-keyboard-response","134","204283","0.0-1.0-186.0-0.0","0","0","60322","","null","","","null","20","","","","","","","","","","","","","","","",""
"","time_out","","html-keyboard-response","135","206285","0.0-1.0-188.0-0.0","0","0","60322","","null","","","null","20","","","","","","","","","","","","","","","",""
"","ITI","","html-keyboard-response","136","207287","0.0-1.0-189.0","0","0","60322","","null","","","null","20","","","","","","","","","","","","","","","NaN",""
"","S1","","html-keyboard-response","137","207540","0.0-1.0-191.0","0","0","60322","","null","","","null","21","","","","","","","","","","","","","","","",""
"","ISI","","html-keyboard-response","138","209542","0.0-1.0-192.0","0","0","60322","","null","","","null","21","NaN","","","","","","","","","","","","","","",""
"","S2","","html-keyboard-response","139","209795","0.0-1.0-193.0","0","0","60322","","null","","","null","21","","NaN","","","","","","","","","","","","","",""
"","response","","html-keyboard-response","140","210472","0.0-1.0-194.0","0","0","60322","","676","","","68","21","","","1","21","training","adjacent","DE","4","5","O.jpg","M.jpg","1","1","1","",""
"","feedback","","html-keyboard-response","141","211474","0.0-1.0-195.0-0.0","0","0","60322","","null","","","null","21","","","","","","","","","","","","","","","",""
"","ITI","","html-keyboard-response","142","212476","0.0-1.0-198.0","0","0","60322","","null","","","null","21","","","","","","","","","","","","","","","NaN",""
"","S1","","html-keyboard-response","143","212729","0.0-1.0-200.0","0","0","60322","","null","","","null","22","","","","","","","","","","","","","","","",""
"","ISI","","html-keyboard-response","144","214731","0.0-1.0-201.0","0","0","60322","","null","","","null","22","NaN","","","","","","","","","","","","","","",""
"","S2","","html-keyboard-response","145","214983","0.0-1.0-202.0","0","0","60322","","null","","","null","22","","NaN","","","","","","","","","","","","","",""
"","response","","html-keyboard-response","146","215540","0.0-1.0-203.0","0","0","60322","","556","","","75","22","","","1","22","training","adjacent","GF","7","6","P.jpg","N.jpg","0","0","1","",""
"","feedback","","html-keyboard-response","147","216543","0.0-1.0-204.0-0.0","0","0","60322","","null","","","null","22","","","","","","","","","","","","","","","",""
"","ITI","","html-keyboard-response","148","217544","0.0-1.0-207.0","0","0","60322","","null","","","null","22","","","","","","","","","","","","","","","NaN",""
"","S1","","html-keyboard-response","149","217797","0.0-1.0-209.0","0","0","60322","","null","","","null","23","","","","","","","","","","","","","","","",""
"","ISI","","html-keyboard-response","150","219800","0.0-1.0-210.0","0","0","60322","","null","","","null","23","NaN","","","","","","","","","","","","","","",""
"","S2","","html-keyboard-response","151","220053","0.0-1.0-211.0","0","0","60322","","null","","","null","23","","NaN","","","","","","","","","","","","","",""
"","response","","html-keyboard-response","152","220512","0.0-1.0-212.0","0","0","60322","","458","","","68","23","","","1","23","training","adjacent","FG","6","7","N.jpg","P.jpg","1","1","1","",""
"","feedback","","html-keyboard-response","153","221514","0.0-1.0-213.0-0.0","0","0","60322","","null","","","null","23","","","","","","","","","","","","","","","",""
"","ITI","","html-keyboard-response","154","222516","0.0-1.0-216.0","0","0","60322","","null","","","null","23","","","","","","","","","","","","","","","NaN",""
"","S1","","html-keyboard-response","155","222768","0.0-1.0-218.0","0","0","60322","","null","","","null","24","","","","","","","","","","","","","","","",""
"","ISI","","html-keyboard-response","156","224770","0.0-1.0-219.0","0","0","60322","","null","","","null","24","NaN","","","","","","","","","","","","","","",""
"","S2","","html-keyboard-response","157","225023","0.0-1.0-220.0","0","0","60322","","null","","","null","24","","NaN","","","","","","","","","","","","","",""
"","response","","html-keyboard-response","158","225440","0.0-1.0-221.0","0","0","60322","","416","","","75","24","","","1","24","training","adjacent","CB","3","2","L.jpg","R.jpg","0","0","1","",""
"","feedback","","html-keyboard-response","159","226441","0.0-1.0-222.0-0.0","0","0","60322","","null","","","null","24","","","","","","","","","","","","","","","",""
"","ITI","","html-keyboard-response","160","227444","0.0-1.0-225.0","0","0","60322","","null","","","null","24","","","","","","","","","","","","","","","NaN",""
"","S1","","html-keyboard-response","161","227697","0.0-1.0-227.0","0","0","60322","","null","","","null","25","","","","","","","","","","","","","","","",""
"","ISI","","html-keyboard-response","162","229699","0.0-1.0-228.0","0","0","60322","","null","","","null","25","NaN","","","","","","","","","","","","","","",""
"","S2","","html-keyboard-response","163","229952","0.0-1.0-229.0","0","0","60322","","null","","","null","25","","NaN","","","","","","","","","","","","","",""
"","response","","html-keyboard-response","164","230174","0.0-1.0-230.0","0","0","60322","","220","","","68","25","","","1","25","training","adjacent","AB","1","2","Q.jpg","R.jpg","1","1","1","",""
"","feedback","","html-keyboard-response","165","231175","0.0-1.0-231.0-0.0","0","0","60322","","null","","","null","25","","","","","","","","","","","","","","","",""
"","ITI","","html-keyboard-response","166","232177","0.0-1.0-234.0","0","0","60322","","null","","","null","25","","","","","","","","","","","","","","","NaN",""
"","S1","","html-keyboard-response","167","232430","0.0-1.0-236.0","0","0","60322","","null","","","null","26","","","","","","","","","","","","","","","",""
"","ISI","","html-keyboard-response","168","234433","0.0-1.0-237.0","0","0","60322","","null","","","null","26","NaN","","","","","","","","","","","","","","",""
"","S2","","html-keyboard-response","169","234685","0.0-1.0-238.0","0","0","60322","","null","","","null","26","","NaN","","","","","","","","","","","","","",""
"","response","","html-keyboard-response","170","235140","0.0-1.0-239.0","0","0","60322","","454","","","75","26","","","1","26","training","adjacent","EF","5","6","M.jpg","N.jpg","0","1","0","",""
"","feedback","","html-keyboard-response","171","236144","0.0-1.0-240.0-0.0","0","0","60322","","null","","","null","26","","","","","","","","","","","","","","","",""
"","time_out","","html-keyboard-response","172","238146","0.0-1.0-242.0-0.0","0","0","60322","","null","","","null","26","","","","","","","","","","","","","","","",""
"","ITI","","html-keyboard-response","173","239149","0.0-1.0-243.0","0","0","60322","","null","","","null","26","","","","","","","","","","","","","","","NaN",""
"","S1","","html-keyboard-response","174","239402","0.0-1.0-245.0","0","0","60322","","null","","","null","27","","","","","","","","","","","","","","","",""
"","ISI","","html-keyboard-response","175","241404","0.0-1.0-246.0","0","0","60322","","null","","","null","27","NaN","","","","","","","","","","","","","","",""
"","S2","","html-keyboard-response","176","241656","0.0-1.0-247.0","0","0","60322","","null","","","null","27","","NaN","","","","","","","","","","","","","",""
"","response","","html-keyboard-response","177","242149","0.0-1.0-248.0","0","0","60322","","493","","","75","27","","","1","27","training","adjacent","ED","5","4","M.jpg","O.jpg","0","0","1","",""
"","feedback","","html-keyboard-response","178","243152","0.0-1.0-249.0-0.0","0","0","60322","","null","","","null","27","","","","","","","","","","","","","","","",""
"","ITI","","html-keyboard-response","179","244155","0.0-1.0-252.0","0","0","60322","","null","","","null","27","","","","","","","","","","","","","","","NaN",""
"","S1","","html-keyboard-response","180","244407","0.0-1.0-254.0","0","0","60322","","null","","","null","28","","","","","","","","","","","","","","","",""
"","ISI","","html-keyboard-response","181","246408","0.0-1.0-255.0","0","0","60322","","null","","","null","28","NaN","","","","","","","","","","","","","","",""
"","S2","","html-keyboard-response","182","246661","0.0-1.0-256.0","0","0","60322","","null","","","null","28","","NaN","","","","","","","","","","","","","",""
"","response","","html-keyboard-response","183","247414","0.0-1.0-257.0","0","0","60322","","752","","","68","28","","","1","28","training","adjacent","EF","5","6","M.jpg","N.jpg","1","1","1","",""
"","feedback","","html-keyboard-response","184","248416","0.0-1.0-258.0-0.0","0","0","60322","","null","","","null","28","","","","","","","","","","","","","","","",""
"","ITI","","html-keyboard-response","185","249417","0.0-1.0-261.0","0","0","60322","","null","","","null","28","","","","","","","","","","","","","","","NaN",""
"","S1","","html-keyboard-response","186","249670","0.0-1.0-263.0","0","0","60322","","null","","","null","29","","","","","","","","","","","","","","","",""
"","ISI","","html-keyboard-response","187","251671","0.0-1.0-264.0","0","0","60322","","null","","","null","29","NaN","","","","","","","","","","","","","","",""
"","S2","","html-keyboard-response","188","251923","0.0-1.0-265.0","0","0","60322","","null","","","null","29","","NaN","","","","","","","","","","","","","",""
"","response","","html-keyboard-response","189","252316","0.0-1.0-266.0","0","0","60322","","392","","","75","29","","","1","29","training","adjacent","CD","3","4","L.jpg","O.jpg","0","1","0","",""
"","feedback","","html-keyboard-response","190","253319","0.0-1.0-267.0-0.0","0","0","60322","","null","","","null","29","","","","","","","","","","","","","","","",""
"","time_out","","html-keyboard-response","191","255321","0.0-1.0-269.0-0.0","0","0","60322","","null","","","null","29","","","","","","","","","","","","","","","",""
"","ITI","","html-keyboard-response","192","256323","0.0-1.0-270.0","0","0","60322","","null","","","null","29","","","","","","","","","","","","","","","NaN",""
"","S1","","html-keyboard-response","193","256575","0.0-1.0-272.0","0","0","60322","","null","","","null","30","","","","","","","","","","","","","","","",""
"","ISI","","html-keyboard-response","194","258576","0.0-1.0-273.0","0","0","60322","","null","","","null","30","NaN","","","","","","","","","","","","","","",""
"","S2","","html-keyboard-response","195","258829","0.0-1.0-274.0","0","0","60322","","null","","","null","30","","NaN","","","","","","","","","","","","","",""
"","response","","html-keyboard-response","196","259093","0.0-1.0-275.0","0","0","60322","","263","","","75","30","","","1","30","training","adjacent","CB","3","2","L.jpg","R.jpg","0","0","1","",""
"","feedback","","html-keyboard-response","197","260095","0.0-1.0-276.0-0.0","0","0","60322","","null","","","null","30","","","","","","","","","","","","","","","",""
"","ITI","","html-keyboard-response","198","261112","0.0-1.0-279.0","0","0","60322","","null","","","null","30","","","","","","","","","","","","","","","NaN",""
"","S1","","html-keyboard-response","199","261364","0.0-1.0-281.0","0","0","60322","","null","","","null","31","","","","","","","","","","","","","","","",""
"","ISI","","html-keyboard-response","200","263365","0.0-1.0-282.0","0","0","60322","","null","","","null","31","NaN","","","","","","","","","","","","","","",""
"","S2","","html-keyboard-response","201","263618","0.0-1.0-283.0","0","0","60322","","null","","","null","31","","NaN","","","","","","","","","","","","","",""
"","response","","html-keyboard-response","202","264121","0.0-1.0-284.0","0","0","60322","","502","","","75","31","","","1","31","training","adjacent","FG","6","7","N.jpg","P.jpg","0","1","0","",""
"","feedback","","html-keyboard-response","203","265123","0.0-1.0-285.0-0.0","0","0","60322","","null","","","null","31","","","","","","","","","","","","","","","",""
"","time_out","","html-keyboard-response","204","267125","0.0-1.0-287.0-0.0","0","0","60322","","null","","","null","31","","","","","","","","","","","","","","","",""
"","ITI","","html-keyboard-response","205","268126","0.0-1.0-288.0","0","0","60322","","null","","","null","31","","","","","","","","","","","","","","","NaN",""
"","S1","","html-keyboard-response","206","268379","0.0-1.0-290.0","0","0","60322","","null","","","null","32","","","","","","","","","","","","","","","",""
"","ISI","","html-keyboard-response","207","270382","0.0-1.0-291.0","0","0","60322","","null","","","null","32","NaN","","","","","","","","","","","","","","",""
"","S2","","html-keyboard-response","208","270634","0.0-1.0-292.0","0","0","60322","","null","","","null","32","","NaN","","","","","","","","","","","","","",""
"","response","","html-keyboard-response","209","271218","0.0-1.0-293.0","0","0","60322","","583","","","75","32","","","1","32","training","adjacent","CB","3","2","L.jpg","R.jpg","0","0","1","",""
"","feedback","","html-keyboard-response","210","272220","0.0-1.0-294.0-0.0","0","0","60322","","null","","","null","32","","","","","","","","","","","","","","","",""
"","ITI","","html-keyboard-response","211","273223","0.0-1.0-297.0","0","0","60322","","null","","","null","32","","","","","","","","","","","","","","","NaN",""
"","S1","","html-keyboard-response","212","273475","0.0-1.0-299.0","0","0","60322","","null","","","null","33","","","","","","","","","","","","","","","",""
"","ISI","","html-keyboard-response","213","275477","0.0-1.0-300.0","0","0","60322","","null","","","null","33","NaN","","","","","","","","","","","","","","",""
"","S2","","html-keyboard-response","214","275729","0.0-1.0-301.0","0","0","60322","","null","","","null","33","","NaN","","","","","","","","","","","","","",""
"","response","","html-keyboard-response","215","276691","0.0-1.0-302.0","0","0","60322","","961","","","75","33","","","1","33","training","adjacent","EF","5","6","M.jpg","N.jpg","0","1","0","",""
"","feedback","","html-keyboard-response","216","277703","0.0-1.0-303.0-0.0","0","0","60322","","null","","","null","33","","","","","","","","","","","","","","","",""
"","time_out","","html-keyboard-response","217","279704","0.0-1.0-305.0-0.0","0","0","60322","","null","","","null","33","","","","","","","","","","","","","","","",""
"","ITI","","html-keyboard-response","218","280706","0.0-1.0-306.0","0","0","60322","","null","","","null","33","","","","","","","","","","","","","","","NaN",""
"","S1","","html-keyboard-response","219","280959","0.0-1.0-308.0","0","0","60322","","null","","","null","34","","","","","","","","","","","","","","","",""
"","ISI","","html-keyboard-response","220","282961","0.0-1.0-309.0","0","0","60322","","null","","","null","34","NaN","","","","","","","","","","","","","","",""
"","S2","","html-keyboard-response","221","283213","0.0-1.0-310.0","0","0","60322","","null","","","null","34","","NaN","","","","","","","","","","","","","",""
"","response","","html-keyboard-response","222","283845","0.0-1.0-311.0","0","0","60322","","632","","","75","34","","","1","34","training","adjacent","DE","4","5","O.jpg","M.jpg","0","1","0","",""
"","feedback","","html-keyboard-response","223","284849","0.0-1.0-312.0-0.0","0","0","60322","","null","","","null","34","","","","","","","","","","","","","","","",""
"","time_out","","html-keyboard-response","224","286851","0.0-1.0-314.0-0.0","0","0","60322","","null","","","null","34","","","","","","","","","","","","","","","",""
"","ITI","","html-keyboard-response","225","287853","0.0-1.0-315.0","0","0","60322","","null","","","null","34","","","","","","","","","","","","","","","NaN",""
"","S1","","html-keyboard-response","226","288106","0.0-1.0-317.0","0","0","60322","","null","","","null","35","","","","","","","","","","","","","","","",""
"","ISI","","html-keyboard-response","227","290108","0.0-1.0-318.0","0","0","60322","","null","","","null","35","NaN","","","","","","","","","","","","","","",""
"","S2","","html-keyboard-response","228","290361","0.0-1.0-319.0","0","0","60322","","null","","","null","35","","NaN","","","","","","","","","","","","","",""
"","response","","html-keyboard-response","229","291179","0.0-1.0-320.0","0","0","60322","","817","","","75","35","","","1","35","training","adjacent","BC","2","3","R.jpg","L.jpg","0","1","0","",""
"","feedback","","html-keyboard-response","230","292182","0.0-1.0-321.0-0.0","0","0","60322","","null","","","null","35","","","","","","","","","","","","","","","",""
"","time_out","","html-keyboard-response","231","294184","0.0-1.0-323.0-0.0","0","0","60322","","null","","","null","35","","","","","","","","","","","","","","","",""
"","ITI","","html-keyboard-response","232","295186","0.0-1.0-324.0","0","0","60322","","null","","","null","35","","","","","","","","","","","","","","","NaN",""
"","S1","","html-keyboard-response","233","295439","0.0-1.0-326.0","0","0","60322","","null","","","null","36","","","","","","","","","","","","","","","",""
"","ISI","","html-keyboard-response","234","297442","0.0-1.0-327.0","0","0","60322","","null","","","null","36","NaN","","","","","","","","","","","","","","",""
"","S2","","html-keyboard-response","235","297694","0.0-1.0-328.0","0","0","60322","","null","","","null","36","","NaN","","","","","","","","","","","","","",""
"","response","","html-keyboard-response","236","297977","0.0-1.0-329.0","0","0","60322","","282","","","75","36","","","1","36","training","adjacent","GF","7","6","P.jpg","N.jpg","0","0","1","",""
"","feedback","","html-keyboard-response","237","298980","0.0-1.0-330.0-0.0","0","0","60322","","null","","","null","36","","","","","","","","","","","","","","","",""
"","ITI","","html-keyboard-response","238","299982","0.0-1.0-333.0","0","0","60322","","null","","","null","36","","","","","","","","","","","","","","","NaN",""
"","S1","","html-keyboard-response","239","300233","0.0-1.0-335.0","0","0","60322","","null","","","null","37","","","","","","","","","","","","","","","",""
"","ISI","","html-keyboard-response","240","302236","0.0-1.0-336.0","0","0","60322","","null","","","null","37","NaN","","","","","","","","","","","","","","",""
"","S2","","html-keyboard-response","241","302490","0.0-1.0-337.0","0","0","60322","","null","","","null","37","","NaN","","","","","","","","","","","","","",""
"","response","","html-keyboard-response","242","303223","0.0-1.0-338.0","0","0","60322","","731","","","75","37","","","1","37","training","adjacent","CD","3","4","L.jpg","O.jpg","0","1","0","",""
"","feedback","","html-keyboard-response","243","304225","0.0-1.0-339.0-0.0","0","0","60322","","null","","","null","37","","","","","","","","","","","","","","","",""
"","time_out","","html-keyboard-response","244","306226","0.0-1.0-341.0-0.0","0","0","60322","","null","","","null","37","","","","","","","","","","","","","","","",""
"","ITI","","html-keyboard-response","245","307229","0.0-1.0-342.0","0","0","60322","","null","","","null","37","","","","","","","","","","","","","","","NaN",""
"","S1","","html-keyboard-response","246","307483","0.0-1.0-344.0","0","0","60322","","null","","","null","38","","","","","","","","","","","","","","","",""
"","ISI","","html-keyboard-response","247","309485","0.0-1.0-345.0","0","0","60322","","null","","","null","38","NaN","","","","","","","","","","","","","","",""
"","S2","","html-keyboard-response","248","309737","0.0-1.0-346.0","0","0","60322","","null","","","null","38","","NaN","","","","","","","","","","","","","",""
"","response","","html-keyboard-response","249","309995","0.0-1.0-347.0","0","0","60322","","257","","","75","38","","","1","38","training","adjacent","GF","7","6","P.jpg","N.jpg","0","0","1","",""
"","feedback","","html-keyboard-response","250","310997","0.0-1.0-348.0-0.0","0","0","60322","","null","","","null","38","","","","","","","","","","","","","","","",""
"","ITI","","html-keyboard-response","251","311999","0.0-1.0-351.0","0","0","60322","","null","","","null","38","","","","","","","","","","","","","","","NaN",""
"","S1","","html-keyboard-response","252","312252","0.0-1.0-353.0","0","0","60322","","null","","","null","39","","","","","","","","","","","","","","","",""
"","ISI","","html-keyboard-response","253","314254","0.0-1.0-354.0","0","0","60322","","null","","","null","39","NaN","","","","","","","","","","","","","","",""
"","S2","","html-keyboard-response","254","314507","0.0-1.0-355.0","0","0","60322","","null","","","null","39","","NaN","","","","","","","","","","","","","",""
"","response","","html-keyboard-response","255","314933","0.0-1.0-356.0","0","0","60322","","424","","","75","39","","","1","39","training","adjacent","CB","3","2","L.jpg","R.jpg","0","0","1","",""
"","feedback","","html-keyboard-response","256","315935","0.0-1.0-357.0-0.0","0","0","60322","","null","","","null","39","","","","","","","","","","","","","","","",""
"","ITI","","html-keyboard-response","257","316937","0.0-1.0-360.0","0","0","60322","","null","","","null","39","","","","","","","","","","","","","","","NaN",""
"","block_over","","html-keyboard-response","258","320765","0.0-1.0-361.0-0.0","0","0","60322","","3826","","","32","39","","","","","","","","","","","","","","","",""
"","S1","","html-keyboard-response","259","321020","0.0-1.0-362.0","0","0","60322","","null","","","null","40","","","","","","","","","","","","","","","",""
"","ISI","","html-keyboard-response","260","323022","0.0-1.0-363.0","0","0","60322","","null","","","null","40","NaN","","","","","","","","","","","","","","",""
"","S2","","html-keyboard-response","261","323275","0.0-1.0-364.0","0","0","60322","","null","","","null","40","","NaN","","","","","","","","","","","","","",""
"","response","","html-keyboard-response","262","323625","0.0-1.0-365.0","0","0","60322","","348","","","75","40","","","2","40","training","adjacent","BA","2","1","R.jpg","Q.jpg","0","0","1","",""
"","feedback","","html-keyboard-response","263","324627","0.0-1.0-366.0-0.0","0","0","60322","","null","","","null","40","","","","","","","","","","","","","","","",""
"","ITI","","html-keyboard-response","264","325628","0.0-1.0-369.0","0","0","60322","","null","","","null","40","","","","","","","","","","","","","","","NaN",""
"","S1","","html-keyboard-response","265","325880","0.0-1.0-371.0","0","0","60322","","null","","","null","41","","","","","","","","","","","","","","","",""
"","ISI","","html-keyboard-response","266","327882","0.0-1.0-372.0","0","0","60322","","null","","","null","41","NaN","","","","","","","","","","","","","","",""
"","S2","","html-keyboard-response","267","328135","0.0-1.0-373.0","0","0","60322","","null","","","null","41","","NaN","","","","","","","","","","","","","",""
"","response","","html-keyboard-response","268","328987","0.0-1.0-374.0","0","0","60322","","850","","","75","41","","","2","41","training","adjacent","CD","3","4","L.jpg","O.jpg","0","1","0","",""
"","feedback","","html-keyboard-response","269","329989","0.0-1.0-375.0-0.0","0","0","60322","","null","","","null","41","","","","","","","","","","","","","","","",""
"","time_out","","html-keyboard-response","270","331990","0.0-1.0-377.0-0.0","0","0","60322","","null","","","null","41","","","","","","","","","","","","","","","",""
"","ITI","","html-keyboard-response","271","332993","0.0-1.0-378.0","0","0","60322","","null","","","null","41","","","","","","","","","","","","","","","NaN",""
"","S1","","html-keyboard-response","272","333245","0.0-1.0-380.0","0","0","60322","","null","","","null","42","","","","","","","","","","","","","","","",""
"","ISI","","html-keyboard-response","273","335248","0.0-1.0-381.0","0","0","60322","","null","","","null","42","NaN","","","","","","","","","","","","","","",""
"","S2","","html-keyboard-response","274","335502","0.0-1.0-382.0","0","0","60322","","null","","","null","42","","NaN","","","","","","","","","","","","","",""
"","response","","html-keyboard-response","275","335719","0.0-1.0-383.0","0","0","60322","","216","","","75","42","","","2","42","training","adjacent","GF","7","6","P.jpg","N.jpg","0","0","1","",""
"","feedback","","html-keyboard-response","276","336722","0.0-1.0-384.0-0.0","0","0","60322","","null","","","null","42","","","","","","","","","","","","","","","",""
"","ITI","","html-keyboard-response","277","337725","0.0-1.0-387.0","0","0","60322","","null","","","null","42","","","","","","","","","","","","","","","NaN",""
"","S1","","html-keyboard-response","278","337977","0.0-1.0-389.0","0","0","60322","","null","","","null","43","","","","","","","","","","","","","","","",""
"","ISI","","html-keyboard-response","279","339979","0.0-1.0-390.0","0","0","60322","","null","","","null","43","NaN","","","","","","","","","","","","","","",""
"","S2","","html-keyboard-response","280","340232","0.0-1.0-391.0","0","0","60322","","null","","","null","43","","NaN","","","","","","","","","","","","","",""
"","response","","html-keyboard-response","281","340929","0.0-1.0-392.0","0","0","60322","","696","","","75","43","","","2","43","training","adjacent","DC","4","3","O.jpg","L.jpg","0","0","1","",""
"","feedback","","html-keyboard-response","282","341932","0.0-1.0-393.0-0.0","0","0","60322","","null","","","null","43","","","","","","","","","","","","","","","",""
"","ITI","","html-keyboard-response","283","342934","0.0-1.0-396.0","0","0","60322","","null","","","null","43","","","","","","","","","","","","","","","NaN",""
"","S1","","html-keyboard-response","284","343187","0.0-1.0-398.0","0","0","60322","","null","","","null","44","","","","","","","","","","","","","","","",""
"","ISI","","html-keyboard-response","285","345188","0.0-1.0-399.0","0","0","60322","","null","","","null","44","NaN","","","","","","","","","","","","","","",""
"","S2","","html-keyboard-response","286","345446","0.0-1.0-400.0","0","0","60322","","null","","","null","44","","NaN","","","","","","","","","","","","","",""
"","response","","html-keyboard-response","287","346077","0.0-1.0-401.0","0","0","60322","","630","","","68","44","","","2","44","training","adjacent","FE","6","5","N.jpg","M.jpg","1","0","0","",""
"","feedback","","html-keyboard-response","288","347080","0.0-1.0-402.0-0.0","0","0","60322","","null","","","null","44","","","","","","","","","","","","","","","",""
"","time_out","","html-keyboard-response","289","349082","0.0-1.0-404.0-0.0","0","0","60322","","null","","","null","44","","","","","","","","","","","","","","","",""
"","ITI","","html-keyboard-response","290","350085","0.0-1.0-405.0","0","0","60322","","null","","","null","44","","","","","","","","","","","","","","","NaN",""
"","S1","","html-keyboard-response","291","350338","0.0-1.0-407.0","0","0","60322","","null","","","null","45","","","","","","","","","","","","","","","",""
"","ISI","","html-keyboard-response","292","352340","0.0-1.0-408.0","0","0","60322","","null","","","null","45","NaN","","","","","","","","","","","","","","",""
"","S2","","html-keyboard-response","293","352594","0.0-1.0-409.0","0","0","60322","","null","","","null","45","","NaN","","","","","","","","","","","","","",""
"","response","","html-keyboard-response","294","353707","0.0-1.0-410.0","0","0","60322","","1111","","","75","45","","","2","45","training","adjacent","BC","2","3","R.jpg","L.jpg","0","1","0","",""
"","feedback","","html-keyboard-response","295","354709","0.0-1.0-411.0-0.0","0","0","60322","","null","","","null","45","","","","","","","","","","","","","","","",""
"","time_out","","html-keyboard-response","296","356712","0.0-1.0-413.0-0.0","0","0","60322","","null","","","null","45","","","","","","","","","","","","","","","",""
"","ITI","","html-keyboard-response","297","357713","0.0-1.0-414.0","0","0","60322","","null","","","null","45","","","","","","","","","","","","","","","NaN",""
"","S1","","html-keyboard-response","298","357965","0.0-1.0-416.0","0","0","60322","","null","","","null","46","","","","","","","","","","","","","","","",""
"","ISI","","html-keyboard-response","299","359967","0.0-1.0-417.0","0","0","60322","","null","","","null","46","NaN","","","","","","","","","","","","","","",""
"","S2","","html-keyboard-response","300","360219","0.0-1.0-418.0","0","0","60322","","null","","","null","46","","NaN","","","","","","","","","","","","","",""
"","response","","html-keyboard-response","301","360777","0.0-1.0-419.0","0","0","60322","","556","","","75","46","","","2","46","training","adjacent","EF","5","6","M.jpg","N.jpg","0","1","0","",""
"","feedback","","html-keyboard-response","302","361779","0.0-1.0-420.0-0.0","0","0","60322","","null","","","null","46","","","","","","","","","","","","","","","",""
"","time_out","","html-keyboard-response","303","363782","0.0-1.0-422.0-0.0","0","0","60322","","null","","","null","46","","","","","","","","","","","","","","","",""
"","ITI","","html-keyboard-response","304","364783","0.0-1.0-423.0","0","0","60322","","null","","","null","46","","","","","","","","","","","","","","","NaN",""
"","S1","","html-keyboard-response","305","365035","0.0-1.0-425.0","0","0","60322","","null","","","null","47","","","","","","","","","","","","","","","",""
"","ISI","","html-keyboard-response","306","367038","0.0-1.0-426.0","0","0","60322","","null","","","null","47","NaN","","","","","","","","","","","","","","",""
"","S2","","html-keyboard-response","307","367290","0.0-1.0-427.0","0","0","60322","","null","","","null","47","","NaN","","","","","","","","","","","","","",""
"","response","","html-keyboard-response","308","368067","0.0-1.0-428.0","0","0","60322","","775","","","75","47","","","2","47","training","adjacent","EF","5","6","M.jpg","N.jpg","0","1","0","",""
"","feedback","","html-keyboard-response","309","369070","0.0-1.0-429.0-0.0","0","0","60322","","null","","","null","47","","","","","","","","","","","","","","","",""
"","time_out","","html-keyboard-response","310","371072","0.0-1.0-431.0-0.0","0","0","60322","","null","","","null","47","","","","","","","","","","","","","","","",""
"","ITI","","html-keyboard-response","311","372074","0.0-1.0-432.0","0","0","60322","","null","","","null","47","","","","","","","","","","","","","","","NaN",""
"","S1","","html-keyboard-response","312","372327","0.0-1.0-434.0","0","0","60322","","null","","","null","48","","","","","","","","","","","","","","","",""
"","ISI","","html-keyboard-response","313","374329","0.0-1.0-435.0","0","0","60322","","null","","","null","48","NaN","","","","","","","","","","","","","","",""
"","S2","","html-keyboard-response","314","374582","0.0-1.0-436.0","0","0","60322","","null","","","null","48","","NaN","","","","","","","","","","","","","",""
"","response","","html-keyboard-response","315","374889","0.0-1.0-437.0","0","0","60322","","306","","","68","48","","","2","48","training","adjacent","AB","1","2","Q.jpg","R.jpg","1","1","1","",""
"","feedback","","html-keyboard-response","316","375892","0.0-1.0-438.0-0.0","0","0","60322","","null","","","null","48","","","","","","","","","","","","","","","",""
"","ITI","","html-keyboard-response","317","376893","0.0-1.0-441.0","0","0","60322","","null","","","null","48","","","","","","","","","","","","","","","NaN",""
"","S1","","html-keyboard-response","318","377146","0.0-1.0-443.0","0","0","60322","","null","","","null","49","","","","","","","","","","","","","","","",""
"","ISI","","html-keyboard-response","319","379148","0.0-1.0-444.0","0","0","60322","","null","","","null","49","NaN","","","","","","","","","","","","","","",""
"","S2","","html-keyboard-response","320","379401","0.0-1.0-445.0","0","0","60322","","null","","","null","49","","NaN","","","","","","","","","","","","","",""
"","response","","html-keyboard-response","321","379817","0.0-1.0-446.0","0","0","60322","","414","","","68","49","","","2","49","training","adjacent","FG","6","7","N.jpg","P.jpg","1","1","1","",""
"","feedback","","html-keyboard-response","322","380820","0.0-1.0-447.0-0.0","0","0","60322","","null","","","null","49","","","","","","","","","","","","","","","",""
"","ITI","","html-keyboard-response","323","381823","0.0-1.0-450.0","0","0","60322","","null","","","null","49","","","","","","","","","","","","","","","NaN",""
"","S1","","html-keyboard-response","324","382075","0.0-1.0-452.0","0","0","60322","","null","","","null","50","","","","","","","","","","","","","","","",""
"","ISI","","html-keyboard-response","325","384076","0.0-1.0-453.0","0","0","60322","","null","","","null","50","NaN","","","","","","","","","","","","","","",""
"","S2","","html-keyboard-response","326","384329","0.0-1.0-454.0","0","0","60322","","null","","","null","50","","NaN","","","","","","","","","","","","","",""
"","response","","html-keyboard-response","327","384777","0.0-1.0-455.0","0","0","60322","","447","","","68","50","","","2","50","training","adjacent","DE","4","5","O.jpg","M.jpg","1","1","1","",""
"","feedback","","html-keyboard-response","328","385779","0.0-1.0-456.0-0.0","0","0","60322","","null","","","null","50","","","","","","","","","","","","","","","",""
"","ITI","","html-keyboard-response","329","386782","0.0-1.0-459.0","0","0","60322","","null","","","null","50","","","","","","","","","","","","","","","NaN",""
"","S1","","html-keyboard-response","330","387034","0.0-1.0-461.0","0","0","60322","","null","","","null","51","","","","","","","","","","","","","","","",""
"","ISI","","html-keyboard-response","331","389036","0.0-1.0-462.0","0","0","60322","","null","","","null","51","NaN","","","","","","","","","","","","","","",""
"","S2","","html-keyboard-response","332","389289","0.0-1.0-463.0","0","0","60322","","null","","","null","51","","NaN","","","","","","","","","","","","","",""
"","response","","html-keyboard-response","333","389709","0.0-1.0-464.0","0","0","60322","","418","","","68","51","","","2","51","training","adjacent","FG","6","7","N.jpg","P.jpg","1","1","1","",""
"","feedback","","html-keyboard-response","334","390711","0.0-1.0-465.0-0.0","0","0","60322","","null","","","null","51","","","","","","","","","","","","","","","",""
"","ITI","","html-keyboard-response","335","391713","0.0-1.0-468.0","0","0","60322","","null","","","null","51","","","","","","","","","","","","","","","NaN",""
"","S1","","html-keyboard-response","336","391965","0.0-1.0-470.0","0","0","60322","","null","","","null","52","","","","","","","","","","","","","","","",""
"","ISI","","html-keyboard-response","337","393967","0.0-1.0-471.0","0","0","60322","","null","","","null","52","NaN","","","","","","","","","","","","","","",""
"","S2","","html-keyboard-response","338","394219","0.0-1.0-472.0","0","0","60322","","null","","","null","52","","NaN","","","","","","","","","","","","","",""
"","response","","html-keyboard-response","339","395129","0.0-1.0-473.0","0","0","60322","","909","","","68","52","","","2","52","training","adjacent","DE","4","5","O.jpg","M.jpg","1","1","1","",""
"","feedback","","html-keyboard-response","340","396131","0.0-1.0-474.0-0.0","0","0","60322","","null","","","null","52","","","","","","","","","","","","","","","",""
"","ITI","","html-keyboard-response","341","397133","0.0-1.0-477.0","0","0","60322","","null","","","null","52","","","","","","","","","","","","","","","NaN",""
"","S1","","html-keyboard-response","342","397385","0.0-1.0-479.0","0","0","60322","","null","","","null","53","","","","","","","","","","","","","","","",""
"","ISI","","html-keyboard-response","343","399387","0.0-1.0-480.0","0","0","60322","","null","","","null","53","NaN","","","","","","","","","","","","","","",""
"","S2","","html-keyboard-response","344","399639","0.0-1.0-481.0","0","0","60322","","null","","","null","53","","NaN","","","","","","","","","","","","","",""
"","response","","html-keyboard-response","345","400279","0.0-1.0-482.0","0","0","60322","","639","","","75","53","","","2","53","training","adjacent","CB","3","2","L.jpg","R.jpg","0","0","1","",""
"","feedback","","html-keyboard-response","346","401281","0.0-1.0-483.0-0.0","0","0","60322","","null","","","null","53","","","","","","","","","","","","","","","",""
"","ITI","","html-keyboard-response","347","402285","0.0-1.0-486.0","0","0","60322","","null","","","null","53","","","","","","","","","","","","","","","NaN",""
"","S1","","html-keyboard-response","348","402538","0.0-1.0-488.0","0","0","60322","","null","","","null","54","","","","","","","","","","","","","","","",""
"","ISI","","html-keyboard-response","349","404540","0.0-1.0-489.0","0","0","60322","","null","","","null","54","NaN","","","","","","","","","","","","","","",""
"","S2","","html-keyboard-response","350","404794","0.0-1.0-490.0","0","0","60322","","null","","","null","54","","NaN","","","","","","","","","","","","","",""
"","response","","html-keyboard-response","351","405709","0.0-1.0-491.0","0","0","60322","","913","","","75","54","","","2","54","training","adjacent","DC","4","3","O.jpg","L.jpg","0","0","1","",""
"","feedback","","html-keyboard-response","352","406711","0.0-1.0-492.0-0.0","0","0","60322","","null","","","null","54","","","","","","","","","","","","","","","",""
"","ITI","","html-keyboard-response","353","407714","0.0-1.0-495.0","0","0","60322","","null","","","null","54","","","","","","","","","","","","","","","NaN",""
"","S1","","html-keyboard-response","354","407966","0.0-1.0-497.0","0","0","60322","","null","","","null","55","","","","","","","","","","","","","","","",""
"","ISI","","html-keyboard-response","355","409968","0.0-1.0-498.0","0","0","60322","","null","","","null","55","NaN","","","","","","","","","","","","","","",""
"","S2","","html-keyboard-response","356","410220","0.0-1.0-499.0","0","0","60322","","null","","","null","55","","NaN","","","","","","","","","","","","","",""
"","response","","html-keyboard-response","357","411201","0.0-1.0-500.0","0","0","60322","","979","","","75","55","","","2","55","training","adjacent","EF","5","6","M.jpg","N.jpg","0","1","0","",""
"","feedback","","html-keyboard-response","358","412203","0.0-1.0-501.0-0.0","0","0","60322","","null","","","null","55","","","","","","","","","","","","","","","",""
"","time_out","","html-keyboard-response","359","414205","0.0-1.0-503.0-0.0","0","0","60322","","null","","","null","55","","","","","","","","","","","","","","","",""
"","ITI","","html-keyboard-response","360","415207","0.0-1.0-504.0","0","0","60322","","null","","","null","55","","","","","","","","","","","","","","","NaN",""
"","S1","","html-keyboard-response","361","415460","0.0-1.0-506.0","0","0","60322","","null","","","null","56","","","","","","","","","","","","","","","",""
"","ISI","","html-keyboard-response","362","417462","0.0-1.0-507.0","0","0","60322","","null","","","null","56","NaN","","","","","","","","","","","","","","",""
"","S2","","html-keyboard-response","363","417714","0.0-1.0-508.0","0","0","60322","","null","","","null","56","","NaN","","","","","","","","","","","","","",""
"","response","","html-keyboard-response","364","418868","0.0-1.0-509.0","0","0","60322","","1153","","","75","56","","","2","56","training","adjacent","ED","5","4","M.jpg","O.jpg","0","0","1","",""
"","feedback","","html-keyboard-response","365","419870","0.0-1.0-510.0-0.0","0","0","60322","","null","","","null","56","","","","","","","","","","","","","","","",""
"","ITI","","html-keyboard-response","366","420872","0.0-1.0-513.0","0","0","60322","","null","","","null","56","","","","","","","","","","","","","","","NaN",""
"","S1","","html-keyboard-response","367","421124","0.0-1.0-515.0","0","0","60322","","null","","","null","57","","","","","","","","","","","","","","","",""
"","ISI","","html-keyboard-response","368","423126","0.0-1.0-516.0","0","0","60322","","null","","","null","57","NaN","","","","","","","","","","","","","","",""
"","S2","","html-keyboard-response","369","423379","0.0-1.0-517.0","0","0","60322","","null","","","null","57","","NaN","","","","","","","","","","","","","",""
"","response","","html-keyboard-response","370","424081","0.0-1.0-518.0","0","0","60322","","701","","","68","57","","","2","57","training","adjacent","FG","6","7","N.jpg","P.jpg","1","1","1","",""
"","feedback","","html-keyboard-response","371","425089","0.0-1.0-519.0-0.0","0","0","60322","","null","","","null","57","","","","","","","","","","","","","","","",""
"","ITI","","html-keyboard-response","372","426091","0.0-1.0-522.0","0","0","60322","","null","","","null","57","","","","","","","","","","","","","","","NaN",""
"","S1","","html-keyboard-response","373","426344","0.0-1.0-524.0","0","0","60322","","null","","","null","58","","","","","","","","","","","","","","","",""
"","ISI","","html-keyboard-response","374","428345","0.0-1.0-525.0","0","0","60322","","null","","","null","58","NaN","","","","","","","","","","","","","","",""
"","S2","","html-keyboard-response","375","428598","0.0-1.0-526.0","0","0","60322","","null","","","null","58","","NaN","","","","","","","","","","","","","",""
"","response","","html-keyboard-response","376","428874","0.0-1.0-527.0","0","0","60322","","276","","","75","58","","","2","58","training","adjacent","GF","7","6","P.jpg","N.jpg","0","0","1","",""
"","feedback","","html-keyboard-response","377","429876","0.0-1.0-528.0-0.0","0","0","60322","","null","","","null","58","","","","","","","","","","","","","","","",""
"","ITI","","html-keyboard-response","378","430879","0.0-1.0-531.0","0","0","60322","","null","","","null","58","","","","","","","","","","","","","","","NaN",""
"","S1","","html-keyboard-response","379","431132","0.0-1.0-533.0","0","0","60322","","null","","","null","59","","","","","","","","","","","","","","","",""
"","ISI","","html-keyboard-response","380","433134","0.0-1.0-534.0","0","0","60322","","null","","","null","59","NaN","","","","","","","","","","","","","","",""
"","S2","","html-keyboard-response","381","433386","0.0-1.0-535.0","0","0","60322","","null","","","null","59","","NaN","","","","","","","","","","","","","",""
"","response","","html-keyboard-response","382","433717","0.0-1.0-536.0","0","0","60322","","329","","","75","59","","","2","59","training","adjacent","BA","2","1","R.jpg","Q.jpg","0","0","1","",""
"","feedback","","html-keyboard-response","383","434718","0.0-1.0-537.0-0.0","0","0","60322","","null","","","null","59","","","","","","","","","","","","","","","",""
"","ITI","","html-keyboard-response","384","435721","0.0-1.0-540.0","0","0","60322","","null","","","null","59","","","","","","","","","","","","","","","NaN",""
"","S1","","html-keyboard-response","385","435974","0.0-1.0-542.0","0","0","60322","","null","","","null","60","","","","","","","","","","","","","","","",""
"","ISI","","html-keyboard-response","386","437975","0.0-1.0-543.0","0","0","60322","","null","","","null","60","NaN","","","","","","","","","","","","","","",""
"","S2","","html-keyboard-response","387","438228","0.0-1.0-544.0","0","0","60322","","null","","","null","60","","NaN","","","","","","","","","","","","","",""
"","response","","html-keyboard-response","388","438786","0.0-1.0-545.0","0","0","60322","","558","","","68","60","","","2","60","training","adjacent","BC","2","3","R.jpg","L.jpg","1","1","1","",""
"","feedback","","html-keyboard-response","389","439789","0.0-1.0-546.0-0.0","0","0","60322","","null","","","null","60","","","","","","","","","","","","","","","",""
"","ITI","","html-keyboard-response","390","440791","0.0-1.0-549.0","0","0","60322","","null","","","null","60","","","","","","","","","","","","","","","NaN",""
"","S1","","html-keyboard-response","391","441043","0.0-1.0-551.0","0","0","60322","","null","","","null","61","","","","","","","","","","","","","","","",""
"","ISI","","html-keyboard-response","392","443045","0.0-1.0-552.0","0","0","60322","","null","","","null","61","NaN","","","","","","","","","","","","","","",""
"","S2","","html-keyboard-response","393","443299","0.0-1.0-553.0","0","0","60322","","null","","","null","61","","NaN","","","","","","","","","","","","","",""
"","response","","html-keyboard-response","394","444124","0.0-1.0-554.0","0","0","60322","","825","","","68","61","","","2","61","training","adjacent","CD","3","4","L.jpg","O.jpg","1","1","1","",""
"","feedback","","html-keyboard-response","395","445127","0.0-1.0-555.0-0.0","0","0","60322","","null","","","null","61","","","","","","","","","","","","","","","",""
"","ITI","","html-keyboard-response","396","446139","0.0-1.0-558.0","0","0","60322","","null","","","null","61","","","","","","","","","","","","","","","NaN",""
"","S1","","html-keyboard-response","397","446391","0.0-1.0-560.0","0","0","60322","","null","","","null","62","","","","","","","","","","","","","","","",""
"","ISI","","html-keyboard-response","398","448393","0.0-1.0-561.0","0","0","60322","","null","","","null","62","NaN","","","","","","","","","","","","","","",""
"","S2","","html-keyboard-response","399","448645","0.0-1.0-562.0","0","0","60322","","null","","","null","62","","NaN","","","","","","","","","","","","","",""
"","response","","html-keyboard-response","400","449874","0.0-1.0-563.0","0","0","60322","","1228","","","68","62","","","2","62","training","adjacent","ED","5","4","M.jpg","O.jpg","1","0","0","",""
"","feedback","","html-keyboard-response","401","450878","0.0-1.0-564.0-0.0","0","0","60322","","null","","","null","62","","","","","","","","","","","","","","","",""
"","time_out","","html-keyboard-response","402","452880","0.0-1.0-566.0-0.0","0","0","60322","","null","","","null","62","","","","","","","","","","","","","","","",""
"","ITI","","html-keyboard-response","403","453883","0.0-1.0-567.0","0","0","60322","","null","","","null","62","","","","","","","","","","","","","","","NaN",""
"","S1","","html-keyboard-response","404","454135","0.0-1.0-569.0","0","0","60322","","null","","","null","63","","","","","","","","","","","","","","","",""
"","ISI","","html-keyboard-response","405","456138","0.0-1.0-570.0","0","0","60322","","null","","","null","63","NaN","","","","","","","","","","","","","","",""
"","S2","","html-keyboard-response","406","456390","0.0-1.0-571.0","0","0","60322","","null","","","null","63","","NaN","","","","","","","","","","","","","",""
"","response","","html-keyboard-response","407","457148","0.0-1.0-572.0","0","0","60322","","756","","","75","63","","","2","63","training","adjacent","BC","2","3","R.jpg","L.jpg","0","1","0","",""
"","feedback","","html-keyboard-response","408","458150","0.0-1.0-573.0-0.0","0","0","60322","","null","","","null","63","","","","","","","","","","","","","","","",""
"","time_out","","html-keyboard-response","409","460152","0.0-1.0-575.0-0.0","0","0","60322","","null","","","null","63","","","","","","","","","","","","","","","",""
"","ITI","","html-keyboard-response","410","461155","0.0-1.0-576.0","0","0","60322","","null","","","null","63","","","","","","","","","","","","","","","NaN",""
"","S1","","html-keyboard-response","411","461406","0.0-1.0-578.0","0","0","60322","","null","","","null","64","","","","","","","","","","","","","","","",""
"","ISI","","html-keyboard-response","412","463408","0.0-1.0-579.0","0","0","60322","","null","","","null","64","NaN","","","","","","","","","","","","","","",""
"","S2","","html-keyboard-response","413","463661","0.0-1.0-580.0","0","0","60322","","null","","","null","64","","NaN","","","","","","","","","","","","","",""
"","response","","html-keyboard-response","414","464142","0.0-1.0-581.0","0","0","60322","","480","","","75","64","","","2","64","training","adjacent","CB","3","2","L.jpg","R.jpg","0","0","1","",""
"","feedback","","html-keyboard-response","415","465144","0.0-1.0-582.0-0.0","0","0","60322","","null","","","null","64","","","","","","","","","","","","","","","",""
"","ITI","","html-keyboard-response","416","466145","0.0-1.0-585.0","0","0","60322","","null","","","null","64","","","","","","","","","","","","","","","NaN",""
"","S1","","html-keyboard-response","417","466398","0.0-1.0-587.0","0","0","60322","","null","","","null","65","","","","","","","","","","","","","","","",""
"","ISI","","html-keyboard-response","418","468400","0.0-1.0-588.0","0","0","60322","","null","","","null","65","NaN","","","","","","","","","","","","","","",""
"","S2","","html-keyboard-response","419","468652","0.0-1.0-589.0","0","0","60322","","null","","","null","65","","NaN","","","","","","","","","","","","","",""
"","response","","html-keyboard-response","420","469306","0.0-1.0-590.0","0","0","60322","","653","","","68","65","","","2","65","training","adjacent","FE","6","5","N.jpg","M.jpg","1","0","0","",""
"","feedback","","html-keyboard-response","421","470308","0.0-1.0-591.0-0.0","0","0","60322","","null","","","null","65","","","","","","","","","","","","","","","",""
"","time_out","","html-keyboard-response","422","472310","0.0-1.0-593.0-0.0","0","0","60322","","null","","","null","65","","","","","","","","","","","","","","","",""
"","ITI","","html-keyboard-response","423","473312","0.0-1.0-594.0","0","0","60322","","null","","","null","65","","","","","","","","","","","","","","","NaN",""
"","S1","","html-keyboard-response","424","473564","0.0-1.0-596.0","0","0","60322","","null","","","null","66","","","","","","","","","","","","","","","",""
"","ISI","","html-keyboard-response","425","475566","0.0-1.0-597.0","0","0","60322","","null","","","null","66","NaN","","","","","","","","","","","","","","",""
"","S2","","html-keyboard-response","426","475818","0.0-1.0-598.0","0","0","60322","","null","","","null","66","","NaN","","","","","","","","","","","","","",""
"","response","","html-keyboard-response","427","476102","0.0-1.0-599.0","0","0","60322","","282","","","68","66","","","2","66","training","adjacent","AB","1","2","Q.jpg","R.jpg","1","1","1","",""
"","feedback","","html-keyboard-response","428","477104","0.0-1.0-600.0-0.0","0","0","60322","","null","","","null","66","","","","","","","","","","","","","","","",""
"","ITI","","html-keyboard-response","429","478106","0.0-1.0-603.0","0","0","60322","","null","","","null","66","","","","","","","","","","","","","","","NaN",""
"","S1","","html-keyboard-response","430","478359","0.0-1.0-605.0","0","0","60322","","null","","","null","67","","","","","","","","","","","","","","","",""
"","ISI","","html-keyboard-response","431","480360","0.0-1.0-606.0","0","0","60322","","null","","","null","67","NaN","","","","","","","","","","","","","","",""
"","S2","","html-keyboard-response","432","480613","0.0-1.0-607.0","0","0","60322","","null","","","null","67","","NaN","","","","","","","","","","","","","",""
"","response","","html-keyboard-response","433","481248","0.0-1.0-608.0","0","0","60322","","634","","","75","67","","","2","67","training","adjacent","DE","4","5","O.jpg","M.jpg","0","1","0","",""
"","feedback","","html-keyboard-response","434","482250","0.0-1.0-609.0-0.0","0","0","60322","","null","","","null","67","","","","","","","","","","","","","","","",""
"","time_out","","html-keyboard-response","435","484253","0.0-1.0-611.0-0.0","0","0","60322","","null","","","null","67","","","","","","","","","","","","","","","",""
"","ITI","","html-keyboard-response","436","485254","0.0-1.0-612.0","0","0","60322","","null","","","null","67","","","","","","","","","","","","","","","NaN",""
"","S1","","html-keyboard-response","437","485506","0.0-1.0-614.0","0","0","60322","","null","","","null","68","","","","","","","","","","","","","","","",""
"","ISI","","html-keyboard-response","438","487507","0.0-1.0-615.0","0","0","60322","","null","","","null","68","NaN","","","","","","","","","","","","","","",""
"","S2","","html-keyboard-response","439","487760","0.0-1.0-616.0","0","0","60322","","null","","","null","68","","NaN","","","","","","","","","","","","","",""
"","response","","html-keyboard-response","440","488700","0.0-1.0-617.0","0","0","60322","","939","","","68","68","","","2","68","training","adjacent","ED","5","4","M.jpg","O.jpg","1","0","0","",""
"","feedback","","html-keyboard-response","441","489702","0.0-1.0-618.0-0.0","0","0","60322","","null","","","null","68","","","","","","","","","","","","","","","",""
"","time_out","","html-keyboard-response","442","491704","0.0-1.0-620.0-0.0","0","0","60322","","null","","","null","68","","","","","","","","","","","","","","","",""
"","ITI","","html-keyboard-response","443","492706","0.0-1.0-621.0","0","0","60322","","null","","","null","68","","","","","","","","","","","","","","","NaN",""
"","S1","","html-keyboard-response","444","492958","0.0-1.0-623.0","0","0","60322","","null","","","null","69","","","","","","","","","","","","","","","",""
"","ISI","","html-keyboard-response","445","494960","0.0-1.0-624.0","0","0","60322","","null","","","null","69","NaN","","","","","","","","","","","","","","",""
"","S2","","html-keyboard-response","446","495225","0.0-1.0-625.0","0","0","60322","","null","","","null","69","","NaN","","","","","","","","","","","","","",""
"","response","","html-keyboard-response","447","495678","0.0-1.0-626.0","0","0","60322","","451","","","75","69","","","2","69","training","adjacent","CB","3","2","L.jpg","R.jpg","0","0","1","",""
"","feedback","","html-keyboard-response","448","496681","0.0-1.0-627.0-0.0","0","0","60322","","null","","","null","69","","","","","","","","","","","","","","","",""
"","ITI","","html-keyboard-response","449","497684","0.0-1.0-630.0","0","0","60322","","null","","","null","69","","","","","","","","","","","","","","","NaN",""
"","S1","","html-keyboard-response","450","497935","0.0-1.0-632.0","0","0","60322","","null","","","null","70","","","","","","","","","","","","","","","",""
"","ISI","","html-keyboard-response","451","499937","0.0-1.0-633.0","0","0","60322","","null","","","null","70","NaN","","","","","","","","","","","","","","",""
"","S2","","html-keyboard-response","452","500190","0.0-1.0-634.0","0","0","60322","","null","","","null","70","","NaN","","","","","","","","","","","","","",""
"","response","","html-keyboard-response","453","500932","0.0-1.0-635.0","0","0","60322","","741","","","75","70","","","2","70","training","adjacent","CD","3","4","L.jpg","O.jpg","0","1","0","",""
"","feedback","","html-keyboard-response","454","501934","0.0-1.0-636.0-0.0","0","0","60322","","null","","","null","70","","","","","","","","","","","","","","","",""
"","time_out","","html-keyboard-response","455","503935","0.0-1.0-638.0-0.0","0","0","60322","","null","","","null","70","","","","","","","","","","","","","","","",""
"","ITI","","html-keyboard-response","456","504937","0.0-1.0-639.0","0","0","60322","","null","","","null","70","","","","","","","","","","","","","","","NaN",""
"","S1","","html-keyboard-response","457","505190","0.0-1.0-641.0","0","0","60322","","null","","","null","71","","","","","","","","","","","","","","","",""
"","ISI","","html-keyboard-response","458","507193","0.0-1.0-642.0","0","0","60322","","null","","","null","71","NaN","","","","","","","","","","","","","","",""
"","S2","","html-keyboard-response","459","507445","0.0-1.0-643.0","0","0","60322","","null","","","null","71","","NaN","","","","","","","","","","","","","",""
"","response","","html-keyboard-response","460","508034","0.0-1.0-644.0","0","0","60322","","587","","","75","71","","","2","71","training","adjacent","ED","5","4","M.jpg","O.jpg","0","0","1","",""
"","feedback","","html-keyboard-response","461","509037","0.0-1.0-645.0-0.0","0","0","60322","","null","","","null","71","","","","","","","","","","","","","","","",""
"","ITI","","html-keyboard-response","462","510039","0.0-1.0-648.0","0","0","60322","","null","","","null","71","","","","","","","","","","","","","","","NaN",""
"","S1","","html-keyboard-response","463","510292","0.0-1.0-650.0","0","0","60322","","null","","","null","72","","","","","","","","","","","","","","","",""
"","ISI","","html-keyboard-response","464","512294","0.0-1.0-651.0","0","0","60322","","null","","","null","72","NaN","","","","","","","","","","","","","","",""
"","S2","","html-keyboard-response","465","512547","0.0-1.0-652.0","0","0","60322","","null","","","null","72","","NaN","","","","","","","","","","","","","",""
"","response","","html-keyboard-response","466","512686","0.0-1.0-653.0","0","0","60322","","137","","","75","72","","","2","72","training","adjacent","GF","7","6","P.jpg","N.jpg","0","0","1","",""
"","feedback","","html-keyboard-response","467","513688","0.0-1.0-654.0-0.0","0","0","60322","","null","","","null","72","","","","","","","","","","","","","","","",""
"","ITI","","html-keyboard-response","468","514690","0.0-1.0-657.0","0","0","60322","","null","","","null","72","","","","","","","","","","","","","","","NaN",""
"","S1","","html-keyboard-response","469","514942","0.0-1.0-659.0","0","0","60322","","null","","","null","73","","","","","","","","","","","","","","","",""
"","ISI","","html-keyboard-response","470","516944","0.0-1.0-660.0","0","0","60322","","null","","","null","73","NaN","","","","","","","","","","","","","","",""
"","S2","","html-keyboard-response","471","517197","0.0-1.0-661.0","0","0","60322","","null","","","null","73","","NaN","","","","","","","","","","","","","",""
"","response","","html-keyboard-response","472","517712","0.0-1.0-662.0","0","0","60322","","513","","","68","73","","","2","73","training","adjacent","CD","3","4","L.jpg","O.jpg","1","1","1","",""
"","feedback","","html-keyboard-response","473","518714","0.0-1.0-663.0-0.0","0","0","60322","","null","","","null","73","","","","","","","","","","","","","","","",""
"","ITI","","html-keyboard-response","474","519716","0.0-1.0-666.0","0","0","60322","","null","","","null","73","","","","","","","","","","","","","","","NaN",""
"","S1","","html-keyboard-response","475","519969","0.0-1.0-668.0","0","0","60322","","null","","","null","74","","","","","","","","","","","","","","","",""
"","ISI","","html-keyboard-response","476","521971","0.0-1.0-669.0","0","0","60322","","null","","","null","74","NaN","","","","","","","","","","","","","","",""
"","S2","","html-keyboard-response","477","522223","0.0-1.0-670.0","0","0","60322","","null","","","null","74","","NaN","","","","","","","","","","","","","",""
"","response","","html-keyboard-response","478","522284","0.0-1.0-671.0","0","0","60322","","59","","","68","74","","","2","74","training","adjacent","AB","1","2","Q.jpg","R.jpg","1","1","1","",""
"","feedback","","html-keyboard-response","479","523286","0.0-1.0-672.0-0.0","0","0","60322","","null","","","null","74","","","","","","","","","","","","","","","",""
"","ITI","","html-keyboard-response","480","524294","0.0-1.0-675.0","0","0","60322","","null","","","null","74","","","","","","","","","","","","","","","NaN",""
"","S1","","html-keyboard-response","481","524547","0.0-1.0-677.0","0","0","60322","","null","","","null","75","","","","","","","","","","","","","","","",""
"","ISI","","html-keyboard-response","482","526549","0.0-1.0-678.0","0","0","60322","","null","","","null","75","NaN","","","","","","","","","","","","","","",""
"","S2","","html-keyboard-response","483","526802","0.0-1.0-679.0","0","0","60322","","null","","","null","75","","NaN","","","","","","","","","","","","","",""
"","response","","html-keyboard-response","484","527210","0.0-1.0-680.0","0","0","60322","","407","","","75","75","","","2","75","training","adjacent","FE","6","5","N.jpg","M.jpg","0","0","1","",""
"","feedback","","html-keyboard-response","485","528212","0.0-1.0-681.0-0.0","0","0","60322","","null","","","null","75","","","","","","","","","","","","","","","",""
"","ITI","","html-keyboard-response","486","529215","0.0-1.0-684.0","0","0","60322","","null","","","null","75","","","","","","","","","","","","","","","NaN",""
"","S1","","html-keyboard-response","487","529467","0.0-1.0-686.0","0","0","60322","","null","","","null","76","","","","","","","","","","","","","","","",""
"","ISI","","html-keyboard-response","488","531469","0.0-1.0-687.0","0","0","60322","","null","","","null","76","NaN","","","","","","","","","","","","","","",""
"","S2","","html-keyboard-response","489","531722","0.0-1.0-688.0","0","0","60322","","null","","","null","76","","NaN","","","","","","","","","","","","","",""
"","response","","html-keyboard-response","490","532058","0.0-1.0-689.0","0","0","60322","","335","","","75","76","","","2","76","training","adjacent","DC","4","3","O.jpg","L.jpg","0","0","1","",""
"","feedback","","html-keyboard-response","491","533060","0.0-1.0-690.0-0.0","0","0","60322","","null","","","null","76","","","","","","","","","","","","","","","",""
"","ITI","","html-keyboard-response","492","534069","0.0-1.0-693.0","0","0","60322","","null","","","null","76","","","","","","","","","","","","","","","NaN",""
"","S1","","html-keyboard-response","493","534322","0.0-1.0-695.0","0","0","60322","","null","","","null","77","","","","","","","","","","","","","","","",""
"","ISI","","html-keyboard-response","494","536323","0.0-1.0-696.0","0","0","60322","","null","","","null","77","NaN","","","","","","","","","","","","","","",""
"","S2","","html-keyboard-response","495","536576","0.0-1.0-697.0","0","0","60322","","null","","","null","77","","NaN","","","","","","","","","","","","","",""
"","response","","html-keyboard-response","496","536932","0.0-1.0-698.0","0","0","60322","","355","","","75","77","","","2","77","training","adjacent","BA","2","1","R.jpg","Q.jpg","0","0","1","",""
"","feedback","","html-keyboard-response","497","537934","0.0-1.0-699.0-0.0","0","0","60322","","null","","","null","77","","","","","","","","","","","","","","","",""
"","ITI","","html-keyboard-response","498","538935","0.0-1.0-702.0","0","0","60322","","null","","","null","77","","","","","","","","","","","","","","","NaN",""
"","S1","","html-keyboard-response","499","539188","0.0-1.0-704.0","0","0","60322","","null","","","null","78","","","","","","","","","","","","","","","",""
"","ISI","","html-keyboard-response","500","541189","0.0-1.0-705.0","0","0","60322","","null","","","null","78","NaN","","","","","","","","","","","","","","",""
"","S2","","html-keyboard-response","501","541442","0.0-1.0-706.0","0","0","60322","","null","","","null","78","","NaN","","","","","","","","","","","","","",""
"","response","","html-keyboard-response","502","542188","0.0-1.0-707.0","0","0","60322","","745","","","75","78","","","2","78","training","adjacent","DE","4","5","O.jpg","M.jpg","0","1","0","",""
"","feedback","","html-keyboard-response","503","543190","0.0-1.0-708.0-0.0","0","0","60322","","null","","","null","78","","","","","","","","","","","","","","","",""
"","time_out","","html-keyboard-response","504","545192","0.0-1.0-710.0-0.0","0","0","60322","","null","","","null","78","","","","","","","","","","","","","","","",""
"","ITI","","html-keyboard-response","505","546194","0.0-1.0-711.0","0","0","60322","","null","","","null","78","","","","","","","","","","","","","","","NaN",""
"","S1","","html-keyboard-response","506","546446","0.0-1.0-713.0","0","0","60322","","null","","","null","79","","","","","","","","","","","","","","","",""
"","ISI","","html-keyboard-response","507","548447","0.0-1.0-714.0","0","0","60322","","null","","","null","79","NaN","","","","","","","","","","","","","","",""
"","S2","","html-keyboard-response","508","548699","0.0-1.0-715.0","0","0","60322","","null","","","null","79","","NaN","","","","","","","","","","","","","",""
"","response","","html-keyboard-response","509","549230","0.0-1.0-716.0","0","0","60322","","529","","","75","79","","","2","79","training","adjacent","DC","4","3","O.jpg","L.jpg","0","0","1","",""
"","feedback","","html-keyboard-response","510","550233","0.0-1.0-717.0-0.0","0","0","60322","","null","","","null","79","","","","","","","","","","","","","","","",""
"","ITI","","html-keyboard-response","511","551235","0.0-1.0-720.0","0","0","60322","","null","","","null","79","","","","","","","","","","","","","","","NaN",""
"","block_over","","html-keyboard-response","512","560610","0.0-1.0-721.0-0.0","0","0","60322","","9373","","","32","79","","","","","","","","","","","","","","","",""
"","S1","","html-keyboard-response","513","560863","0.0-1.0-722.0","0","0","60322","","null","","","null","80","","","","","","","","","","","","","","","",""
"","ISI","","html-keyboard-response","514","562864","0.0-1.0-723.0","0","0","60322","","null","","","null","80","NaN","","","","","","","","","","","","","","",""
"","S2","","html-keyboard-response","515","563118","0.0-1.0-724.0","0","0","60322","","null","","","null","80","","NaN","","","","","","","","","","","","","",""
"","response","","html-keyboard-response","516","563308","0.0-1.0-725.0","0","0","60322","","189","","","75","80","","","3","80","training","adjacent","GF","7","6","P.jpg","N.jpg","0","0","1","",""
"","feedback","","html-keyboard-response","517","564310","0.0-1.0-726.0-0.0","0","0","60322","","null","","","null","80","","","","","","","","","","","","","","","",""
"","ITI","","html-keyboard-response","518","565313","0.0-1.0-729.0","0","0","60322","","null","","","null","80","","","","","","","","","","","","","","","NaN",""
"","S1","","html-keyboard-response","519","565565","0.0-1.0-731.0","0","0","60322","","null","","","null","81","","","","","","","","","","","","","","","",""
"","ISI","","html-keyboard-response","520","567567","0.0-1.0-732.0","0","0","60322","","null","","","null","81","NaN","","","","","","","","","","","","","","",""
"","S2","","html-keyboard-response","521","567821","0.0-1.0-733.0","0","0","60322","","null","","","null","81","","NaN","","","","","","","","","","","","","",""
"","response","","html-keyboard-response","522","568304","0.0-1.0-734.0","0","0","60322","","482","","","68","81","","","3","81","training","adjacent","FG","6","7","N.jpg","P.jpg","1","1","1","",""
"","feedback","","html-keyboard-response","523","569307","0.0-1.0-735.0-0.0","0","0","60322","","null","","","null","81","","","","","","","","","","","","","","","",""
"","ITI","","html-keyboard-response","524","570309","0.0-1.0-738.0","0","0","60322","","null","","","null","81","","","","","","","","","","","","","","","NaN",""
"","S1","","html-keyboard-response","525","570562","0.0-1.0-740.0","0","0","60322","","null","","","null","82","","","","","","","","","","","","","","","",""
"","ISI","","html-keyboard-response","526","572563","0.0-1.0-741.0","0","0","60322","","null","","","null","82","NaN","","","","","","","","","","","","","","",""
"","S2","","html-keyboard-response","527","572816","0.0-1.0-742.0","0","0","60322","","null","","","null","82","","NaN","","","","","","","","","","","","","",""
"","response","","html-keyboard-response","528","572988","0.0-1.0-743.0","0","0","60322","","170","","","68","82","","","3","82","training","adjacent","AB","1","2","Q.jpg","R.jpg","1","1","1","",""
"","feedback","","html-keyboard-response","529","573990","0.0-1.0-744.0-0.0","0","0","60322","","null","","","null","82","","","","","","","","","","","","","","","",""
"","ITI","","html-keyboard-response","530","574993","0.0-1.0-747.0","0","0","60322","","null","","","null","82","","","","","","","","","","","","","","","NaN",""
"","S1","","html-keyboard-response","531","575245","0.0-1.0-749.0","0","0","60322","","null","","","null","83","","","","","","","","","","","","","","","",""
"","ISI","","html-keyboard-response","532","577248","0.0-1.0-750.0","0","0","60322","","null","","","null","83","NaN","","","","","","","","","","","","","","",""
"","S2","","html-keyboard-response","533","577500","0.0-1.0-751.0","0","0","60322","","null","","","null","83","","NaN","","","","","","","","","","","","","",""
"","response","","html-keyboard-response","534","577718","0.0-1.0-752.0","0","0","60322","","216","","","75","83","","","3","83","training","adjacent","GF","7","6","P.jpg","N.jpg","0","0","1","",""
"","feedback","","html-keyboard-response","535","578721","0.0-1.0-753.0-0.0","0","0","60322","","null","","","null","83","","","","","","","","","","","","","","","",""
"","ITI","","html-keyboard-response","536","579723","0.0-1.0-756.0","0","0","60322","","null","","","null","83","","","","","","","","","","","","","","","NaN",""
"","S1","","html-keyboard-response","537","579976","0.0-1.0-758.0","0","0","60322","","null","","","null","84","","","","","","","","","","","","","","","",""
"","ISI","","html-keyboard-response","538","581978","0.0-1.0-759.0","0","0","60322","","null","","","null","84","NaN","","","","","","","","","","","","","","",""
"","S2","","html-keyboard-response","539","582230","0.0-1.0-760.0","0","0","60322","","null","","","null","84","","NaN","","","","","","","","","","","","","",""
"","response","","html-keyboard-response","540","582672","0.0-1.0-761.0","0","0","60322","","440","","","75","84","","","3","84","training","adjacent","CB","3","2","L.jpg","R.jpg","0","0","1","",""
"","feedback","","html-keyboard-response","541","583673","0.0-1.0-762.0-0.0","0","0","60322","","null","","","null","84","","","","","","","","","","","","","","","",""
"","ITI","","html-keyboard-response","542","584676","0.0-1.0-765.0","0","0","60322","","null","","","null","84","","","","","","","","","","","","","","","NaN",""
"","S1","","html-keyboard-response","543","584928","0.0-1.0-767.0","0","0","60322","","null","","","null","85","","","","","","","","","","","","","","","",""
"","ISI","","html-keyboard-response","544","586930","0.0-1.0-768.0","0","0","60322","","null","","","null","85","NaN","","","","","","","","","","","","","","",""
"","S2","","html-keyboard-response","545","587183","0.0-1.0-769.0","0","0","60322","","null","","","null","85","","NaN","","","","","","","","","","","","","",""
"","response","","html-keyboard-response","546","587794","0.0-1.0-770.0","0","0","60322","","610","","","75","85","","","3","85","training","adjacent","BA","2","1","R.jpg","Q.jpg","0","0","1","",""
"","feedback","","html-keyboard-response","547","588795","0.0-1.0-771.0-0.0","0","0","60322","","null","","","null","85","","","","","","","","","","","","","","","",""
"","ITI","","html-keyboard-response","548","589798","0.0-1.0-774.0","0","0","60322","","null","","","null","85","","","","","","","","","","","","","","","NaN",""
"","S1","","html-keyboard-response","549","590051","0.0-1.0-776.0","0","0","60322","","null","","","null","86","","","","","","","","","","","","","","","",""
"","ISI","","html-keyboard-response","550","592053","0.0-1.0-777.0","0","0","60322","","null","","","null","86","NaN","","","","","","","","","","","","","","",""
"","S2","","html-keyboard-response","551","592305","0.0-1.0-778.0","0","0","60322","","null","","","null","86","","NaN","","","","","","","","","","","","","",""
"","response","","html-keyboard-response","552","592830","0.0-1.0-779.0","0","0","60322","","524","","","75","86","","","3","86","training","adjacent","FE","6","5","N.jpg","M.jpg","0","0","1","",""
"","feedback","","html-keyboard-response","553","593832","0.0-1.0-780.0-0.0","0","0","60322","","null","","","null","86","","","","","","","","","","","","","","","",""
"","ITI","","html-keyboard-response","554","594834","0.0-1.0-783.0","0","0","60322","","null","","","null","86","","","","","","","","","","","","","","","NaN",""
"","S1","","html-keyboard-response","555","595087","0.0-1.0-785.0","0","0","60322","","null","","","null","87","","","","","","","","","","","","","","","",""
"","ISI","","html-keyboard-response","556","597089","0.0-1.0-786.0","0","0","60322","","null","","","null","87","NaN","","","","","","","","","","","","","","",""
"","S2","","html-keyboard-response","557","597342","0.0-1.0-787.0","0","0","60322","","null","","","null","87","","NaN","","","","","","","","","","","","","",""
"","response","","html-keyboard-response","558","597644","0.0-1.0-788.0","0","0","60322","","301","","","68","87","","","3","87","training","adjacent","DC","4","3","O.jpg","L.jpg","1","0","0","",""
"","feedback","","html-keyboard-response","559","598645","0.0-1.0-789.0-0.0","0","0","60322","","null","","","null","87","","","","","","","","","","","","","","","",""
"","time_out","","html-keyboard-response","560","600647","0.0-1.0-791.0-0.0","0","0","60322","","null","","","null","87","","","","","","","","","","","","","","","",""
"","ITI","","html-keyboard-response","561","601649","0.0-1.0-792.0","0","0","60322","","null","","","null","87","","","","","","","","","","","","","","","NaN",""
"","S1","","html-keyboard-response","562","601902","0.0-1.0-794.0","0","0","60322","","null","","","null","88","","","","","","","","","","","","","","","",""
"","ISI","","html-keyboard-response","563","603904","0.0-1.0-795.0","0","0","60322","","null","","","null","88","NaN","","","","","","","","","","","","","","",""
"","S2","","html-keyboard-response","564","604155","0.0-1.0-796.0","0","0","60322","","null","","","null","88","","NaN","","","","","","","","","","","","","",""
"","response","","html-keyboard-response","565","604738","0.0-1.0-797.0","0","0","60322","","581","","","75","88","","","3","88","training","adjacent","FE","6","5","N.jpg","M.jpg","0","0","1","",""
"","feedback","","html-keyboard-response","566","605740","0.0-1.0-798.0-0.0","0","0","60322","","null","","","null","88","","","","","","","","","","","","","","","",""
"","ITI","","html-keyboard-response","567","606742","0.0-1.0-801.0","0","0","60322","","null","","","null","88","","","","","","","","","","","","","","","NaN",""
"","S1","","html-keyboard-response","568","606995","0.0-1.0-803.0","0","0","60322","","null","","","null","89","","","","","","","","","","","","","","","",""
"","ISI","","html-keyboard-response","569","608997","0.0-1.0-804.0","0","0","60322","","null","","","null","89","NaN","","","","","","","","","","","","","","",""
"","S2","","html-keyboard-response","570","609249","0.0-1.0-805.0","0","0","60322","","null","","","null","89","","NaN","","","","","","","","","","","","","",""
"","response","","html-keyboard-response","571","609909","0.0-1.0-806.0","0","0","60322","","659","","","75","89","","","3","89","training","adjacent","CB","3","2","L.jpg","R.jpg","0","0","1","",""
"","feedback","","html-keyboard-response","572","610911","0.0-1.0-807.0-0.0","0","0","60322","","null","","","null","89","","","","","","","","","","","","","","","",""
"","ITI","","html-keyboard-response","573","611913","0.0-1.0-810.0","0","0","60322","","null","","","null","89","","","","","","","","","","","","","","","NaN",""
"","S1","","html-keyboard-response","574","612165","0.0-1.0-812.0","0","0","60322","","null","","","null","90","","","","","","","","","","","","","","","",""
"","ISI","","html-keyboard-response","575","614167","0.0-1.0-813.0","0","0","60322","","null","","","null","90","NaN","","","","","","","","","","","","","","",""
"","S2","","html-keyboard-response","576","614419","0.0-1.0-814.0","0","0","60322","","null","","","null","90","","NaN","","","","","","","","","","","","","",""
"","response","","html-keyboard-response","577","615351","0.0-1.0-815.0","0","0","60322","","931","","","68","90","","","3","90","training","adjacent","EF","5","6","M.jpg","N.jpg","1","1","1","",""
"","feedback","","html-keyboard-response","578","616354","0.0-1.0-816.0-0.0","0","0","60322","","null","","","null","90","","","","","","","","","","","","","","","",""
"","ITI","","html-keyboard-response","579","617355","0.0-1.0-819.0","0","0","60322","","833","","","175","90","","","","","","","","","","","","","","","",""
"","S1","","html-keyboard-response","580","617609","0.0-1.0-821.0","0","0","60322","","null","","","null","91","","","","","","","","","","","","","","","",""
"","ISI","","html-keyboard-response","581","619610","0.0-1.0-822.0","0","0","60322","","null","","","null","91","NaN","","","","","","","","","","","","","","",""
"","S2","","html-keyboard-response","582","619862","0.0-1.0-823.0","0","0","60322","","null","","","null","91","","NaN","","","","","","","","","","","","","",""
"","response","","html-keyboard-response","583","620827","0.0-1.0-824.0","0","0","60322","","964","","","75","91","","","3","91","training","adjacent","DE","4","5","O.jpg","M.jpg","0","1","0","",""
"","feedback","","html-keyboard-response","584","621830","0.0-1.0-825.0-0.0","0","0","60322","","null","","","null","91","","","","","","","","","","","","","","","",""
