"success","ttype","start_time","trial_type","trial_index","time_elapsed","internal_node_id","warning","missed_checkup","PID","view_history","rt","responses","repeat_instructions","key_press","index","keypress_isi","keypress_S2","block","trial_num","phase","group_type","pair_type","S1_stim","S2_stim","S1_img","S2_img","S1_chosen","S1_higher","accuracy","keypress_iti","total_bonus_tally"
"true","full_screen","d08052022hr1555","fullscreen","0","6601","0.0-0.0","0","0","53258","","","","","","","","","","","","","","","","","","","","","",""
"","instructions","","instructions","1","19808","0.0-1.0-0.0-0.0","0","0","53258","[{""page_index"":0,""viewing_time"":2229},{""page_index"":1,""viewing_time"":6336},{""page_index"":2,""viewing_time"":3655},{""page_index"":3,""viewing_time"":984}]","13205","","","","","","","","","","","","","","","","","","","",""
"","comprehension_check","","survey-multi-choice","2","28087","0.0-1.0-0.0-1.0","0","0","53258","","8275","{""Q0"":""True"",""Q1"":""D"",""Q2"":""Only when the screen 'MAKE A CHOICE' is shown"",""Q3"":""Green mark"",""Q4"":""either D or K""}","1","","","","","","","","","","","","","","","","","",""
"","missed_instruction_checkup","","html-keyboard-response","3","29431","0.0-1.0-0.0-2.0-0.0","0","1","53258","","1341","","","32","","","","","","","","","","","","","","","","",""
"","instructions","","instructions","4","42618","0.0-1.0-0.1-0.1","0","0","53258","[{""page_index"":0,""viewing_time"":2214},{""page_index"":1,""viewing_time"":5956},{""page_index"":2,""viewing_time"":4152},{""page_index"":3,""viewing_time"":864}]","13186","","","","","","","","","","","","","","","","","","","",""
"","comprehension_check","","survey-multi-choice","5","52097","0.0-1.0-0.1-1.1","0","0","53258","","9475","{""Q0"":""True"",""Q1"":""D"",""Q2"":""Once the second image appears and while the screen 'MAKE A CHOICE' is shown"",""Q3"":""Green mark"",""Q4"":""either D or K""}","0","","","","","","","","","","","","","","","","","",""
"","start_exp","","html-keyboard-response","6","53049","0.0-1.0-1.0","0","0","53258","","950","","","32","","","","","","","","","","","","","","","","",""
"","S1","","html-keyboard-response","7","53301","0.0-1.0-2.0","0","0","53258","","null","","","null","0","","","","","","","","","","","","","","","",""
"","ISI","","html-keyboard-response","8","55303","0.0-1.0-3.0","0","0","53258","","null","","","null","0","NaN","","","","","","","","","","","","","","",""
"","S2","","html-keyboard-response","9","55555","0.0-1.0-4.0","0","0","53258","","null","","","null","0","","NaN","","","","","","","","","","","","","",""
"","response","","html-keyboard-response","10","55945","0.0-1.0-5.0-0.0","0","0","53258","","389","","","75","0","","","1","0","training","adjacent","FG","6","7","N.jpg","L.jpg","0","1","0","",""
"","feedback","","html-keyboard-response","11","56947","0.0-1.0-6.0-0.0","0","0","53258","","null","","","null","0","","","","","","","","","","","","","","","",""
"","time_out","","html-keyboard-response","12","58949","0.0-1.0-8.0-0.0","0","0","53258","","null","","","null","0","","","","","","","","","","","","","","","",""
"","ITI","","html-keyboard-response","13","59951","0.0-1.0-9.0","0","0","53258","","null","","","null","0","","","","","","","","","","","","","","","NaN",""
"","S1","","html-keyboard-response","14","60203","0.0-1.0-11.0","0","0","53258","","null","","","null","1","","","","","","","","","","","","","","","",""
"","ISI","","html-keyboard-response","15","62205","0.0-1.0-12.0","0","0","53258","","null","","","null","1","NaN","","","","","","","","","","","","","","",""
"","S2","","html-keyboard-response","16","62457","0.0-1.0-13.0","0","0","53258","","null","","","null","1","","NaN","","","","","","","","","","","","","",""
"","response","","html-keyboard-response","17","62809","0.0-1.0-14.0-0.0","0","0","53258","","351","","","68","1","","","1","1","training","adjacent","CB","3","2","P.jpg","M.jpg","1","0","0","",""
"","feedback","","html-keyboard-response","18","63811","0.0-1.0-15.0-0.0","0","0","53258","","null","","","null","1","","","","","","","","","","","","","","","",""
"","time_out","","html-keyboard-response","19","65813","0.0-1.0-17.0-0.0","0","0","53258","","null","","","null","1","","","","","","","","","","","","","","","",""
"","ITI","","html-keyboard-response","20","66815","0.0-1.0-18.0","0","0","53258","","null","","","null","1","","","","","","","","","","","","","","","NaN",""
"","S1","","html-keyboard-response","21","67067","0.0-1.0-20.0","0","0","53258","","null","","","null","2","","","","","","","","","","","","","","","",""
"","ISI","","html-keyboard-response","22","69069","0.0-1.0-21.0","0","0","53258","","null","","","null","2","NaN","","","","","","","","","","","","","","",""
"","S2","","html-keyboard-response","23","69321","0.0-1.0-22.0","0","0","53258","","null","","","null","2","","NaN","","","","","","","","","","","","","",""
"","response","","html-keyboard-response","24","69760","0.0-1.0-23.0-0.0","0","0","53258","","438","","","68","2","","","1","2","training","adjacent","FE","6","5","N.jpg","O.jpg","1","0","0","",""
"","feedback","","html-keyboard-response","25","70762","0.0-1.0-24.0-0.0","0","0","53258","","null","","","null","2","","","","","","","","","","","","","","","",""
"","time_out","","html-keyboard-response","26","72764","0.0-1.0-26.0-0.0","0","0","53258","","null","","","null","2","","","","","","","","","","","","","","","",""
"","ITI","","html-keyboard-response","27","73766","0.0-1.0-27.0","0","0","53258","","null","","","null","2","","","","","","","","","","","","","","","NaN",""
"","S1","","html-keyboard-response","28","74018","0.0-1.0-29.0","0","0","53258","","null","","","null","3","","","","","","","","","","","","","","","",""
"","ISI","","html-keyboard-response","29","76020","0.0-1.0-30.0","0","0","53258","","null","","","null","3","NaN","","","","","","","","","","","","","","",""
"","S2","","html-keyboard-response","30","76272","0.0-1.0-31.0","0","0","53258","","null","","","null","3","","NaN","","","","","","","","","","","","","",""
"","response","","html-keyboard-response","31","76520","0.0-1.0-32.0-0.0","0","0","53258","","247","","","68","3","","","1","3","training","adjacent","BC","2","3","M.jpg","P.jpg","1","1","1","",""
"","feedback","","html-keyboard-response","32","77522","0.0-1.0-33.0-0.0","0","0","53258","","null","","","null","3","","","","","","","","","","","","","","","",""
"","ITI","","html-keyboard-response","33","78524","0.0-1.0-36.0","0","0","53258","","null","","","null","3","","","","","","","","","","","","","","","NaN",""
"","S1","","html-keyboard-response","34","78776","0.0-1.0-38.0","0","0","53258","","null","","","null","4","","","","","","","","","","","","","","","",""
"","ISI","","html-keyboard-response","35","80778","0.0-1.0-39.0","0","0","53258","","null","","","null","4","NaN","","","","","","","","","","","","","","",""
"","S2","","html-keyboard-response","36","81030","0.0-1.0-40.0","0","0","53258","","null","","","null","4","","NaN","","","","","","","","","","","","","",""
"","response","","html-keyboard-response","37","81344","0.0-1.0-41.0-0.0","0","0","53258","","312","","","68","4","","","1","4","training","adjacent","BC","2","3","M.jpg","P.jpg","1","1","1","",""
"","feedback","","html-keyboard-response","38","82346","0.0-1.0-42.0-0.0","0","0","53258","","null","","","null","4","","","","","","","","","","","","","","","",""
"","ITI","","html-keyboard-response","39","83348","0.0-1.0-45.0","0","0","53258","","null","","","null","4","","","","","","","","","","","","","","","NaN",""
"","S1","","html-keyboard-response","40","83600","0.0-1.0-47.0","0","0","53258","","null","","","null","5","","","","","","","","","","","","","","","",""
"","ISI","","html-keyboard-response","41","85602","0.0-1.0-48.0","0","0","53258","","null","","","null","5","NaN","","","","","","","","","","","","","","",""
"","S2","","html-keyboard-response","42","85854","0.0-1.0-49.0","0","0","53258","","null","","","null","5","","NaN","","","","","","","","","","","","","",""
"","response","","html-keyboard-response","43","86079","0.0-1.0-50.0-0.0","0","0","53258","","224","","","68","5","","","1","5","training","adjacent","BC","2","3","M.jpg","P.jpg","1","1","1","",""
"","feedback","","html-keyboard-response","44","87082","0.0-1.0-51.0-0.0","0","0","53258","","null","","","null","5","","","","","","","","","","","","","","","",""
"","ITI","","html-keyboard-response","45","88084","0.0-1.0-54.0","0","0","53258","","null","","","null","5","","","","","","","","","","","","","","","NaN",""
"","S1","","html-keyboard-response","46","88336","0.0-1.0-56.0","0","0","53258","","null","","","null","6","","","","","","","","","","","","","","","",""
"","ISI","","html-keyboard-response","47","90338","0.0-1.0-57.0","0","0","53258","","null","","","null","6","NaN","","","","","","","","","","","","","","",""
"","S2","","html-keyboard-response","48","90590","0.0-1.0-58.0","0","0","53258","","null","","","null","6","","NaN","","","","","","","","","","","","","",""
"","response","","html-keyboard-response","49","90903","0.0-1.0-59.0-0.0","0","0","53258","","312","","","75","6","","","1","6","training","adjacent","CD","3","4","P.jpg","R.jpg","0","1","0","",""
"","feedback","","html-keyboard-response","50","91906","0.0-1.0-60.0-0.0","0","0","53258","","null","","","null","6","","","","","","","","","","","","","","","",""
"","time_out","","html-keyboard-response","51","93908","0.0-1.0-62.0-0.0","0","0","53258","","null","","","null","6","","","","","","","","","","","","","","","",""
"","ITI","","html-keyboard-response","52","94909","0.0-1.0-63.0","0","0","53258","","null","","","null","6","","","","","","","","","","","","","","","NaN",""
"","S1","","html-keyboard-response","53","95162","0.0-1.0-65.0","0","0","53258","","null","","","null","7","","","","","","","","","","","","","","","",""
"","ISI","","html-keyboard-response","54","97168","0.0-1.0-66.0","0","0","53258","","null","","","null","7","NaN","","","","","","","","","","","","","","",""
"","S2","","html-keyboard-response","55","97420","0.0-1.0-67.0","0","0","53258","","null","","","null","7","","NaN","","","","","","","","","","","","","",""
"","response","","html-keyboard-response","56","97834","0.0-1.0-68.0-0.0","0","0","53258","","413","","","75","7","","","1","7","training","adjacent","FG","6","7","N.jpg","L.jpg","0","1","0","",""
"","feedback","","html-keyboard-response","57","98836","0.0-1.0-69.0-0.0","0","0","53258","","null","","","null","7","","","","","","","","","","","","","","","",""
"","time_out","","html-keyboard-response","58","100838","0.0-1.0-71.0-0.0","0","0","53258","","null","","","null","7","","","","","","","","","","","","","","","",""
"","ITI","","html-keyboard-response","59","101840","0.0-1.0-72.0","0","0","53258","","null","","","null","7","","","","","","","","","","","","","","","NaN",""
"","S1","","html-keyboard-response","60","102092","0.0-1.0-74.0","0","0","53258","","null","","","null","8","","","","","","","","","","","","","","","",""
"","ISI","","html-keyboard-response","61","104094","0.0-1.0-75.0","0","0","53258","","null","","","null","8","NaN","","","","","","","","","","","","","","",""
"","S2","","html-keyboard-response","62","104346","0.0-1.0-76.0","0","0","53258","","null","","","null","8","","NaN","","","","","","","","","","","","","",""
"","response","","html-keyboard-response","63","104722","0.0-1.0-77.0-0.0","0","0","53258","","375","","","75","8","","","1","8","training","adjacent","CB","3","2","P.jpg","M.jpg","0","0","1","",""
"","feedback","","html-keyboard-response","64","105724","0.0-1.0-78.0-0.0","0","0","53258","","null","","","null","8","","","","","","","","","","","","","","","",""
"","ITI","","html-keyboard-response","65","106727","0.0-1.0-81.0","0","0","53258","","null","","","null","8","","","","","","","","","","","","","","","NaN",""
"","S1","","html-keyboard-response","66","106978","0.0-1.0-83.0","0","0","53258","","null","","","null","9","","","","","","","","","","","","","","","",""
"","ISI","","html-keyboard-response","67","108980","0.0-1.0-84.0","0","0","53258","","null","","","null","9","NaN","","","","","","","","","","","","","","",""
"","S2","","html-keyboard-response","68","109232","0.0-1.0-85.0","0","0","53258","","null","","","null","9","","NaN","","","","","","","","","","","","","",""
"","response","","html-keyboard-response","69","109698","0.0-1.0-86.0-0.0","0","0","53258","","465","","","75","9","","","1","9","training","adjacent","FE","6","5","N.jpg","O.jpg","0","0","1","",""
"","feedback","","html-keyboard-response","70","110700","0.0-1.0-87.0-0.0","0","0","53258","","null","","","null","9","","","","","","","","","","","","","","","",""
"","ITI","","html-keyboard-response","71","111702","0.0-1.0-90.0","0","0","53258","","null","","","null","9","","","","","","","","","","","","","","","NaN",""
"","S1","","html-keyboard-response","72","111954","0.0-1.0-92.0","0","0","53258","","null","","","null","10","","","","","","","","","","","","","","","",""
"","ISI","","html-keyboard-response","73","113956","0.0-1.0-93.0","0","0","53258","","null","","","null","10","NaN","","","","","","","","","","","","","","",""
"","S2","","html-keyboard-response","74","114208","0.0-1.0-94.0","0","0","53258","","null","","","null","10","","NaN","","","","","","","","","","","","","",""
"","response","","html-keyboard-response","75","114770","0.0-1.0-95.0-0.0","0","0","53258","","561","","","68","10","","","1","10","training","adjacent","AB","1","2","Q.jpg","M.jpg","1","1","1","",""
"","feedback","","html-keyboard-response","76","115772","0.0-1.0-96.0-0.0","0","0","53258","","null","","","null","10","","","","","","","","","","","","","","","",""
"","ITI","","html-keyboard-response","77","116774","0.0-1.0-99.0","0","0","53258","","null","","","null","10","","","","","","","","","","","","","","","NaN",""
"","S1","","html-keyboard-response","78","117026","0.0-1.0-101.0","0","0","53258","","null","","","null","11","","","","","","","","","","","","","","","",""
"","ISI","","html-keyboard-response","79","119028","0.0-1.0-102.0","0","0","53258","","null","","","null","11","NaN","","","","","","","","","","","","","","",""
"","S2","","html-keyboard-response","80","119280","0.0-1.0-103.0","0","0","53258","","null","","","null","11","","NaN","","","","","","","","","","","","","",""
"","response","","html-keyboard-response","81","119409","0.0-1.0-104.0-0.0","0","0","53258","","128","","","68","11","","","1","11","training","adjacent","AB","1","2","Q.jpg","M.jpg","1","1","1","",""
"","feedback","","html-keyboard-response","82","120410","0.0-1.0-105.0-0.0","0","0","53258","","null","","","null","11","","","","","","","","","","","","","","","",""
"","ITI","","html-keyboard-response","83","121412","0.0-1.0-108.0","0","0","53258","","null","","","null","11","","","","","","","","","","","","","","","NaN",""
"","S1","","html-keyboard-response","84","121664","0.0-1.0-110.0","0","0","53258","","null","","","null","12","","","","","","","","","","","","","","","",""
"","ISI","","html-keyboard-response","85","123667","0.0-1.0-111.0","0","0","53258","","null","","","null","12","NaN","","","","","","","","","","","","","","",""
"","S2","","html-keyboard-response","86","123918","0.0-1.0-112.0","0","0","53258","","null","","","null","12","","NaN","","","","","","","","","","","","","",""
"","response","","html-keyboard-response","87","124377","0.0-1.0-113.0-0.0","0","0","53258","","458","","","68","12","","","1","12","training","adjacent","DC","4","3","R.jpg","P.jpg","1","0","0","",""
"","feedback","","html-keyboard-response","88","125378","0.0-1.0-114.0-0.0","0","0","53258","","null","","","null","12","","","","","","","","","","","","","","","",""
"","time_out","","html-keyboard-response","89","127380","0.0-1.0-116.0-0.0","0","0","53258","","null","","","null","12","","","","","","","","","","","","","","","",""
"","ITI","","html-keyboard-response","90","128382","0.0-1.0-117.0","0","0","53258","","null","","","null","12","","","","","","","","","","","","","","","NaN",""
"","S1","","html-keyboard-response","91","128634","0.0-1.0-119.0","0","0","53258","","null","","","null","13","","","","","","","","","","","","","","","",""
"","ISI","","html-keyboard-response","92","130636","0.0-1.0-120.0","0","0","53258","","null","","","null","13","NaN","","","","","","","","","","","","","","",""
"","S2","","html-keyboard-response","93","130888","0.0-1.0-121.0","0","0","53258","","null","","","null","13","","NaN","","","","","","","","","","","","","",""
"","response","","html-keyboard-response","94","131480","0.0-1.0-122.0-0.0","0","0","53258","","591","","","68","13","","","1","13","training","adjacent","CD","3","4","P.jpg","R.jpg","1","1","1","",""
"","feedback","","html-keyboard-response","95","132482","0.0-1.0-123.0-0.0","0","0","53258","","null","","","null","13","","","","","","","","","","","","","","","",""
"","ITI","","html-keyboard-response","96","133484","0.0-1.0-126.0","0","0","53258","","null","","","null","13","","","","","","","","","","","","","","","NaN",""
"","S1","","html-keyboard-response","97","133736","0.0-1.0-128.0","0","0","53258","","null","","","null","14","","","","","","","","","","","","","","","",""
"","ISI","","html-keyboard-response","98","135738","0.0-1.0-129.0","0","0","53258","","null","","","null","14","NaN","","","","","","","","","","","","","","",""
"","S2","","html-keyboard-response","99","135990","0.0-1.0-130.0","0","0","53258","","null","","","null","14","","NaN","","","","","","","","","","","","","",""
"","response","","html-keyboard-response","100","136504","0.0-1.0-131.0-0.0","0","0","53258","","512","","","75","14","","","1","14","training","adjacent","DC","4","3","R.jpg","P.jpg","0","0","1","",""
"","feedback","","html-keyboard-response","101","137506","0.0-1.0-132.0-0.0","0","0","53258","","null","","","null","14","","","","","","","","","","","","","","","",""
"","ITI","","html-keyboard-response","102","138507","0.0-1.0-135.0","0","0","53258","","null","","","null","14","","","","","","","","","","","","","","","NaN",""
"","S1","","html-keyboard-response","103","138759","0.0-1.0-137.0","0","0","53258","","null","","","null","15","","","","","","","","","","","","","","","",""
"","ISI","","html-keyboard-response","104","140761","0.0-1.0-138.0","0","0","53258","","null","","","null","15","NaN","","","","","","","","","","","","","","",""
"","S2","","html-keyboard-response","105","141013","0.0-1.0-139.0","0","0","53258","","null","","","null","15","","NaN","","","","","","","","","","","","","",""
"","response","","html-keyboard-response","106","141336","0.0-1.0-140.0-0.0","0","0","53258","","320","","","68","15","","","1","15","training","adjacent","BA","2","1","M.jpg","Q.jpg","1","0","0","",""
"","feedback","","html-keyboard-response","107","142337","0.0-1.0-141.0-0.0","0","0","53258","","null","","","null","15","","","","","","","","","","","","","","","",""
"","time_out","","html-keyboard-response","108","144339","0.0-1.0-143.0-0.0","0","0","53258","","null","","","null","15","","","","","","","","","","","","","","","",""
"","ITI","","html-keyboard-response","109","145341","0.0-1.0-144.0","0","0","53258","","null","","","null","15","","","","","","","","","","","","","","","NaN",""
"","S1","","html-keyboard-response","110","145593","0.0-1.0-146.0","0","0","53258","","null","","","null","16","","","","","","","","","","","","","","","",""
"","ISI","","html-keyboard-response","111","147595","0.0-1.0-147.0","0","0","53258","","null","","","null","16","NaN","","","","","","","","","","","","","","",""
"","S2","","html-keyboard-response","112","147847","0.0-1.0-148.0","0","0","53258","","null","","","null","16","","NaN","","","","","","","","","","","","","",""
"","response","","html-keyboard-response","113","148296","0.0-1.0-149.0-0.0","0","0","53258","","446","","","68","16","","","1","16","training","adjacent","DE","4","5","R.jpg","O.jpg","1","1","1","",""
"","feedback","","html-keyboard-response","114","149297","0.0-1.0-150.0-0.0","0","0","53258","","null","","","null","16","","","","","","","","","","","","","","","",""
"","ITI","","html-keyboard-response","115","150299","0.0-1.0-153.0","0","0","53258","","null","","","null","16","","","","","","","","","","","","","","","NaN",""
"","S1","","html-keyboard-response","116","150551","0.0-1.0-155.0","0","0","53258","","null","","","null","17","","","","","","","","","","","","","","","",""
"","ISI","","html-keyboard-response","117","152553","0.0-1.0-156.0","0","0","53258","","null","","","null","17","NaN","","","","","","","","","","","","","","",""
"","S2","","html-keyboard-response","118","152805","0.0-1.0-157.0","0","0","53258","","null","","","null","17","","NaN","","","","","","","","","","","","","",""
"","response","","html-keyboard-response","119","153399","0.0-1.0-158.0-0.0","0","0","53258","","593","","","68","17","","","1","17","training","adjacent","CD","3","4","P.jpg","R.jpg","1","1","1","",""
"","feedback","","html-keyboard-response","120","154401","0.0-1.0-159.0-0.0","0","0","53258","","null","","","null","17","","","","","","","","","","","","","","","",""
"","ITI","","html-keyboard-response","121","155403","0.0-1.0-162.0","0","0","53258","","null","","","null","17","","","","","","","","","","","","","","","NaN",""
"","S1","","html-keyboard-response","122","155655","0.0-1.0-164.0","0","0","53258","","null","","","null","18","","","","","","","","","","","","","","","",""
"","ISI","","html-keyboard-response","123","157660","0.0-1.0-165.0","0","0","53258","","null","","","null","18","NaN","","","","","","","","","","","","","","",""
"","S2","","html-keyboard-response","124","157913","0.0-1.0-166.0","0","0","53258","","null","","","null","18","","NaN","","","","","","","","","","","","","",""
"","response","","html-keyboard-response","125","158634","0.0-1.0-167.0-0.0","0","0","53258","","720","","","68","18","","","1","18","training","adjacent","EF","5","6","O.jpg","N.jpg","1","1","1","",""
"","feedback","","html-keyboard-response","126","159636","0.0-1.0-168.0-0.0","0","0","53258","","null","","","null","18","","","","","","","","","","","","","","","",""
"","ITI","","html-keyboard-response","127","160638","0.0-1.0-171.0","0","0","53258","","null","","","null","18","","","","","","","","","","","","","","","NaN",""
"","S1","","html-keyboard-response","128","160891","0.0-1.0-173.0","0","0","53258","","null","","","null","19","","","","","","","","","","","","","","","",""
"","ISI","","html-keyboard-response","129","162892","0.0-1.0-174.0","0","0","53258","","null","","","null","19","NaN","","","","","","","","","","","","","","",""
"","S2","","html-keyboard-response","130","163145","0.0-1.0-175.0","0","0","53258","","null","","","null","19","","NaN","","","","","","","","","","","","","",""
"","response","","html-keyboard-response","131","163753","0.0-1.0-176.0-0.0","0","0","53258","","607","","","68","19","","","1","19","training","adjacent","ED","5","4","O.jpg","R.jpg","1","0","0","",""
"","feedback","","html-keyboard-response","132","164755","0.0-1.0-177.0-0.0","0","0","53258","","null","","","null","19","","","","","","","","","","","","","","","",""
"","time_out","","html-keyboard-response","133","166758","0.0-1.0-179.0-0.0","0","0","53258","","null","","","null","19","","","","","","","","","","","","","","","",""
"","ITI","","html-keyboard-response","134","167759","0.0-1.0-180.0","0","0","53258","","null","","","null","19","","","","","","","","","","","","","","","NaN",""
"","S1","","html-keyboard-response","135","168011","0.0-1.0-182.0","0","0","53258","","null","","","null","20","","","","","","","","","","","","","","","",""
"","ISI","","html-keyboard-response","136","170013","0.0-1.0-183.0","0","0","53258","","null","","","null","20","NaN","","","","","","","","","","","","","","",""
"","S2","","html-keyboard-response","137","170266","0.0-1.0-184.0","0","0","53258","","null","","","null","20","","NaN","","","","","","","","","","","","","",""
"","response","","html-keyboard-response","138","170849","0.0-1.0-185.0-0.0","0","0","53258","","582","","","68","20","","","1","20","training","adjacent","CB","3","2","P.jpg","M.jpg","1","0","0","",""
"","feedback","","html-keyboard-response","139","171851","0.0-1.0-186.0-0.0","0","0","53258","","null","","","null","20","","","","","","","","","","","","","","","",""
"","time_out","","html-keyboard-response","140","173853","0.0-1.0-188.0-0.0","0","0","53258","","null","","","null","20","","","","","","","","","","","","","","","",""
"","ITI","","html-keyboard-response","141","174856","0.0-1.0-189.0","0","0","53258","","null","","","null","20","","","","","","","","","","","","","","","NaN",""
"","S1","","html-keyboard-response","142","175108","0.0-1.0-191.0","0","0","53258","","null","","","null","21","","","","","","","","","","","","","","","",""
"","ISI","","html-keyboard-response","143","177109","0.0-1.0-192.0","0","0","53258","","null","","","null","21","NaN","","","","","","","","","","","","","","",""
"","S2","","html-keyboard-response","144","177361","0.0-1.0-193.0","0","0","53258","","null","","","null","21","","NaN","","","","","","","","","","","","","",""
"","response","","html-keyboard-response","145","177792","0.0-1.0-194.0-0.0","0","0","53258","","429","","","75","21","","","1","21","training","adjacent","EF","5","6","O.jpg","N.jpg","0","1","0","",""
"","feedback","","html-keyboard-response","146","178794","0.0-1.0-195.0-0.0","0","0","53258","","null","","","null","21","","","","","","","","","","","","","","","",""
"","time_out","","html-keyboard-response","147","180796","0.0-1.0-197.0-0.0","0","0","53258","","null","","","null","21","","","","","","","","","","","","","","","",""
"","ITI","","html-keyboard-response","148","181798","0.0-1.0-198.0","0","0","53258","","null","","","null","21","","","","","","","","","","","","","","","NaN",""
"","S1","","html-keyboard-response","149","182050","0.0-1.0-200.0","0","0","53258","","null","","","null","22","","","","","","","","","","","","","","","",""
"","ISI","","html-keyboard-response","150","184052","0.0-1.0-201.0","0","0","53258","","null","","","null","22","NaN","","","","","","","","","","","","","","",""
"","S2","","html-keyboard-response","151","184305","0.0-1.0-202.0","0","0","53258","","null","","","null","22","","NaN","","","","","","","","","","","","","",""
"","response","","html-keyboard-response","152","184624","0.0-1.0-203.0-0.0","0","0","53258","","318","","","68","22","","","1","22","training","adjacent","ED","5","4","O.jpg","R.jpg","1","0","0","",""
"","feedback","","html-keyboard-response","153","185626","0.0-1.0-204.0-0.0","0","0","53258","","null","","","null","22","","","","","","","","","","","","","","","",""
"","time_out","","html-keyboard-response","154","187628","0.0-1.0-206.0-0.0","0","0","53258","","null","","","null","22","","","","","","","","","","","","","","","",""
"","ITI","","html-keyboard-response","155","188630","0.0-1.0-207.0","0","0","53258","","null","","","null","22","","","","","","","","","","","","","","","NaN",""
"","S1","","html-keyboard-response","156","188882","0.0-1.0-209.0","0","0","53258","","null","","","null","23","","","","","","","","","","","","","","","",""
"","ISI","","html-keyboard-response","157","190884","0.0-1.0-210.0","0","0","53258","","null","","","null","23","NaN","","","","","","","","","","","","","","",""
"","S2","","html-keyboard-response","158","191136","0.0-1.0-211.0","0","0","53258","","null","","","null","23","","NaN","","","","","","","","","","","","","",""
"","response","","html-keyboard-response","159","191520","0.0-1.0-212.0-0.0","0","0","53258","","382","","","75","23","","","1","23","training","adjacent","GF","7","6","L.jpg","N.jpg","0","0","1","",""
"","feedback","","html-keyboard-response","160","192521","0.0-1.0-213.0-0.0","0","0","53258","","null","","","null","23","","","","","","","","","","","","","","","",""
"","ITI","","html-keyboard-response","161","193523","0.0-1.0-216.0","0","0","53258","","null","","","null","23","","","","","","","","","","","","","","","NaN",""
"","S1","","html-keyboard-response","162","193775","0.0-1.0-218.0","0","0","53258","","null","","","null","24","","","","","","","","","","","","","","","",""
"","ISI","","html-keyboard-response","163","195777","0.0-1.0-219.0","0","0","53258","","null","","","null","24","NaN","","","","","","","","","","","","","","",""
"","S2","","html-keyboard-response","164","196029","0.0-1.0-220.0","0","0","53258","","null","","","null","24","","NaN","","","","","","","","","","","","","",""
"","response","","html-keyboard-response","165","196455","0.0-1.0-221.0-0.0","0","0","53258","","425","","","68","24","","","1","24","training","adjacent","FG","6","7","N.jpg","L.jpg","1","1","1","",""
"","feedback","","html-keyboard-response","166","197457","0.0-1.0-222.0-0.0","0","0","53258","","null","","","null","24","","","","","","","","","","","","","","","",""
"","ITI","","html-keyboard-response","167","198459","0.0-1.0-225.0","0","0","53258","","null","","","null","24","","","","","","","","","","","","","","","NaN",""
"","S1","","html-keyboard-response","168","198711","0.0-1.0-227.0","0","0","53258","","null","","","null","25","","","","","","","","","","","","","","","",""
"","ISI","","html-keyboard-response","169","200713","0.0-1.0-228.0","0","0","53258","","null","","","null","25","NaN","","","","","","","","","","","","","","",""
"","S2","","html-keyboard-response","170","200965","0.0-1.0-229.0","0","0","53258","","null","","","null","25","","NaN","","","","","","","","","","","","","",""
"","response","","html-keyboard-response","171","201431","0.0-1.0-230.0-0.0","0","0","53258","","465","","","68","25","","","1","25","training","adjacent","BA","2","1","M.jpg","Q.jpg","1","0","0","",""
"","feedback","","html-keyboard-response","172","202433","0.0-1.0-231.0-0.0","0","0","53258","","null","","","null","25","","","","","","","","","","","","","","","",""
"","time_out","","html-keyboard-response","173","204435","0.0-1.0-233.0-0.0","0","0","53258","","null","","","null","25","","","","","","","","","","","","","","","",""
"","ITI","","html-keyboard-response","174","205437","0.0-1.0-234.0","0","0","53258","","null","","","null","25","","","","","","","","","","","","","","","NaN",""
"","S1","","html-keyboard-response","175","205689","0.0-1.0-236.0","0","0","53258","","null","","","null","26","","","","","","","","","","","","","","","",""
"","ISI","","html-keyboard-response","176","207691","0.0-1.0-237.0","0","0","53258","","null","","","null","26","NaN","","","","","","","","","","","","","","",""
"","S2","","html-keyboard-response","177","207943","0.0-1.0-238.0","0","0","53258","","null","","","null","26","","NaN","","","","","","","","","","","","","",""
"","response","","html-keyboard-response","178","208327","0.0-1.0-239.0-0.0","0","0","53258","","382","","","75","26","","","1","26","training","adjacent","DC","4","3","R.jpg","P.jpg","0","0","1","",""
"","feedback","","html-keyboard-response","179","209330","0.0-1.0-240.0-0.0","0","0","53258","","null","","","null","26","","","","","","","","","","","","","","","",""
"","ITI","","html-keyboard-response","180","210332","0.0-1.0-243.0","0","0","53258","","null","","","null","26","","","","","","","","","","","","","","","NaN",""
"","S1","","html-keyboard-response","181","210584","0.0-1.0-245.0","0","0","53258","","null","","","null","27","","","","","","","","","","","","","","","",""
"","ISI","","html-keyboard-response","182","212586","0.0-1.0-246.0","0","0","53258","","null","","","null","27","NaN","","","","","","","","","","","","","","",""
"","S2","","html-keyboard-response","183","212838","0.0-1.0-247.0","0","0","53258","","null","","","null","27","","NaN","","","","","","","","","","","","","",""
"","response","","html-keyboard-response","184","213222","0.0-1.0-248.0-0.0","0","0","53258","","383","","","75","27","","","1","27","training","adjacent","DC","4","3","R.jpg","P.jpg","0","0","1","",""
"","feedback","","html-keyboard-response","185","214224","0.0-1.0-249.0-0.0","0","0","53258","","null","","","null","27","","","","","","","","","","","","","","","",""
"","ITI","","html-keyboard-response","186","215226","0.0-1.0-252.0","0","0","53258","","null","","","null","27","","","","","","","","","","","","","","","NaN",""
"","S1","","html-keyboard-response","187","215478","0.0-1.0-254.0","0","0","53258","","null","","","null","28","","","","","","","","","","","","","","","",""
"","ISI","","html-keyboard-response","188","217480","0.0-1.0-255.0","0","0","53258","","null","","","null","28","NaN","","","","","","","","","","","","","","",""
"","S2","","html-keyboard-response","189","217737","0.0-1.0-256.0","0","0","53258","","null","","","null","28","","NaN","","","","","","","","","","","","","",""
"","response","","html-keyboard-response","190","218259","0.0-1.0-257.0-0.0","0","0","53258","","521","","","68","28","","","1","28","training","adjacent","DE","4","5","R.jpg","O.jpg","1","1","1","",""
"","feedback","","html-keyboard-response","191","219261","0.0-1.0-258.0-0.0","0","0","53258","","null","","","null","28","","","","","","","","","","","","","","","",""
"","ITI","","html-keyboard-response","192","220263","0.0-1.0-261.0","0","0","53258","","null","","","null","28","","","","","","","","","","","","","","","NaN",""
"","S1","","html-keyboard-response","193","220515","0.0-1.0-263.0","0","0","53258","","null","","","null","29","","","","","","","","","","","","","","","",""
"","ISI","","html-keyboard-response","194","222517","0.0-1.0-264.0","0","0","53258","","null","","","null","29","NaN","","","","","","","","","","","","","","",""
"","S2","","html-keyboard-response","195","222768","0.0-1.0-265.0","0","0","53258","","null","","","null","29","","NaN","","","","","","","","","","","","","",""
"","response","","html-keyboard-response","196","222931","0.0-1.0-266.0-0.0","0","0","53258","","161","","","75","29","","","1","29","training","adjacent","GF","7","6","L.jpg","N.jpg","0","0","1","",""
"","feedback","","html-keyboard-response","197","223933","0.0-1.0-267.0-0.0","0","0","53258","","null","","","null","29","","","","","","","","","","","","","","","",""
"","ITI","","html-keyboard-response","198","224934","0.0-1.0-270.0","0","0","53258","","null","","","null","29","","","","","","","","","","","","","","","NaN",""
"","S1","","html-keyboard-response","199","225187","0.0-1.0-272.0","0","0","53258","","null","","","null","30","","","","","","","","","","","","","","","",""
"","ISI","","html-keyboard-response","200","227189","0.0-1.0-273.0","0","0","53258","","null","","","null","30","NaN","","","","","","","","","","","","","","",""
"","S2","","html-keyboard-response","201","227441","0.0-1.0-274.0","0","0","53258","","null","","","null","30","","NaN","","","","","","","","","","","","","",""
"","response","","html-keyboard-response","202","227914","0.0-1.0-275.0-0.0","0","0","53258","","472","","","68","30","","","1","30","training","adjacent","ED","5","4","O.jpg","R.jpg","1","0","0","",""
"","feedback","","html-keyboard-response","203","228915","0.0-1.0-276.0-0.0","0","0","53258","","null","","","null","30","","","","","","","","","","","","","","","",""
"","time_out","","html-keyboard-response","204","230918","0.0-1.0-278.0-0.0","0","0","53258","","null","","","null","30","","","","","","","","","","","","","","","",""
"","ITI","","html-keyboard-response","205","231920","0.0-1.0-279.0","0","0","53258","","null","","","null","30","","","","","","","","","","","","","","","NaN",""
"","S1","","html-keyboard-response","206","232172","0.0-1.0-281.0","0","0","53258","","null","","","null","31","","","","","","","","","","","","","","","",""
"","ISI","","html-keyboard-response","207","234174","0.0-1.0-282.0","0","0","53258","","null","","","null","31","NaN","","","","","","","","","","","","","","",""
"","S2","","html-keyboard-response","208","234425","0.0-1.0-283.0","0","0","53258","","null","","","null","31","","NaN","","","","","","","","","","","","","",""
"","response","","html-keyboard-response","209","234818","0.0-1.0-284.0-0.0","0","0","53258","","391","","","68","31","","","1","31","training","adjacent","AB","1","2","Q.jpg","M.jpg","1","1","1","",""
"","feedback","","html-keyboard-response","210","235820","0.0-1.0-285.0-0.0","0","0","53258","","null","","","null","31","","","","","","","","","","","","","","","",""
"","ITI","","html-keyboard-response","211","236822","0.0-1.0-288.0","0","0","53258","","null","","","null","31","","","","","","","","","","","","","","","NaN",""
"","S1","","html-keyboard-response","212","237074","0.0-1.0-290.0","0","0","53258","","null","","","null","32","","","","","","","","","","","","","","","",""
"","ISI","","html-keyboard-response","213","239075","0.0-1.0-291.0","0","0","53258","","null","","","null","32","NaN","","","","","","","","","","","","","","",""
"","S2","","html-keyboard-response","214","239328","0.0-1.0-292.0","0","0","53258","","null","","","null","32","","NaN","","","","","","","","","","","","","",""
"","response","","html-keyboard-response","215","239673","0.0-1.0-293.0-0.0","0","0","53258","","344","","","75","32","","","1","32","training","adjacent","EF","5","6","O.jpg","N.jpg","0","1","0","",""
"","feedback","","html-keyboard-response","216","240675","0.0-1.0-294.0-0.0","0","0","53258","","null","","","null","32","","","","","","","","","","","","","","","",""
"","time_out","","html-keyboard-response","217","242677","0.0-1.0-296.0-0.0","0","0","53258","","null","","","null","32","","","","","","","","","","","","","","","",""
"","ITI","","html-keyboard-response","218","243680","0.0-1.0-297.0","0","0","53258","","null","","","null","32","","","","","","","","","","","","","","","NaN",""
"","S1","","html-keyboard-response","219","243932","0.0-1.0-299.0","0","0","53258","","null","","","null","33","","","","","","","","","","","","","","","",""
"","ISI","","html-keyboard-response","220","245933","0.0-1.0-300.0","0","0","53258","","null","","","null","33","NaN","","","","","","","","","","","","","","",""
"","S2","","html-keyboard-response","221","246185","0.0-1.0-301.0","0","0","53258","","null","","","null","33","","NaN","","","","","","","","","","","","","",""
"","response","","html-keyboard-response","222","246425","0.0-1.0-302.0-0.0","0","0","53258","","238","","","68","33","","","1","33","training","adjacent","AB","1","2","Q.jpg","M.jpg","1","1","1","",""
"","feedback","","html-keyboard-response","223","247427","0.0-1.0-303.0-0.0","0","0","53258","","null","","","null","33","","","","","","","","","","","","","","","",""
"","ITI","","html-keyboard-response","224","248428","0.0-1.0-306.0","0","0","53258","","null","","","null","33","","","","","","","","","","","","","","","NaN",""
"","S1","","html-keyboard-response","225","248681","0.0-1.0-308.0","0","0","53258","","null","","","null","34","","","","","","","","","","","","","","","",""
"","ISI","","html-keyboard-response","226","250682","0.0-1.0-309.0","0","0","53258","","null","","","null","34","NaN","","","","","","","","","","","","","","",""
"","S2","","html-keyboard-response","227","250934","0.0-1.0-310.0","0","0","53258","","null","","","null","34","","NaN","","","","","","","","","","","","","",""
"","response","","html-keyboard-response","228","251265","0.0-1.0-311.0-0.0","0","0","53258","","328","","","68","34","","","1","34","training","adjacent","FE","6","5","N.jpg","O.jpg","1","0","0","",""
"","feedback","","html-keyboard-response","229","252266","0.0-1.0-312.0-0.0","0","0","53258","","null","","","null","34","","","","","","","","","","","","","","","",""
"","time_out","","html-keyboard-response","230","254268","0.0-1.0-314.0-0.0","0","0","53258","","null","","","null","34","","","","","","","","","","","","","","","",""
"","ITI","","html-keyboard-response","231","255270","0.0-1.0-315.0","0","0","53258","","null","","","null","34","","","","","","","","","","","","","","","NaN",""
"","S1","","html-keyboard-response","232","255522","0.0-1.0-317.0","0","0","53258","","null","","","null","35","","","","","","","","","","","","","","","",""
"","ISI","","html-keyboard-response","233","257524","0.0-1.0-318.0","0","0","53258","","null","","","null","35","NaN","","","","","","","","","","","","","","",""
"","S2","","html-keyboard-response","234","257777","0.0-1.0-319.0","0","0","53258","","null","","","null","35","","NaN","","","","","","","","","","","","","",""
"","response","","html-keyboard-response","235","258360","0.0-1.0-320.0-0.0","0","0","53258","","582","","","75","35","","","1","35","training","adjacent","CB","3","2","P.jpg","M.jpg","0","0","1","",""
"","feedback","","html-keyboard-response","236","259362","0.0-1.0-321.0-0.0","0","0","53258","","null","","","null","35","","","","","","","","","","","","","","","",""
"","ITI","","html-keyboard-response","237","260364","0.0-1.0-324.0","0","0","53258","","null","","","null","35","","","","","","","","","","","","","","","NaN",""
"","S1","","html-keyboard-response","238","260616","0.0-1.0-326.0","0","0","53258","","null","","","null","36","","","","","","","","","","","","","","","",""
"","ISI","","html-keyboard-response","239","262618","0.0-1.0-327.0","0","0","53258","","null","","","null","36","NaN","","","","","","","","","","","","","","",""
"","S2","","html-keyboard-response","240","262870","0.0-1.0-328.0","0","0","53258","","null","","","null","36","","NaN","","","","","","","","","","","","","",""
"","response","","html-keyboard-response","241","263344","0.0-1.0-329.0-0.0","0","0","53258","","473","","","68","36","","","1","36","training","adjacent","BC","2","3","M.jpg","P.jpg","1","1","1","",""
"","feedback","","html-keyboard-response","242","264346","0.0-1.0-330.0-0.0","0","0","53258","","null","","","null","36","","","","","","","","","","","","","","","",""
"","ITI","","html-keyboard-response","243","265348","0.0-1.0-333.0","0","0","53258","","null","","","null","36","","","","","","","","","","","","","","","NaN",""
"","S1","","html-keyboard-response","244","265600","0.0-1.0-335.0","0","0","53258","","null","","","null","37","","","","","","","","","","","","","","","",""
"","ISI","","html-keyboard-response","245","267602","0.0-1.0-336.0","0","0","53258","","null","","","null","37","NaN","","","","","","","","","","","","","","",""
"","S2","","html-keyboard-response","246","267854","0.0-1.0-337.0","0","0","53258","","null","","","null","37","","NaN","","","","","","","","","","","","","",""
"","response","","html-keyboard-response","247","268095","0.0-1.0-338.0-0.0","0","0","53258","","240","","","68","37","","","1","37","training","adjacent","FE","6","5","N.jpg","O.jpg","1","0","0","",""
"","feedback","","html-keyboard-response","248","269097","0.0-1.0-339.0-0.0","0","0","53258","","null","","","null","37","","","","","","","","","","","","","","","",""
"","time_out","","html-keyboard-response","249","271099","0.0-1.0-341.0-0.0","0","0","53258","","null","","","null","37","","","","","","","","","","","","","","","",""
"","ITI","","html-keyboard-response","250","272101","0.0-1.0-342.0","0","0","53258","","null","","","null","37","","","","","","","","","","","","","","","NaN",""
"","S1","","html-keyboard-response","251","272353","0.0-1.0-344.0","0","0","53258","","null","","","null","38","","","","","","","","","","","","","","","",""
"","ISI","","html-keyboard-response","252","274355","0.0-1.0-345.0","0","0","53258","","null","","","null","38","NaN","","","","","","","","","","","","","","",""
"","S2","","html-keyboard-response","253","274607","0.0-1.0-346.0","0","0","53258","","null","","","null","38","","NaN","","","","","","","","","","","","","",""
"","response","","html-keyboard-response","254","275344","0.0-1.0-347.0-0.0","0","0","53258","","734","","","68","38","","","1","38","training","adjacent","BA","2","1","M.jpg","Q.jpg","1","0","0","",""
"","feedback","","html-keyboard-response","255","276346","0.0-1.0-348.0-0.0","0","0","53258","","null","","","null","38","","","","","","","","","","","","","","","",""
"","time_out","","html-keyboard-response","256","278352","0.0-1.0-350.0-0.0","0","0","53258","","null","","","null","38","","","","","","","","","","","","","","","",""
"","ITI","","html-keyboard-response","257","279354","0.0-1.0-351.0","0","0","53258","","null","","","null","38","","","","","","","","","","","","","","","NaN",""
"","S1","","html-keyboard-response","258","279606","0.0-1.0-353.0","0","0","53258","","null","","","null","39","","","","","","","","","","","","","","","",""
"","ISI","","html-keyboard-response","259","281608","0.0-1.0-354.0","0","0","53258","","null","","","null","39","NaN","","","","","","","","","","","","","","",""
"","S2","","html-keyboard-response","260","281860","0.0-1.0-355.0","0","0","53258","","null","","","null","39","","NaN","","","","","","","","","","","","","",""
"","response","","html-keyboard-response","261","281938","0.0-1.0-356.0-0.0","0","0","53258","","76","","","75","39","","","1","39","training","adjacent","GF","7","6","L.jpg","N.jpg","0","0","1","",""
"","feedback","","html-keyboard-response","262","282940","0.0-1.0-357.0-0.0","0","0","53258","","null","","","null","39","","","","","","","","","","","","","","","",""
"","ITI","","html-keyboard-response","263","283942","0.0-1.0-360.0","0","0","53258","","null","","","null","39","","","","","","","","","","","","","","","NaN",""
"","S1","","html-keyboard-response","264","284194","0.0-1.0-362.0","0","0","53258","","null","","","null","40","","","","","","","","","","","","","","","",""
"","ISI","","html-keyboard-response","265","286196","0.0-1.0-363.0","0","0","53258","","null","","","null","40","NaN","","","","","","","","","","","","","","",""
"","S2","","html-keyboard-response","266","286448","0.0-1.0-364.0","0","0","53258","","null","","","null","40","","NaN","","","","","","","","","","","","","",""
"","response","","html-keyboard-response","267","286770","0.0-1.0-365.0-0.0","0","0","53258","","321","","","68","40","","","1","40","training","adjacent","EF","5","6","O.jpg","N.jpg","1","1","1","",""
"","feedback","","html-keyboard-response","268","287773","0.0-1.0-366.0-0.0","0","0","53258","","null","","","null","40","","","","","","","","","","","","","","","",""
"","ITI","","html-keyboard-response","269","288775","0.0-1.0-369.0","0","0","53258","","null","","","null","40","","","","","","","","","","","","","","","NaN",""
"","S1","","html-keyboard-response","270","289027","0.0-1.0-371.0","0","0","53258","","null","","","null","41","","","","","","","","","","","","","","","",""
"","ISI","","html-keyboard-response","271","291029","0.0-1.0-372.0","0","0","53258","","null","","","null","41","NaN","","","","","","","","","","","","","","",""
"","S2","","html-keyboard-response","272","291281","0.0-1.0-373.0","0","0","53258","","null","","","null","41","","NaN","","","","","","","","","","","","","",""
"","response","","html-keyboard-response","273","291746","0.0-1.0-374.0-0.0","0","0","53258","","464","","","68","41","","","1","41","training","adjacent","FG","6","7","N.jpg","L.jpg","1","1","1","",""
"","feedback","","html-keyboard-response","274","292748","0.0-1.0-375.0-0.0","0","0","53258","","null","","","null","41","","","","","","","","","","","","","","","",""
"","ITI","","html-keyboard-response","275","293750","0.0-1.0-378.0","0","0","53258","","null","","","null","41","","","","","","","","","","","","","","","NaN",""
"","S1","","html-keyboard-response","276","294002","0.0-1.0-380.0","0","0","53258","","null","","","null","42","","","","","","","","","","","","","","","",""
"","ISI","","html-keyboard-response","277","296004","0.0-1.0-381.0","0","0","53258","","null","","","null","42","NaN","","","","","","","","","","","","","","",""
"","S2","","html-keyboard-response","278","296256","0.0-1.0-382.0","0","0","53258","","null","","","null","42","","NaN","","","","","","","","","","","","","",""
"","response","","html-keyboard-response","279","296441","0.0-1.0-383.0-0.0","0","0","53258","","184","","","68","42","","","1","42","training","adjacent","CD","3","4","P.jpg","R.jpg","1","1","1","",""
"","feedback","","html-keyboard-response","280","297443","0.0-1.0-384.0-0.0","0","0","53258","","null","","","null","42","","","","","","","","","","","","","","","",""
"","ITI","","html-keyboard-response","281","298445","0.0-1.0-387.0","0","0","53258","","null","","","null","42","","","","","","","","","","","","","","","NaN",""
"","S1","","html-keyboard-response","282","298697","0.0-1.0-389.0","0","0","53258","","null","","","null","43","","","","","","","","","","","","","","","",""
"","ISI","","html-keyboard-response","283","300699","0.0-1.0-390.0","0","0","53258","","null","","","null","43","NaN","","","","","","","","","","","","","","",""
"","S2","","html-keyboard-response","284","300951","0.0-1.0-391.0","0","0","53258","","null","","","null","43","","NaN","","","","","","","","","","","","","",""
"","response","","html-keyboard-response","285","301233","0.0-1.0-392.0-0.0","0","0","53258","","280","","","68","43","","","1","43","training","adjacent","ED","5","4","O.jpg","R.jpg","1","0","0","",""
"","feedback","","html-keyboard-response","286","302235","0.0-1.0-393.0-0.0","0","0","53258","","null","","","null","43","","","","","","","","","","","","","","","",""
"","time_out","","html-keyboard-response","287","304237","0.0-1.0-395.0-0.0","0","0","53258","","null","","","null","43","","","","","","","","","","","","","","","",""
"","ITI","","html-keyboard-response","288","305239","0.0-1.0-396.0","0","0","53258","","null","","","null","43","","","","","","","","","","","","","","","NaN",""
"","S1","","html-keyboard-response","289","305491","0.0-1.0-398.0","0","0","53258","","null","","","null","44","","","","","","","","","","","","","","","",""
"","ISI","","html-keyboard-response","290","307493","0.0-1.0-399.0","0","0","53258","","null","","","null","44","NaN","","","","","","","","","","","","","","",""
"","S2","","html-keyboard-response","291","307745","0.0-1.0-400.0","0","0","53258","","null","","","null","44","","NaN","","","","","","","","","","","","","",""
"","response","","html-keyboard-response","292","307977","0.0-1.0-401.0-0.0","0","0","53258","","231","","","75","44","","","1","44","training","adjacent","DE","4","5","R.jpg","O.jpg","0","1","0","",""
"","feedback","","html-keyboard-response","293","308979","0.0-1.0-402.0-0.0","0","0","53258","","null","","","null","44","","","","","","","","","","","","","","","",""
"","time_out","","html-keyboard-response","294","310981","0.0-1.0-404.0-0.0","0","0","53258","","null","","","null","44","","","","","","","","","","","","","","","",""
"","ITI","","html-keyboard-response","295","311983","0.0-1.0-405.0","0","0","53258","","null","","","null","44","","","","","","","","","","","","","","","NaN",""
"","S1","","html-keyboard-response","296","312235","0.0-1.0-407.0","0","0","53258","","null","","","null","45","","","","","","","","","","","","","","","",""
"","ISI","","html-keyboard-response","297","314237","0.0-1.0-408.0","0","0","53258","","null","","","null","45","NaN","","","","","","","","","","","","","","",""
"","S2","","html-keyboard-response","298","314489","0.0-1.0-409.0","0","0","53258","","null","","","null","45","","NaN","","","","","","","","","","","","","",""
"","response","","html-keyboard-response","299","314848","0.0-1.0-410.0-0.0","0","0","53258","","359","","","68","45","","","1","45","training","adjacent","DE","4","5","R.jpg","O.jpg","1","1","1","",""
"","feedback","","html-keyboard-response","300","315851","0.0-1.0-411.0-0.0","0","0","53258","","null","","","null","45","","","","","","","","","","","","","","","",""
"","ITI","","html-keyboard-response","301","316853","0.0-1.0-414.0","0","0","53258","","null","","","null","45","","","","","","","","","","","","","","","NaN",""
"","S1","","html-keyboard-response","302","317105","0.0-1.0-416.0","0","0","53258","","null","","","null","46","","","","","","","","","","","","","","","",""
"","ISI","","html-keyboard-response","303","319107","0.0-1.0-417.0","0","0","53258","","null","","","null","46","NaN","","","","","","","","","","","","","","",""
"","S2","","html-keyboard-response","304","319358","0.0-1.0-418.0","0","0","53258","","null","","","null","46","","NaN","","","","","","","","","","","","","",""
"","response","","html-keyboard-response","305","319736","0.0-1.0-419.0-0.0","0","0","53258","","376","","","75","46","","","1","46","training","adjacent","BA","2","1","M.jpg","Q.jpg","0","0","1","",""
"","feedback","","html-keyboard-response","306","320738","0.0-1.0-420.0-0.0","0","0","53258","","null","","","null","46","","","","","","","","","","","","","","","",""
"","ITI","","html-keyboard-response","307","321741","0.0-1.0-423.0","0","0","53258","","null","","","null","46","","","","","","","","","","","","","","","NaN",""
"","S1","","html-keyboard-response","308","321993","0.0-1.0-425.0","0","0","53258","","null","","","null","47","","","","","","","","","","","","","","","",""
"","ISI","","html-keyboard-response","309","323995","0.0-1.0-426.0","0","0","53258","","null","","","null","47","NaN","","","","","","","","","","","","","","",""
"","S2","","html-keyboard-response","310","324247","0.0-1.0-427.0","0","0","53258","","null","","","null","47","","NaN","","","","","","","","","","","","","",""
"","response","","html-keyboard-response","311","324743","0.0-1.0-428.0-0.0","0","0","53258","","495","","","75","47","","","1","47","training","adjacent","GF","7","6","L.jpg","N.jpg","0","0","1","",""
"","feedback","","html-keyboard-response","312","325746","0.0-1.0-429.0-0.0","0","0","53258","","null","","","null","47","","","","","","","","","","","","","","","",""
"","ITI","","html-keyboard-response","313","326748","0.0-1.0-432.0","0","0","53258","","null","","","null","47","","","","","","","","","","","","","","","NaN",""
"","block_over","","html-keyboard-response","314","329895","0.0-1.0-433.0-0.0","0","0","53258","","3147","","","32","47","","","","","","","","","","","","","","","",""
"","S1","","html-keyboard-response","315","330148","0.0-1.0-434.0","0","0","53258","","null","","","null","48","","","","","","","","","","","","","","","",""
"","ISI","","html-keyboard-response","316","332150","0.0-1.0-435.0","0","0","53258","","null","","","null","48","NaN","","","","","","","","","","","","","","",""
"","S2","","html-keyboard-response","317","332402","0.0-1.0-436.0","0","0","53258","","null","","","null","48","","NaN","","","","","","","","","","","","","",""
"","response","","html-keyboard-response","318","332695","0.0-1.0-437.0-0.0","0","0","53258","","292","","","75","48","","","2","48","training","adjacent","GF","7","6","L.jpg","N.jpg","0","0","1","",""
"","feedback","","html-keyboard-response","319","333696","0.0-1.0-438.0-0.0","0","0","53258","","null","","","null","48","","","","","","","","","","","","","","","",""
"","ITI","","html-keyboard-response","320","334698","0.0-1.0-441.0","0","0","53258","","null","","","null","48","","","","","","","","","","","","","","","NaN",""
"","S1","","html-keyboard-response","321","334951","0.0-1.0-443.0","0","0","53258","","null","","","null","49","","","","","","","","","","","","","","","",""
"","ISI","","html-keyboard-response","322","336952","0.0-1.0-444.0","0","0","53258","","null","","","null","49","NaN","","","","","","","","","","","","","","",""
"","S2","","html-keyboard-response","323","337205","0.0-1.0-445.0","0","0","53258","","null","","","null","49","","NaN","","","","","","","","","","","","","",""
"","response","","html-keyboard-response","324","337702","0.0-1.0-446.0-0.0","0","0","53258","","496","","","68","49","","","2","49","training","adjacent","CD","3","4","P.jpg","R.jpg","1","1","1","",""
"","feedback","","html-keyboard-response","325","338708","0.0-1.0-447.0-0.0","0","0","53258","","null","","","null","49","","","","","","","","","","","","","","","",""
"","ITI","","html-keyboard-response","326","339710","0.0-1.0-450.0","0","0","53258","","null","","","null","49","","","","","","","","","","","","","","","NaN",""
"","S1","","html-keyboard-response","327","339962","0.0-1.0-452.0","0","0","53258","","null","","","null","50","","","","","","","","","","","","","","","",""
"","ISI","","html-keyboard-response","328","341963","0.0-1.0-453.0","0","0","53258","","null","","","null","50","NaN","","","","","","","","","","","","","","",""
"","S2","","html-keyboard-response","329","342215","0.0-1.0-454.0","0","0","53258","","null","","","null","50","","NaN","","","","","","","","","","","","","",""
"","response","","html-keyboard-response","330","342474","0.0-1.0-455.0-0.0","0","0","53258","","258","","","68","50","","","2","50","training","adjacent","DE","4","5","R.jpg","O.jpg","1","1","1","",""
"","feedback","","html-keyboard-response","331","343477","0.0-1.0-456.0-0.0","0","0","53258","","null","","","null","50","","","","","","","","","","","","","","","",""
"","ITI","","html-keyboard-response","332","344479","0.0-1.0-459.0","0","0","53258","","null","","","null","50","","","","","","","","","","","","","","","NaN",""
"","S1","","html-keyboard-response","333","344731","0.0-1.0-461.0","0","0","53258","","null","","","null","51","","","","","","","","","","","","","","","",""
"","ISI","","html-keyboard-response","334","346733","0.0-1.0-462.0","0","0","53258","","null","","","null","51","NaN","","","","","","","","","","","","","","",""
"","S2","","html-keyboard-response","335","346985","0.0-1.0-463.0","0","0","53258","","null","","","null","51","","NaN","","","","","","","","","","","","","",""
"","response","","html-keyboard-response","336","347537","0.0-1.0-464.0-0.0","0","0","53258","","551","","","75","51","","","2","51","training","adjacent","BA","2","1","M.jpg","Q.jpg","0","0","1","",""
"","feedback","","html-keyboard-response","337","348540","0.0-1.0-465.0-0.0","0","0","53258","","null","","","null","51","","","","","","","","","","","","","","","",""
"","ITI","","html-keyboard-response","338","349542","0.0-1.0-468.0","0","0","53258","","null","","","null","51","","","","","","","","","","","","","","","NaN",""
"","S1","","html-keyboard-response","339","349794","0.0-1.0-470.0","0","0","53258","","null","","","null","52","","","","","","","","","","","","","","","",""
"","ISI","","html-keyboard-response","340","351796","0.0-1.0-471.0","0","0","53258","","null","","","null","52","NaN","","","","","","","","","","","","","","",""
"","S2","","html-keyboard-response","341","352048","0.0-1.0-472.0","0","0","53258","","null","","","null","52","","NaN","","","","","","","","","","","","","",""
"","response","","html-keyboard-response","342","352425","0.0-1.0-473.0-0.0","0","0","53258","","376","","","68","52","","","2","52","training","adjacent","DC","4","3","R.jpg","P.jpg","1","0","0","",""
"","feedback","","html-keyboard-response","343","353427","0.0-1.0-474.0-0.0","0","0","53258","","null","","","null","52","","","","","","","","","","","","","","","",""
"","time_out","","html-keyboard-response","344","355429","0.0-1.0-476.0-0.0","0","0","53258","","null","","","null","52","","","","","","","","","","","","","","","",""
"","ITI","","html-keyboard-response","345","356431","0.0-1.0-477.0","0","0","53258","","null","","","null","52","","","","","","","","","","","","","","","NaN",""
"","S1","","html-keyboard-response","346","356683","0.0-1.0-479.0","0","0","53258","","null","","","null","53","","","","","","","","","","","","","","","",""
"","ISI","","html-keyboard-response","347","358685","0.0-1.0-480.0","0","0","53258","","null","","","null","53","NaN","","","","","","","","","","","","","","",""
"","S2","","html-keyboard-response","348","358761","0.0-1.0-481.0","0","0","53258","","75","","","68","53","","d","2","53","training","adjacent","FG","6","7","N.jpg","L.jpg","1","1","1","",""
"","feedback","","html-keyboard-response","349","359764","0.0-1.0-483.0-0.0","0","0","53258","","null","","","null","53","","","","","","","","","","","","","","","",""
"","ITI","","html-keyboard-response","350","360766","0.0-1.0-486.0","0","0","53258","","null","","","null","53","","","","","","","","","","","","","","","NaN",""
"","S1","","html-keyboard-response","351","361018","0.0-1.0-488.0","0","0","53258","","null","","","null","54","","","","","","","","","","","","","","","",""
"","ISI","","html-keyboard-response","352","363020","0.0-1.0-489.0","0","0","53258","","null","","","null","54","NaN","","","","","","","","","","","","","","",""
"","S2","","html-keyboard-response","353","363272","0.0-1.0-490.0","0","0","53258","","null","","","null","54","","NaN","","","","","","","","","","","","","",""
"","response","","html-keyboard-response","354","363528","0.0-1.0-491.0-0.0","0","0","53258","","255","","","68","54","","","2","54","training","adjacent","BC","2","3","M.jpg","P.jpg","1","1","1","",""
"","feedback","","html-keyboard-response","355","364531","0.0-1.0-492.0-0.0","0","0","53258","","null","","","null","54","","","","","","","","","","","","","","","",""
"","ITI","","html-keyboard-response","356","365533","0.0-1.0-495.0","0","0","53258","","null","","","null","54","","","","","","","","","","","","","","","NaN",""
"","S1","","html-keyboard-response","357","365785","0.0-1.0-497.0","0","0","53258","","null","","","null","55","","","","","","","","","","","","","","","",""
"","ISI","","html-keyboard-response","358","367786","0.0-1.0-498.0","0","0","53258","","null","","","null","55","NaN","","","","","","","","","","","","","","",""
"","S2","","html-keyboard-response","359","368039","0.0-1.0-499.0","0","0","53258","","null","","","null","55","","NaN","","","","","","","","","","","","","",""
"","response","","html-keyboard-response","360","368688","0.0-1.0-500.0-0.0","0","0","53258","","648","","","68","55","","","2","55","training","adjacent","FG","6","7","N.jpg","L.jpg","1","1","1","",""
"","feedback","","html-keyboard-response","361","369690","0.0-1.0-501.0-0.0","0","0","53258","","null","","","null","55","","","","","","","","","","","","","","","",""
"","ITI","","html-keyboard-response","362","370693","0.0-1.0-504.0","0","0","53258","","null","","","null","55","","","","","","","","","","","","","","","NaN",""
"","S1","","html-keyboard-response","363","370946","0.0-1.0-506.0","0","0","53258","","null","","","null","56","","","","","","","","","","","","","","","",""
"","ISI","","html-keyboard-response","364","372948","0.0-1.0-507.0","0","0","53258","","null","","","null","56","NaN","","","","","","","","","","","","","","",""
"","S2","","html-keyboard-response","365","373200","0.0-1.0-508.0","0","0","53258","","null","","","null","56","","NaN","","","","","","","","","","","","","",""
"","response","","html-keyboard-response","366","373616","0.0-1.0-509.0-0.0","0","0","53258","","415","","","68","56","","","2","56","training","adjacent","ED","5","4","O.jpg","R.jpg","1","0","0","",""
"","feedback","","html-keyboard-response","367","374618","0.0-1.0-510.0-0.0","0","0","53258","","null","","","null","56","","","","","","","","","","","","","","","",""
"","time_out","","html-keyboard-response","368","376621","0.0-1.0-512.0-0.0","0","0","53258","","null","","","null","56","","","","","","","","","","","","","","","",""
"","ITI","","html-keyboard-response","369","377622","0.0-1.0-513.0","0","0","53258","","null","","","null","56","","","","","","","","","","","","","","","NaN",""
"","S1","","html-keyboard-response","370","377874","0.0-1.0-515.0","0","0","53258","","null","","","null","57","","","","","","","","","","","","","","","",""
"","ISI","","html-keyboard-response","371","379876","0.0-1.0-516.0","0","0","53258","","null","","","null","57","NaN","","","","","","","","","","","","","","",""
"","S2","","html-keyboard-response","372","380129","0.0-1.0-517.0","0","0","53258","","null","","","null","57","","NaN","","","","","","","","","","","","","",""
"","response","","html-keyboard-response","373","380367","0.0-1.0-518.0-0.0","0","0","53258","","237","","","68","57","","","2","57","training","adjacent","FE","6","5","N.jpg","O.jpg","1","0","0","",""
"","feedback","","html-keyboard-response","374","381370","0.0-1.0-519.0-0.0","0","0","53258","","null","","","null","57","","","","","","","","","","","","","","","",""
"","time_out","","html-keyboard-response","375","383371","0.0-1.0-521.0-0.0","0","0","53258","","null","","","null","57","","","","","","","","","","","","","","","",""
"","ITI","","html-keyboard-response","376","384374","0.0-1.0-522.0","0","0","53258","","null","","","null","57","","","","","","","","","","","","","","","NaN",""
"","S1","","html-keyboard-response","377","384626","0.0-1.0-524.0","0","0","53258","","null","","","null","58","","","","","","","","","","","","","","","",""
"","ISI","","html-keyboard-response","378","386628","0.0-1.0-525.0","0","0","53258","","null","","","null","58","NaN","","","","","","","","","","","","","","",""
"","S2","","html-keyboard-response","379","386880","0.0-1.0-526.0","0","0","53258","","null","","","null","58","","NaN","","","","","","","","","","","","","",""
"","response","","html-keyboard-response","380","387103","0.0-1.0-527.0-0.0","0","0","53258","","222","","","75","58","","","2","58","training","adjacent","GF","7","6","L.jpg","N.jpg","0","0","1","",""
"","feedback","","html-keyboard-response","381","388105","0.0-1.0-528.0-0.0","0","0","53258","","null","","","null","58","","","","","","","","","","","","","","","",""
"","ITI","","html-keyboard-response","382","389107","0.0-1.0-531.0","0","0","53258","","null","","","null","58","","","","","","","","","","","","","","","NaN",""
"","S1","","html-keyboard-response","383","389359","0.0-1.0-533.0","0","0","53258","","null","","","null","59","","","","","","","","","","","","","","","",""
"","ISI","","html-keyboard-response","384","391361","0.0-1.0-534.0","0","0","53258","","null","","","null","59","NaN","","","","","","","","","","","","","","",""
"","S2","","html-keyboard-response","385","391613","0.0-1.0-535.0","0","0","53258","","null","","","null","59","","NaN","","","","","","","","","","","","","",""
"","response","","html-keyboard-response","386","391998","0.0-1.0-536.0-0.0","0","0","53258","","383","","","68","59","","","2","59","training","adjacent","BC","2","3","M.jpg","P.jpg","1","1","1","",""
"","feedback","","html-keyboard-response","387","393000","0.0-1.0-537.0-0.0","0","0","53258","","null","","","null","59","","","","","","","","","","","","","","","",""
"","ITI","","html-keyboard-response","388","394002","0.0-1.0-540.0","0","0","53258","","null","","","null","59","","","","","","","","","","","","","","","NaN",""
"","S1","","html-keyboard-response","389","394254","0.0-1.0-542.0","0","0","53258","","null","","","null","60","","","","","","","","","","","","","","","",""
"","ISI","","html-keyboard-response","390","396256","0.0-1.0-543.0","0","0","53258","","null","","","null","60","NaN","","","","","","","","","","","","","","",""
"","S2","","html-keyboard-response","391","396509","0.0-1.0-544.0","0","0","53258","","null","","","null","60","","NaN","","","","","","","","","","","","","",""
"","response","","html-keyboard-response","392","397398","0.0-1.0-545.0-0.0","0","0","53258","","887","","","75","60","","","2","60","training","adjacent","BC","2","3","M.jpg","P.jpg","0","1","0","",""
"","feedback","","html-keyboard-response","393","398400","0.0-1.0-546.0-0.0","0","0","53258","","null","","","null","60","","","","","","","","","","","","","","","",""
"","time_out","","html-keyboard-response","394","400407","0.0-1.0-548.0-0.0","0","0","53258","","null","","","null","60","","","","","","","","","","","","","","","",""
"","ITI","","html-keyboard-response","395","401409","0.0-1.0-549.0","0","0","53258","","null","","","null","60","","","","","","","","","","","","","","","NaN",""
"","S1","","html-keyboard-response","396","401661","0.0-1.0-551.0","0","0","53258","","null","","","null","61","","","","","","","","","","","","","","","",""
"","ISI","","html-keyboard-response","397","403663","0.0-1.0-552.0","0","0","53258","","null","","","null","61","NaN","","","","","","","","","","","","","","",""
"","S2","","html-keyboard-response","398","403916","0.0-1.0-553.0","0","0","53258","","null","","","null","61","","NaN","","","","","","","","","","","","","",""
"","response","","html-keyboard-response","399","404323","0.0-1.0-554.0-0.0","0","0","53258","","406","","","68","61","","","2","61","training","adjacent","FE","6","5","N.jpg","O.jpg","1","0","0","",""
"","feedback","","html-keyboard-response","400","405325","0.0-1.0-555.0-0.0","0","0","53258","","null","","","null","61","","","","","","","","","","","","","","","",""
"","time_out","","html-keyboard-response","401","407327","0.0-1.0-557.0-0.0","0","0","53258","","null","","","null","61","","","","","","","","","","","","","","","",""
"","ITI","","html-keyboard-response","402","408329","0.0-1.0-558.0","0","0","53258","","null","","","null","61","","","","","","","","","","","","","","","NaN",""
"","S1","","html-keyboard-response","403","408581","0.0-1.0-560.0","0","0","53258","","null","","","null","62","","","","","","","","","","","","","","","",""
"","ISI","","html-keyboard-response","404","410583","0.0-1.0-561.0","0","0","53258","","null","","","null","62","NaN","","","","","","","","","","","","","","",""
"","S2","","html-keyboard-response","405","410835","0.0-1.0-562.0","0","0","53258","","null","","","null","62","","NaN","","","","","","","","","","","","","",""
"","response","","html-keyboard-response","406","411010","0.0-1.0-563.0-0.0","0","0","53258","","174","","","68","62","","","2","62","training","adjacent","AB","1","2","Q.jpg","M.jpg","1","1","1","",""
"","feedback","","html-keyboard-response","407","412012","0.0-1.0-564.0-0.0","0","0","53258","","null","","","null","62","","","","","","","","","","","","","","","",""
"","ITI","","html-keyboard-response","408","413014","0.0-1.0-567.0","0","0","53258","","null","","","null","62","","","","","","","","","","","","","","","NaN",""
"","S1","","html-keyboard-response","409","413266","0.0-1.0-569.0","0","0","53258","","null","","","null","63","","","","","","","","","","","","","","","",""
"","ISI","","html-keyboard-response","410","415268","0.0-1.0-570.0","0","0","53258","","null","","","null","63","NaN","","","","","","","","","","","","","","",""
"","S2","","html-keyboard-response","411","415520","0.0-1.0-571.0","0","0","53258","","null","","","null","63","","NaN","","","","","","","","","","","","","",""
"","response","","html-keyboard-response","412","415754","0.0-1.0-572.0-0.0","0","0","53258","","233","","","75","63","","","2","63","training","adjacent","DE","4","5","R.jpg","O.jpg","0","1","0","",""
"","feedback","","html-keyboard-response","413","416756","0.0-1.0-573.0-0.0","0","0","53258","","null","","","null","63","","","","","","","","","","","","","","","",""
"","time_out","","html-keyboard-response","414","418758","0.0-1.0-575.0-0.0","0","0","53258","","null","","","null","63","","","","","","","","","","","","","","","",""
"","ITI","","html-keyboard-response","415","419760","0.0-1.0-576.0","0","0","53258","","null","","","null","63","","","","","","","","","","","","","","","NaN",""
"","S1","","html-keyboard-response","416","420012","0.0-1.0-578.0","0","0","53258","","null","","","null","64","","","","","","","","","","","","","","","",""
"","ISI","","html-keyboard-response","417","422014","0.0-1.0-579.0","0","0","53258","","null","","","null","64","NaN","","","","","","","","","","","","","","",""
"","S2","","html-keyboard-response","418","422267","0.0-1.0-580.0","0","0","53258","","null","","","null","64","","NaN","","","","","","","","","","","","","",""
"","response","","html-keyboard-response","419","422810","0.0-1.0-581.0-0.0","0","0","53258","","542","","","68","64","","","2","64","training","adjacent","CB","3","2","P.jpg","M.jpg","1","0","0","",""
"","feedback","","html-keyboard-response","420","423812","0.0-1.0-582.0-0.0","0","0","53258","","null","","","null","64","","","","","","","","","","","","","","","",""
"","time_out","","html-keyboard-response","421","425814","0.0-1.0-584.0-0.0","0","0","53258","","null","","","null","64","","","","","","","","","","","","","","","",""
"","ITI","","html-keyboard-response","422","426816","0.0-1.0-585.0","0","0","53258","","null","","","null","64","","","","","","","","","","","","","","","NaN",""
"","S1","","html-keyboard-response","423","427068","0.0-1.0-587.0","0","0","53258","","null","","","null","65","","","","","","","","","","","","","","","",""
"","ISI","","html-keyboard-response","424","429070","0.0-1.0-588.0","0","0","53258","","null","","","null","65","NaN","","","","","","","","","","","","","","",""
"","S2","","html-keyboard-response","425","429322","0.0-1.0-589.0","0","0","53258","","null","","","null","65","","NaN","","","","","","","","","","","","","",""
"","response","","html-keyboard-response","426","429697","0.0-1.0-590.0-0.0","0","0","53258","","374","","","68","65","","","2","65","training","adjacent","DC","4","3","R.jpg","P.jpg","1","0","0","",""
"","feedback","","html-keyboard-response","427","430699","0.0-1.0-591.0-0.0","0","0","53258","","null","","","null","65","","","","","","","","","","","","","","","",""
"","time_out","","html-keyboard-response","428","432701","0.0-1.0-593.0-0.0","0","0","53258","","null","","","null","65","","","","","","","","","","","","","","","",""
"","ITI","","html-keyboard-response","429","433703","0.0-1.0-594.0","0","0","53258","","null","","","null","65","","","","","","","","","","","","","","","NaN",""
"","S1","","html-keyboard-response","430","433955","0.0-1.0-596.0","0","0","53258","","null","","","null","66","","","","","","","","","","","","","","","",""
"","ISI","","html-keyboard-response","431","435957","0.0-1.0-597.0","0","0","53258","","null","","","null","66","NaN","","","","","","","","","","","","","","",""
"","S2","","html-keyboard-response","432","436209","0.0-1.0-598.0","0","0","53258","","null","","","null","66","","NaN","","","","","","","","","","","","","",""
"","response","","html-keyboard-response","433","436417","0.0-1.0-599.0-0.0","0","0","53258","","207","","","68","66","","","2","66","training","adjacent","FG","6","7","N.jpg","L.jpg","1","1","1","",""
"","feedback","","html-keyboard-response","434","437419","0.0-1.0-600.0-0.0","0","0","53258","","null","","","null","66","","","","","","","","","","","","","","","",""
"","ITI","","html-keyboard-response","435","438421","0.0-1.0-603.0","0","0","53258","","null","","","null","66","","","","","","","","","","","","","","","NaN",""
"","S1","","html-keyboard-response","436","438673","0.0-1.0-605.0","0","0","53258","","null","","","null","67","","","","","","","","","","","","","","","",""
"","ISI","","html-keyboard-response","437","440674","0.0-1.0-606.0","0","0","53258","","null","","","null","67","NaN","","","","","","","","","","","","","","",""
"","S2","","html-keyboard-response","438","440927","0.0-1.0-607.0","0","0","53258","","null","","","null","67","","NaN","","","","","","","","","","","","","",""
"","response","","html-keyboard-response","439","441368","0.0-1.0-608.0-0.0","0","0","53258","","440","","","68","67","","","2","67","training","adjacent","EF","5","6","O.jpg","N.jpg","1","1","1","",""
"","feedback","","html-keyboard-response","440","442371","0.0-1.0-609.0-0.0","0","0","53258","","null","","","null","67","","","","","","","","","","","","","","","",""
"","ITI","","html-keyboard-response","441","443373","0.0-1.0-612.0","0","0","53258","","null","","","null","67","","","","","","","","","","","","","","","NaN",""
"","S1","","html-keyboard-response","442","443626","0.0-1.0-614.0","0","0","53258","","null","","","null","68","","","","","","","","","","","","","","","",""
"","ISI","","html-keyboard-response","443","445628","0.0-1.0-615.0","0","0","53258","","null","","","null","68","NaN","","","","","","","","","","","","","","",""
"","S2","","html-keyboard-response","444","445879","0.0-1.0-616.0","0","0","53258","","null","","","null","68","","NaN","","","","","","","","","","","","","",""
"","response","","html-keyboard-response","445","446320","0.0-1.0-617.0-0.0","0","0","53258","","439","","","75","68","","","2","68","training","adjacent","DE","4","5","R.jpg","O.jpg","0","1","0","",""
"","feedback","","html-keyboard-response","446","447322","0.0-1.0-618.0-0.0","0","0","53258","","null","","","null","68","","","","","","","","","","","","","","","",""
"","time_out","","html-keyboard-response","447","449324","0.0-1.0-620.0-0.0","0","0","53258","","null","","","null","68","","","","","","","","","","","","","","","",""
"","ITI","","html-keyboard-response","448","450325","0.0-1.0-621.0","0","0","53258","","null","","","null","68","","","","","","","","","","","","","","","NaN",""
"","S1","","html-keyboard-response","449","450578","0.0-1.0-623.0","0","0","53258","","null","","","null","69","","","","","","","","","","","","","","","",""
"","ISI","","html-keyboard-response","450","452580","0.0-1.0-624.0","0","0","53258","","null","","","null","69","NaN","","","","","","","","","","","","","","",""
"","S2","","html-keyboard-response","451","452832","0.0-1.0-625.0","0","0","53258","","null","","","null","69","","NaN","","","","","","","","","","","","","",""
"","response","","html-keyboard-response","452","453080","0.0-1.0-626.0-0.0","0","0","53258","","247","","","75","69","","","2","69","training","adjacent","GF","7","6","L.jpg","N.jpg","0","0","1","",""
"","feedback","","html-keyboard-response","453","454082","0.0-1.0-627.0-0.0","0","0","53258","","null","","","null","69","","","","","","","","","","","","","","","",""
"","ITI","","html-keyboard-response","454","455084","0.0-1.0-630.0","0","0","53258","","null","","","null","69","","","","","","","","","","","","","","","NaN",""
"","S1","","html-keyboard-response","455","455335","0.0-1.0-632.0","0","0","53258","","null","","","null","70","","","","","","","","","","","","","","","",""
"","ISI","","html-keyboard-response","456","457338","0.0-1.0-633.0","0","0","53258","","null","","","null","70","NaN","","","","","","","","","","","","","","",""
"","S2","","html-keyboard-response","457","457589","0.0-1.0-634.0","0","0","53258","","null","","","null","70","","NaN","","","","","","","","","","","","","",""
"","response","","html-keyboard-response","458","457911","0.0-1.0-635.0-0.0","0","0","53258","","320","","","68","70","","","2","70","training","adjacent","CD","3","4","P.jpg","R.jpg","1","1","1","",""
"","feedback","","html-keyboard-response","459","458913","0.0-1.0-636.0-0.0","0","0","53258","","null","","","null","70","","","","","","","","","","","","","","","",""
"","ITI","","html-keyboard-response","460","459915","0.0-1.0-639.0","0","0","53258","","null","","","null","70","","","","","","","","","","","","","","","NaN",""
"","S1","","html-keyboard-response","461","460167","0.0-1.0-641.0","0","0","53258","","null","","","null","71","","","","","","","","","","","","","","","",""
"","ISI","","html-keyboard-response","462","462173","0.0-1.0-642.0","0","0","53258","","null","","","null","71","NaN","","","","","","","","","","","","","","",""
"","S2","","html-keyboard-response","463","462425","0.0-1.0-643.0","0","0","53258","","null","","","null","71","","NaN","","","","","","","","","","","","","",""
"","response","","html-keyboard-response","464","462515","0.0-1.0-644.0-0.0","0","0","53258","","89","","","75","71","","","2","71","training","adjacent","EF","5","6","O.jpg","N.jpg","0","1","0","",""
"","feedback","","html-keyboard-response","465","463517","0.0-1.0-645.0-0.0","0","0","53258","","null","","","null","71","","","","","","","","","","","","","","","",""
"","time_out","","html-keyboard-response","466","465519","0.0-1.0-647.0-0.0","0","0","53258","","null","","","null","71","","","","","","","","","","","","","","","",""
"","ITI","","html-keyboard-response","467","466521","0.0-1.0-648.0","0","0","53258","","null","","","null","71","","","","","","","","","","","","","","","NaN",""
"","S1","","html-keyboard-response","468","466773","0.0-1.0-650.0","0","0","53258","","null","","","null","72","","","","","","","","","","","","","","","",""
"","ISI","","html-keyboard-response","469","468775","0.0-1.0-651.0","0","0","53258","","null","","","null","72","NaN","","","","","","","","","","","","","","",""
"","S2","","html-keyboard-response","470","469027","0.0-1.0-652.0","0","0","53258","","null","","","null","72","","NaN","","","","","","","","","","","","","",""
"","response","","html-keyboard-response","471","469387","0.0-1.0-653.0-0.0","0","0","53258","","359","","","68","72","","","2","72","training","adjacent","CB","3","2","P.jpg","M.jpg","1","0","0","",""
"","feedback","","html-keyboard-response","472","470389","0.0-1.0-654.0-0.0","0","0","53258","","null","","","null","72","","","","","","","","","","","","","","","",""
"","time_out","","html-keyboard-response","473","472391","0.0-1.0-656.0-0.0","0","0","53258","","null","","","null","72","","","","","","","","","","","","","","","",""
"","ITI","","html-keyboard-response","474","473393","0.0-1.0-657.0","0","0","53258","","null","","","null","72","","","","","","","","","","","","","","","NaN",""
"","S1","","html-keyboard-response","475","473645","0.0-1.0-659.0","0","0","53258","","null","","","null","73","","","","","","","","","","","","","","","",""
"","ISI","","html-keyboard-response","476","475647","0.0-1.0-660.0","0","0","53258","","null","","","null","73","NaN","","","","","","","","","","","","","","",""
"","S2","","html-keyboard-response","477","475899","0.0-1.0-661.0","0","0","53258","","null","","","null","73","","NaN","","","","","","","","","","","","","",""
"","response","","html-keyboard-response","478","476082","0.0-1.0-662.0-0.0","0","0","53258","","182","","","68","73","","","2","73","training","adjacent","ED","5","4","O.jpg","R.jpg","1","0","0","",""
"","feedback","","html-keyboard-response","479","477085","0.0-1.0-663.0-0.0","0","0","53258","","null","","","null","73","","","","","","","","","","","","","","","",""
"","time_out","","html-keyboard-response","480","479087","0.0-1.0-665.0-0.0","0","0","53258","","null","","","null","73","","","","","","","","","","","","","","","",""
"","ITI","","html-keyboard-response","481","480089","0.0-1.0-666.0","0","0","53258","","null","","","null","73","","","","","","","","","","","","","","","NaN",""
"","S1","","html-keyboard-response","482","480341","0.0-1.0-668.0","0","0","53258","","null","","","null","74","","","","","","","","","","","","","","","",""
"","ISI","","html-keyboard-response","483","482343","0.0-1.0-669.0","0","0","53258","","null","","","null","74","NaN","","","","","","","","","","","","","","",""
"","S2","","html-keyboard-response","484","482595","0.0-1.0-670.0","0","0","53258","","null","","","null","74","","NaN","","","","","","","","","","","","","",""
"","response","","html-keyboard-response","485","483018","0.0-1.0-671.0-0.0","0","0","53258","","422","","","68","74","","","2","74","training","adjacent","EF","5","6","O.jpg","N.jpg","1","1","1","",""
"","feedback","","html-keyboard-response","486","484021","0.0-1.0-672.0-0.0","0","0","53258","","null","","","null","74","","","","","","","","","","","","","","","",""
"","ITI","","html-keyboard-response","487","485023","0.0-1.0-675.0","0","0","53258","","null","","","null","74","","","","","","","","","","","","","","","NaN",""
"","S1","","html-keyboard-response","488","485274","0.0-1.0-677.0","0","0","53258","","null","","","null","75","","","","","","","","","","","","","","","",""
"","ISI","","html-keyboard-response","489","487277","0.0-1.0-678.0","0","0","53258","","null","","","null","75","NaN","","","","","","","","","","","","","","",""
"","S2","","html-keyboard-response","490","487529","0.0-1.0-679.0","0","0","53258","","null","","","null","75","","NaN","","","","","","","","","","","","","",""
"","response","","html-keyboard-response","491","487785","0.0-1.0-680.0-0.0","0","0","53258","","255","","","68","75","","","2","75","training","adjacent","CB","3","2","P.jpg","M.jpg","1","0","0","",""
"","feedback","","html-keyboard-response","492","488788","0.0-1.0-681.0-0.0","0","0","53258","","null","","","null","75","","","","","","","","","","","","","","","",""
"","time_out","","html-keyboard-response","493","490790","0.0-1.0-683.0-0.0","0","0","53258","","null","","","null","75","","","","","","","","","","","","","","","",""
"","ITI","","html-keyboard-response","494","491791","0.0-1.0-684.0","0","0","53258","","null","","","null","75","","","","","","","","","","","","","","","NaN",""
"","S1","","html-keyboard-response","495","492043","0.0-1.0-686.0","0","0","53258","","null","","","null","76","","","","","","","","","","","","","","","",""
"","ISI","","html-keyboard-response","496","494045","0.0-1.0-687.0","0","0","53258","","null","","","null","76","NaN","","","","","","","","","","","","","","",""
"","S2","","html-keyboard-response","497","494298","0.0-1.0-688.0","0","0","53258","","null","","","null","76","","NaN","","","","","","","","","","","","","",""
"","response","","html-keyboard-response","498","494721","0.0-1.0-689.0-0.0","0","0","53258","","422","","","75","76","","","2","76","training","adjacent","DC","4","3","R.jpg","P.jpg","0","0","1","",""
"","feedback","","html-keyboard-response","499","495724","0.0-1.0-690.0-0.0","0","0","53258","","null","","","null","76","","","","","","","","","","","","","","","",""
"","ITI","","html-keyboard-response","500","496725","0.0-1.0-693.0","0","0","53258","","null","","","null","76","","","","","","","","","","","","","","","NaN",""
"","S1","","html-keyboard-response","501","496977","0.0-1.0-695.0","0","0","53258","","null","","","null","77","","","","","","","","","","","","","","","",""
"","ISI","","html-keyboard-response","502","498979","0.0-1.0-696.0","0","0","53258","","null","","","null","77","NaN","","","","","","","","","","","","","","",""
"","S2","","html-keyboard-response","503","499231","0.0-1.0-697.0","0","0","53258","","null","","","null","77","","NaN","","","","","","","","","","","","","",""
"","response","","html-keyboard-response","504","499496","0.0-1.0-698.0-0.0","0","0","53258","","263","","","68","77","","","2","77","training","adjacent","BA","2","1","M.jpg","Q.jpg","1","0","0","",""
"","feedback","","html-keyboard-response","505","500498","0.0-1.0-699.0-0.0","0","0","53258","","null","","","null","77","","","","","","","","","","","","","","","",""
"","time_out","","html-keyboard-response","506","502500","0.0-1.0-701.0-0.0","0","0","53258","","null","","","null","77","","","","","","","","","","","","","","","",""
"","ITI","","html-keyboard-response","507","503502","0.0-1.0-702.0","0","0","53258","","null","","","null","77","","","","","","","","","","","","","","","NaN",""
"","S1","","html-keyboard-response","508","503755","0.0-1.0-704.0","0","0","53258","","null","","","null","78","","","","","","","","","","","","","","","",""
"","ISI","","html-keyboard-response","509","505757","0.0-1.0-705.0","0","0","53258","","null","","","null","78","NaN","","","","","","","","","","","","","","",""
"","S2","","html-keyboard-response","510","506009","0.0-1.0-706.0","0","0","53258","","null","","","null","78","","NaN","","","","","","","","","","","","","",""
"","response","","html-keyboard-response","511","506264","0.0-1.0-707.0-0.0","0","0","53258","","253","","","75","78","","","2","78","training","adjacent","AB","1","2","Q.jpg","M.jpg","0","1","0","",""
"","feedback","","html-keyboard-response","512","507266","0.0-1.0-708.0-0.0","0","0","53258","","null","","","null","78","","","","","","","","","","","","","","","",""
"","time_out","","html-keyboard-response","513","509268","0.0-1.0-710.0-0.0","0","0","53258","","null","","","null","78","","","","","","","","","","","","","","","",""
"","ITI","","html-keyboard-response","514","510270","0.0-1.0-711.0","0","0","53258","","null","","","null","78","","","","","","","","","","","","","","","NaN",""
"","S1","","html-keyboard-response","515","510522","0.0-1.0-713.0","0","0","53258","","null","","","null","79","","","","","","","","","","","","","","","",""
"","ISI","","html-keyboard-response","516","512524","0.0-1.0-714.0","0","0","53258","","null","","","null","79","NaN","","","","","","","","","","","","","","",""
"","S2","","html-keyboard-response","517","512776","0.0-1.0-715.0","0","0","53258","","null","","","null","79","","NaN","","","","","","","","","","","","","",""
"","response","","html-keyboard-response","518","512935","0.0-1.0-716.0-0.0","0","0","53258","","157","","","68","79","","","2","79","training","adjacent","ED","5","4","O.jpg","R.jpg","1","0","0","",""
"","feedback","","html-keyboard-response","519","513938","0.0-1.0-717.0-0.0","0","0","53258","","null","","","null","79","","","","","","","","","","","","","","","",""
"","time_out","","html-keyboard-response","520","515940","0.0-1.0-719.0-0.0","0","0","53258","","null","","","null","79","","","","","","","","","","","","","","","",""
"","ITI","","html-keyboard-response","521","516942","0.0-1.0-720.0","0","0","53258","","null","","","null","79","","","","","","","","","","","","","","","NaN",""
"","S1","","html-keyboard-response","522","517194","0.0-1.0-722.0","0","0","53258","","null","","","null","80","","","","","","","","","","","","","","","",""
"","ISI","","html-keyboard-response","523","519196","0.0-1.0-723.0","0","0","53258","","null","","","null","80","NaN","","","","","","","","","","","","","","",""
"","S2","","html-keyboard-response","524","519448","0.0-1.0-724.0","0","0","53258","","null","","","null","80","","NaN","","","","","","","","","","","","","",""
"","response","","html-keyboard-response","525","519991","0.0-1.0-725.0-0.0","0","0","53258","","541","","","75","80","","","2","80","training","adjacent","EF","5","6","O.jpg","N.jpg","0","1","0","",""
"","feedback","","html-keyboard-response","526","520994","0.0-1.0-726.0-0.0","0","0","53258","","null","","","null","80","","","","","","","","","","","","","","","",""
"","time_out","","html-keyboard-response","527","522999","0.0-1.0-728.0-0.0","0","0","53258","","null","","","null","80","","","","","","","","","","","","","","","",""
"","ITI","","html-keyboard-response","528","524001","0.0-1.0-729.0","0","0","53258","","null","","","null","80","","","","","","","","","","","","","","","NaN",""
"","S1","","html-keyboard-response","529","524253","0.0-1.0-731.0","0","0","53258","","null","","","null","81","","","","","","","","","","","","","","","",""
"","ISI","","html-keyboard-response","530","526256","0.0-1.0-732.0","0","0","53258","","null","","","null","81","NaN","","","","","","","","","","","","","","",""
"","S2","","html-keyboard-response","531","526507","0.0-1.0-733.0","0","0","53258","","null","","","null","81","","NaN","","","","","","","","","","","","","",""
"","response","","html-keyboard-response","532","526962","0.0-1.0-734.0-0.0","0","0","53258","","453","","","75","81","","","2","81","training","adjacent","FE","6","5","N.jpg","O.jpg","0","0","1","",""
"","feedback","","html-keyboard-response","533","527965","0.0-1.0-735.0-0.0","0","0","53258","","null","","","null","81","","","","","","","","","","","","","","","",""
"","ITI","","html-keyboard-response","534","528966","0.0-1.0-738.0","0","0","53258","","null","","","null","81","","","","","","","","","","","","","","","NaN",""
"","S1","","html-keyboard-response","535","529218","0.0-1.0-740.0","0","0","53258","","null","","","null","82","","","","","","","","","","","","","","","",""
"","ISI","","html-keyboard-response","536","531220","0.0-1.0-741.0","0","0","53258","","null","","","null","82","NaN","","","","","","","","","","","","","","",""
"","S2","","html-keyboard-response","537","531473","0.0-1.0-742.0","0","0","53258","","null","","","null","82","","NaN","","","","","","","","","","","","","",""
"","response","","html-keyboard-response","538","532186","0.0-1.0-743.0-0.0","0","0","53258","","712","","","75","82","","","2","82","training","adjacent","CD","3","4","P.jpg","R.jpg","0","1","0","",""
"","feedback","","html-keyboard-response","539","533188","0.0-1.0-744.0-0.0","0","0","53258","","null","","","null","82","","","","","","","","","","","","","","","",""
"","time_out","","html-keyboard-response","540","535190","0.0-1.0-746.0-0.0","0","0","53258","","null","","","null","82","","","","","","","","","","","","","","","",""
"","ITI","","html-keyboard-response","541","536192","0.0-1.0-747.0","0","0","53258","","null","","","null","82","","","","","","","","","","","","","","","NaN",""
"","S1","","html-keyboard-response","542","536444","0.0-1.0-749.0","0","0","53258","","null","","","null","83","","","","","","","","","","","","","","","",""
"","ISI","","html-keyboard-response","543","538446","0.0-1.0-750.0","0","0","53258","","null","","","null","83","NaN","","","","","","","","","","","","","","",""
"","S2","","html-keyboard-response","544","538698","0.0-1.0-751.0","0","0","53258","","null","","","null","83","","NaN","","","","","","","","","","","","","",""
"","response","","html-keyboard-response","545","539369","0.0-1.0-752.0-0.0","0","0","53258","","669","","","75","83","","","2","83","training","adjacent","BC","2","3","M.jpg","P.jpg","0","1","0","",""
"","feedback","","html-keyboard-response","546","540371","0.0-1.0-753.0-0.0","0","0","53258","","null","","","null","83","","","","","","","","","","","","","","","",""
"","time_out","","html-keyboard-response","547","542373","0.0-1.0-755.0-0.0","0","0","53258","","null","","","null","83","","","","","","","","","","","","","","","",""
"","ITI","","html-keyboard-response","548","543375","0.0-1.0-756.0","0","0","53258","","null","","","null","83","","","","","","","","","","","","","","","NaN",""
"","S1","","html-keyboard-response","549","543627","0.0-1.0-758.0","0","0","53258","","null","","","null","84","","","","","","","","","","","","","","","",""
"","ISI","","html-keyboard-response","550","545629","0.0-1.0-759.0","0","0","53258","","null","","","null","84","NaN","","","","","","","","","","","","","","",""
"","S2","","html-keyboard-response","551","545881","0.0-1.0-760.0","0","0","53258","","null","","","null","84","","NaN","","","","","","","","","","","","","",""
"","response","","html-keyboard-response","552","546361","0.0-1.0-761.0-0.0","0","0","53258","","477","","","68","84","","","2","84","training","adjacent","BA","2","1","M.jpg","Q.jpg","1","0","0","",""
"","feedback","","html-keyboard-response","553","547363","0.0-1.0-762.0-0.0","0","0","53258","","null","","","null","84","","","","","","","","","","","","","","","",""
"","time_out","","html-keyboard-response","554","549365","0.0-1.0-764.0-0.0","0","0","53258","","null","","","null","84","","","","","","","","","","","","","","","",""
"","ITI","","html-keyboard-response","555","550367","0.0-1.0-765.0","0","0","53258","","null","","","null","84","","","","","","","","","","","","","","","NaN",""
"","S1","","html-keyboard-response","556","550619","0.0-1.0-767.0","0","0","53258","","null","","","null","85","","","","","","","","","","","","","","","",""
"","ISI","","html-keyboard-response","557","552621","0.0-1.0-768.0","0","0","53258","","null","","","null","85","NaN","","","","","","","","","","","","","","",""
"","S2","","html-keyboard-response","558","552873","0.0-1.0-769.0","0","0","53258","","null","","","null","85","","NaN","","","","","","","","","","","","","",""
"","response","","html-keyboard-response","559","553240","0.0-1.0-770.0-0.0","0","0","53258","","365","","","75","85","","","2","85","training","adjacent","AB","1","2","Q.jpg","M.jpg","0","1","0","",""
"","feedback","","html-keyboard-response","560","554242","0.0-1.0-771.0-0.0","0","0","53258","","null","","","null","85","","","","","","","","","","","","","","","",""
"","time_out","","html-keyboard-response","561","556244","0.0-1.0-773.0-0.0","0","0","53258","","null","","","null","85","","","","","","","","","","","","","","","",""
"","ITI","","html-keyboard-response","562","557246","0.0-1.0-774.0","0","0","53258","","null","","","null","85","","","","","","","","","","","","","","","NaN",""
"","S1","","html-keyboard-response","563","557498","0.0-1.0-776.0","0","0","53258","","null","","","null","86","","","","","","","","","","","","","","","",""
"","ISI","","html-keyboard-response","564","559500","0.0-1.0-777.0","0","0","53258","","null","","","null","86","NaN","","","","","","","","","","","","","","",""
"","S2","","html-keyboard-response","565","559752","0.0-1.0-778.0","0","0","53258","","null","","","null","86","","NaN","","","","","","","","","","","","","",""
"","response","","html-keyboard-response","566","560464","0.0-1.0-779.0-0.0","0","0","53258","","711","","","68","86","","","2","86","training","adjacent","DC","4","3","R.jpg","P.jpg","1","0","0","",""
"","feedback","","html-keyboard-response","567","561466","0.0-1.0-780.0-0.0","0","0","53258","","null","","","null","86","","","","","","","","","","","","","","","",""
"","time_out","","html-keyboard-response","568","563468","0.0-1.0-782.0-0.0","0","0","53258","","null","","","null","86","","","","","","","","","","","","","","","",""
"","ITI","","html-keyboard-response","569","564470","0.0-1.0-783.0","0","0","53258","","null","","","null","86","","","","","","","","","","","","","","","NaN",""
"","S1","","html-keyboard-response","570","564722","0.0-1.0-785.0","0","0","53258","","null","","","null","87","","","","","","","","","","","","","","","",""
"","ISI","","html-keyboard-response","571","566724","0.0-1.0-786.0","0","0","53258","","null","","","null","87","NaN","","","","","","","","","","","","","","",""
"","S2","","html-keyboard-response","572","566976","0.0-1.0-787.0","0","0","53258","","null","","","null","87","","NaN","","","","","","","","","","","","","",""
"","response","","html-keyboard-response","573","567543","0.0-1.0-788.0-0.0","0","0","53258","","565","","","68","87","","","2","87","training","adjacent","ED","5","4","O.jpg","R.jpg","1","0","0","",""
"","feedback","","html-keyboard-response","574","568545","0.0-1.0-789.0-0.0","0","0","53258","","null","","","null","87","","","","","","","","","","","","","","","",""
"","time_out","","html-keyboard-response","575","570547","0.0-1.0-791.0-0.0","0","0","53258","","null","","","null","87","","","","","","","","","","","","","","","",""
"","ITI","","html-keyboard-response","576","571549","0.0-1.0-792.0","0","0","53258","","null","","","null","87","","","","","","","","","","","","","","","NaN",""
"","S1","","html-keyboard-response","577","571801","0.0-1.0-794.0","0","0","53258","","null","","","null","88","","","","","","","","","","","","","","","",""
"","ISI","","html-keyboard-response","578","573803","0.0-1.0-795.0","0","0","53258","","null","","","null","88","NaN","","","","","","","","","","","","","","",""
"","S2","","html-keyboard-response","579","574055","0.0-1.0-796.0","0","0","53258","","null","","","null","88","","NaN","","","","","","","","","","","","","",""
"","response","","html-keyboard-response","580","574375","0.0-1.0-797.0-0.0","0","0","53258","","319","","","75","88","","","2","88","training","adjacent","DE","4","5","R.jpg","O.jpg","0","1","0","",""
"","feedback","","html-keyboard-response","581","575378","0.0-1.0-798.0-0.0","0","0","53258","","null","","","null","88","","","","","","","","","","","","","","","",""
