"success","ttype","start_time","trial_type","trial_index","time_elapsed","internal_node_id","warning","missed_checkup","PID","view_history","rt","responses","repeat_instructions","key_press","index","keypress_isi","keypress_S2","block","trial_num","phase","group_type","pair_type","S1_stim","S2_stim","S1_img","S2_img","S1_chosen","S1_higher","accuracy","keypress_iti","total_bonus_tally"
"true","full_screen","d03072023hr1746","fullscreen","0","207562","0.0-0.0","0","0","83965","","","","","","","","","","","","","","","","","","","","","",""
"","instructions","","instructions","1","294243","0.0-1.0-0.0-0.0","0","0","83965","[{""page_index"":0,""viewing_time"":11554},{""page_index"":1,""viewing_time"":51014},{""page_index"":2,""viewing_time"":18328},{""page_index"":3,""viewing_time"":5782}]","86679","","","","","","","","","","","","","","","","","","","",""
"","comprehension_check","","survey-multi-choice","2","326987","0.0-1.0-0.0-1.0","0","0","83965","","32738","{""Q0"":""True"",""Q1"":""K"",""Q2"":""Once the second image appears and while the screen 'MAKE A CHOICE' is shown"",""Q3"":""Green mark"",""Q4"":""either D or K""}","0","","","","","","","","","","","","","","","","","",""
"","start_exp","","html-keyboard-response","3","333203","0.0-1.0-1.0","0","0","83965","","6212","","","32","","","","","","","","","","","","","","","","",""
"","S1","","html-keyboard-response","4","333467","0.0-1.0-2.0","0","0","83965","","null","","","null","0","","","","","","","","","","","","","","","",""
"","ISI","","html-keyboard-response","5","334472","0.0-1.0-3.0","0","0","83965","","null","","","null","0","NaN","","","","","","","","","","","","","","",""
"","S2","","html-keyboard-response","6","334727","0.0-1.0-4.0","0","0","83965","","null","","","null","0","","NaN","","","","","","","","","","","","","",""
"","response","","html-keyboard-response","7","335585","0.0-1.0-5.0-0.0","0","0","83965","","855","","","68","0","","","1","0","training","adjacent","CB","3","2","Q.jpg","P.jpg","0","0","1","",""
"","feedback","","html-keyboard-response","8","336595","0.0-1.0-6.0-0.0","0","0","83965","","null","","","null","0","","","","","","","","","","","","","","","",""
"","ITI","","html-keyboard-response","9","337601","0.0-1.0-9.0","0","0","83965","","null","","","null","0","","","","","","","","","","","","","","","NaN",""
"","S1","","html-keyboard-response","10","337856","0.0-1.0-11.0","0","0","83965","","null","","","null","1","","","","","","","","","","","","","","","",""
"","ISI","","html-keyboard-response","11","338866","0.0-1.0-12.0","0","0","83965","","null","","","null","1","NaN","","","","","","","","","","","","","","",""
"","S2","","html-keyboard-response","12","339121","0.0-1.0-13.0","0","0","83965","","null","","","null","1","","NaN","","","","","","","","","","","","","",""
"","response","","html-keyboard-response","13","339598","0.0-1.0-14.0-0.0","0","0","83965","","475","","","75","1","","","1","1","training","adjacent","EF","5","6","R.jpg","M.jpg","1","1","1","",""
"","feedback","","html-keyboard-response","14","340608","0.0-1.0-15.0-0.0","0","0","83965","","null","","","null","1","","","","","","","","","","","","","","","",""
"","ITI","","html-keyboard-response","15","341618","0.0-1.0-18.0","0","0","83965","","null","","","null","1","","","","","","","","","","","","","","","NaN",""
"","S1","","html-keyboard-response","16","341873","0.0-1.0-20.0","0","0","83965","","null","","","null","2","","","","","","","","","","","","","","","",""
"","ISI","","html-keyboard-response","17","342883","0.0-1.0-21.0","0","0","83965","","null","","","null","2","NaN","","","","","","","","","","","","","","",""
"","S2","","html-keyboard-response","18","343144","0.0-1.0-22.0","0","0","83965","","null","","","null","2","","NaN","","","","","","","","","","","","","",""
"","response","","html-keyboard-response","19","343891","0.0-1.0-23.0-0.0","0","0","83965","","744","","","75","2","","","1","2","training","adjacent","CB","3","2","Q.jpg","P.jpg","1","0","0","",""
"","feedback","","html-keyboard-response","20","344898","0.0-1.0-24.0-0.0","0","0","83965","","null","","","null","2","","","","","","","","","","","","","","","",""
"","time_out","","html-keyboard-response","21","346906","0.0-1.0-26.0-0.0","0","0","83965","","null","","","null","2","","","","","","","","","","","","","","","",""
"","ITI","","html-keyboard-response","22","347915","0.0-1.0-27.0","0","0","83965","","null","","","null","2","","","","","","","","","","","","","","","NaN",""
"","S1","","html-keyboard-response","23","348177","0.0-1.0-29.0","0","0","83965","","null","","","null","3","","","","","","","","","","","","","","","",""
"","ISI","","html-keyboard-response","24","349187","0.0-1.0-30.0","0","0","83965","","null","","","null","3","NaN","","","","","","","","","","","","","","",""
"","S2","","html-keyboard-response","25","349449","0.0-1.0-31.0","0","0","83965","","null","","","null","3","","NaN","","","","","","","","","","","","","",""
"","response","","html-keyboard-response","26","349850","0.0-1.0-32.0-0.0","0","0","83965","","400","","","75","3","","","1","3","training","adjacent","AB","1","2","N.jpg","P.jpg","1","1","1","",""
"","feedback","","html-keyboard-response","27","350859","0.0-1.0-33.0-0.0","0","0","83965","","null","","","null","3","","","","","","","","","","","","","","","",""
"","ITI","","html-keyboard-response","28","351864","0.0-1.0-36.0","0","0","83965","","null","","","null","3","","","","","","","","","","","","","","","NaN",""
"","S1","","html-keyboard-response","29","352123","0.0-1.0-38.0","0","0","83965","","null","","","null","4","","","","","","","","","","","","","","","",""
"","ISI","","html-keyboard-response","30","353129","0.0-1.0-39.0","0","0","83965","","null","","","null","4","NaN","","","","","","","","","","","","","","",""
"","S2","","html-keyboard-response","31","353385","0.0-1.0-40.0","0","0","83965","","null","","","null","4","","NaN","","","","","","","","","","","","","",""
"","response","","html-keyboard-response","32","353958","0.0-1.0-41.0-0.0","0","0","83965","","571","","","75","4","","","1","4","training","adjacent","GF","7","6","O.jpg","M.jpg","1","0","0","",""
"","feedback","","html-keyboard-response","33","354969","0.0-1.0-42.0-0.0","0","0","83965","","null","","","null","4","","","","","","","","","","","","","","","",""
"","time_out","","html-keyboard-response","34","356978","0.0-1.0-44.0-0.0","0","0","83965","","null","","","null","4","","","","","","","","","","","","","","","",""
"","ITI","","html-keyboard-response","35","357986","0.0-1.0-45.0","0","0","83965","","null","","","null","4","","","","","","","","","","","","","","","NaN",""
"","S1","","html-keyboard-response","36","358243","0.0-1.0-47.0","0","0","83965","","null","","","null","5","","","","","","","","","","","","","","","",""
"","ISI","","html-keyboard-response","37","359247","0.0-1.0-48.0","0","0","83965","","null","","","null","5","NaN","","","","","","","","","","","","","","",""
"","S2","","html-keyboard-response","38","359508","0.0-1.0-49.0","0","0","83965","","null","","","null","5","","NaN","","","","","","","","","","","","","",""
"","response","","html-keyboard-response","39","359905","0.0-1.0-50.0-0.0","0","0","83965","","396","","","68","5","","","1","5","training","adjacent","EF","5","6","R.jpg","M.jpg","0","1","0","",""
"","feedback","","html-keyboard-response","40","360914","0.0-1.0-51.0-0.0","0","0","83965","","null","","","null","5","","","","","","","","","","","","","","","",""
"","time_out","","html-keyboard-response","41","362922","0.0-1.0-53.0-0.0","0","0","83965","","null","","","null","5","","","","","","","","","","","","","","","",""
"","ITI","","html-keyboard-response","42","363931","0.0-1.0-54.0","0","0","83965","","null","","","null","5","","","","","","","","","","","","","","","NaN",""
"","S1","","html-keyboard-response","43","364194","0.0-1.0-56.0","0","0","83965","","null","","","null","6","","","","","","","","","","","","","","","",""
"","ISI","","html-keyboard-response","44","365203","0.0-1.0-57.0","0","0","83965","","null","","","null","6","NaN","","","","","","","","","","","","","","",""
"","S2","","html-keyboard-response","45","365465","0.0-1.0-58.0","0","0","83965","","null","","","null","6","","NaN","","","","","","","","","","","","","",""
"","response","","html-keyboard-response","46","366223","0.0-1.0-59.0-0.0","0","0","83965","","756","","","68","6","","","1","6","training","adjacent","CD","3","4","Q.jpg","L.jpg","0","1","0","",""
"","feedback","","html-keyboard-response","47","367236","0.0-1.0-60.0-0.0","0","0","83965","","null","","","null","6","","","","","","","","","","","","","","","",""
"","time_out","","html-keyboard-response","48","369244","0.0-1.0-62.0-0.0","0","0","83965","","null","","","null","6","","","","","","","","","","","","","","","",""
"","ITI","","html-keyboard-response","49","370248","0.0-1.0-63.0","0","0","83965","","null","","","null","6","","","","","","","","","","","","","","","NaN",""
"","S1","","html-keyboard-response","50","370503","0.0-1.0-65.0","0","0","83965","","null","","","null","7","","","","","","","","","","","","","","","",""
"","ISI","","html-keyboard-response","51","371514","0.0-1.0-66.0","0","0","83965","","null","","","null","7","NaN","","","","","","","","","","","","","","",""
"","S2","","html-keyboard-response","52","371769","0.0-1.0-67.0","0","0","83965","","null","","","null","7","","NaN","","","","","","","","","","","","","",""
"","response","","html-keyboard-response","53","372474","0.0-1.0-68.0-0.0","0","0","83965","","703","","","75","7","","","1","7","training","adjacent","BA","2","1","P.jpg","N.jpg","1","0","0","",""
"","feedback","","html-keyboard-response","54","373481","0.0-1.0-69.0-0.0","0","0","83965","","null","","","null","7","","","","","","","","","","","","","","","",""
"","time_out","","html-keyboard-response","55","375490","0.0-1.0-71.0-0.0","0","0","83965","","null","","","null","7","","","","","","","","","","","","","","","",""
"","ITI","","html-keyboard-response","56","376499","0.0-1.0-72.0","0","0","83965","","null","","","null","7","","","","","","","","","","","","","","","NaN",""
"","S1","","html-keyboard-response","57","376755","0.0-1.0-74.0","0","0","83965","","null","","","null","8","","","","","","","","","","","","","","","",""
"","ISI","","html-keyboard-response","58","377760","0.0-1.0-75.0","0","0","83965","","null","","","null","8","NaN","","","","","","","","","","","","","","",""
"","S2","","html-keyboard-response","59","378020","0.0-1.0-76.0","0","0","83965","","null","","","null","8","","NaN","","","","","","","","","","","","","",""
"","response","","html-keyboard-response","60","378835","0.0-1.0-77.0-0.0","0","0","83965","","813","","","68","8","","","1","8","training","adjacent","CD","3","4","Q.jpg","L.jpg","0","1","0","",""
"","feedback","","html-keyboard-response","61","379844","0.0-1.0-78.0-0.0","0","0","83965","","null","","","null","8","","","","","","","","","","","","","","","",""
"","time_out","","html-keyboard-response","62","381851","0.0-1.0-80.0-0.0","0","0","83965","","null","","","null","8","","","","","","","","","","","","","","","",""
"","ITI","","html-keyboard-response","63","382857","0.0-1.0-81.0","0","0","83965","","null","","","null","8","","","","","","","","","","","","","","","NaN",""
"","S1","","html-keyboard-response","64","383112","0.0-1.0-83.0","0","0","83965","","null","","","null","9","","","","","","","","","","","","","","","",""
"","ISI","","html-keyboard-response","65","384122","0.0-1.0-84.0","0","0","83965","","null","","","null","9","NaN","","","","","","","","","","","","","","",""
"","S2","","html-keyboard-response","66","384377","0.0-1.0-85.0","0","0","83965","","null","","","null","9","","NaN","","","","","","","","","","","","","",""
"","response","","html-keyboard-response","67","385340","0.0-1.0-86.0-0.0","0","0","83965","","961","","","75","9","","","1","9","training","adjacent","FG","6","7","M.jpg","O.jpg","1","1","1","",""
"","feedback","","html-keyboard-response","68","386346","0.0-1.0-87.0-0.0","0","0","83965","","null","","","null","9","","","","","","","","","","","","","","","",""
"","ITI","","html-keyboard-response","69","387356","0.0-1.0-90.0","0","0","83965","","null","","","null","9","","","","","","","","","","","","","","","NaN",""
"","S1","","html-keyboard-response","70","387617","0.0-1.0-92.0","0","0","83965","","null","","","null","10","","","","","","","","","","","","","","","",""
"","ISI","","html-keyboard-response","71","388627","0.0-1.0-93.0","0","0","83965","","null","","","null","10","NaN","","","","","","","","","","","","","","",""
"","S2","","html-keyboard-response","72","388888","0.0-1.0-94.0","0","0","83965","","null","","","null","10","","NaN","","","","","","","","","","","","","",""
"","response","","html-keyboard-response","73","389683","0.0-1.0-95.0-0.0","0","0","83965","","793","","","68","10","","","1","10","training","adjacent","ED","5","4","R.jpg","L.jpg","0","0","1","",""
"","feedback","","html-keyboard-response","74","390688","0.0-1.0-96.0-0.0","0","0","83965","","null","","","null","10","","","","","","","","","","","","","","","",""
"","ITI","","html-keyboard-response","75","391698","0.0-1.0-99.0","0","0","83965","","null","","","null","10","","","","","","","","","","","","","","","NaN",""
"","S1","","html-keyboard-response","76","391953","0.0-1.0-101.0","0","0","83965","","null","","","null","11","","","","","","","","","","","","","","","",""
"","ISI","","html-keyboard-response","77","392963","0.0-1.0-102.0","0","0","83965","","null","","","null","11","NaN","","","","","","","","","","","","","","",""
"","S2","","html-keyboard-response","78","393225","0.0-1.0-103.0","0","0","83965","","null","","","null","11","","NaN","","","","","","","","","","","","","",""
"","response","","html-keyboard-response","79","393957","0.0-1.0-104.0-0.0","0","0","83965","","731","","","68","11","","","1","11","training","adjacent","CD","3","4","Q.jpg","L.jpg","0","1","0","",""
"","feedback","","html-keyboard-response","80","394968","0.0-1.0-105.0-0.0","0","0","83965","","null","","","null","11","","","","","","","","","","","","","","","",""
"","time_out","","html-keyboard-response","81","396977","0.0-1.0-107.0-0.0","0","0","83965","","null","","","null","11","","","","","","","","","","","","","","","",""
"","ITI","","html-keyboard-response","82","397985","0.0-1.0-108.0","0","0","83965","","null","","","null","11","","","","","","","","","","","","","","","NaN",""
"","S1","","html-keyboard-response","83","398240","0.0-1.0-110.0","0","0","83965","","null","","","null","12","","","","","","","","","","","","","","","",""
"","ISI","","html-keyboard-response","84","399250","0.0-1.0-111.0","0","0","83965","","null","","","null","12","NaN","","","","","","","","","","","","","","",""
"","S2","","html-keyboard-response","85","399505","0.0-1.0-112.0","0","0","83965","","null","","","null","12","","NaN","","","","","","","","","","","","","",""
"","response","","html-keyboard-response","86","399944","0.0-1.0-113.0-0.0","0","0","83965","","437","","","75","12","","","1","12","training","adjacent","FE","6","5","M.jpg","R.jpg","1","0","0","",""
"","feedback","","html-keyboard-response","87","400956","0.0-1.0-114.0-0.0","0","0","83965","","null","","","null","12","","","","","","","","","","","","","","","",""
"","time_out","","html-keyboard-response","88","402964","0.0-1.0-116.0-0.0","0","0","83965","","null","","","null","12","","","","","","","","","","","","","","","",""
"","ITI","","html-keyboard-response","89","403970","0.0-1.0-117.0","0","0","83965","","null","","","null","12","","","","","","","","","","","","","","","NaN",""
"","S1","","html-keyboard-response","90","404225","0.0-1.0-119.0","0","0","83965","","null","","","null","13","","","","","","","","","","","","","","","",""
"","ISI","","html-keyboard-response","91","405235","0.0-1.0-120.0","0","0","83965","","null","","","null","13","NaN","","","","","","","","","","","","","","",""
"","S2","","html-keyboard-response","92","405496","0.0-1.0-121.0","0","0","83965","","null","","","null","13","","NaN","","","","","","","","","","","","","",""
"","response","","html-keyboard-response","93","406300","0.0-1.0-122.0-0.0","0","0","83965","","802","","","68","13","","","1","13","training","adjacent","ED","5","4","R.jpg","L.jpg","0","0","1","",""
"","feedback","","html-keyboard-response","94","407308","0.0-1.0-123.0-0.0","0","0","83965","","null","","","null","13","","","","","","","","","","","","","","","",""
"","ITI","","html-keyboard-response","95","408312","0.0-1.0-126.0","0","0","83965","","null","","","null","13","","","","","","","","","","","","","","","NaN",""
"","S1","","html-keyboard-response","96","408572","0.0-1.0-128.0","0","0","83965","","null","","","null","14","","","","","","","","","","","","","","","",""
"","ISI","","html-keyboard-response","97","409578","0.0-1.0-129.0","0","0","83965","","null","","","null","14","NaN","","","","","","","","","","","","","","",""
"","S2","","html-keyboard-response","98","409833","0.0-1.0-130.0","0","0","83965","","null","","","null","14","","NaN","","","","","","","","","","","","","",""
"","response","","html-keyboard-response","99","410716","0.0-1.0-131.0-0.0","0","0","83965","","882","","","75","14","","","1","14","training","adjacent","FG","6","7","M.jpg","O.jpg","1","1","1","",""
"","feedback","","html-keyboard-response","100","411724","0.0-1.0-132.0-0.0","0","0","83965","","null","","","null","14","","","","","","","","","","","","","","","",""
"","ITI","","html-keyboard-response","101","412729","0.0-1.0-135.0","0","0","83965","","null","","","null","14","","","","","","","","","","","","","","","NaN",""
"","S1","","html-keyboard-response","102","412985","0.0-1.0-137.0","0","0","83965","","null","","","null","15","","","","","","","","","","","","","","","",""
"","ISI","","html-keyboard-response","103","413995","0.0-1.0-138.0","0","0","83965","","null","","","null","15","NaN","","","","","","","","","","","","","","",""
"","S2","","html-keyboard-response","104","414250","0.0-1.0-139.0","0","0","83965","","null","","","null","15","","NaN","","","","","","","","","","","","","",""
"","response","","html-keyboard-response","105","415285","0.0-1.0-140.0-0.0","0","0","83965","","1033","","","75","15","","","1","15","training","adjacent","DC","4","3","L.jpg","Q.jpg","1","0","0","",""
"","feedback","","html-keyboard-response","106","416299","0.0-1.0-141.0-0.0","0","0","83965","","null","","","null","15","","","","","","","","","","","","","","","",""
"","time_out","","html-keyboard-response","107","418308","0.0-1.0-143.0-0.0","0","0","83965","","null","","","null","15","","","","","","","","","","","","","","","",""
"","ITI","","html-keyboard-response","108","419312","0.0-1.0-144.0","0","0","83965","","null","","","null","15","","","","","","","","","","","","","","","NaN",""
"","S1","","html-keyboard-response","109","419573","0.0-1.0-146.0","0","0","83965","","null","","","null","16","","","","","","","","","","","","","","","",""
"","ISI","","html-keyboard-response","110","420578","0.0-1.0-147.0","0","0","83965","","null","","","null","16","NaN","","","","","","","","","","","","","","",""
"","S2","","html-keyboard-response","111","420833","0.0-1.0-148.0","0","0","83965","","null","","","null","16","","NaN","","","","","","","","","","","","","",""
"","response","","html-keyboard-response","112","421649","0.0-1.0-149.0-0.0","0","0","83965","","814","","","75","16","","","1","16","training","adjacent","BA","2","1","P.jpg","N.jpg","1","0","0","",""
"","feedback","","html-keyboard-response","113","422655","0.0-1.0-150.0-0.0","0","0","83965","","null","","","null","16","","","","","","","","","","","","","","","",""
"","time_out","","html-keyboard-response","114","424665","0.0-1.0-152.0-0.0","0","0","83965","","null","","","null","16","","","","","","","","","","","","","","","",""
"","ITI","","html-keyboard-response","115","425667","0.0-1.0-153.0","0","0","83965","","null","","","null","16","","","","","","","","","","","","","","","NaN",""
"","S1","","html-keyboard-response","116","425924","0.0-1.0-155.0","0","0","83965","","null","","","null","17","","","","","","","","","","","","","","","",""
"","ISI","","html-keyboard-response","117","426929","0.0-1.0-156.0","0","0","83965","","null","","","null","17","NaN","","","","","","","","","","","","","","",""
"","S2","","html-keyboard-response","118","427187","0.0-1.0-157.0","0","0","83965","","null","","","null","17","","NaN","","","","","","","","","","","","","",""
"","response","","html-keyboard-response","119","427950","0.0-1.0-158.0-0.0","0","0","83965","","761","","","75","17","","","1","17","training","adjacent","BA","2","1","P.jpg","N.jpg","1","0","0","",""
"","feedback","","html-keyboard-response","120","428960","0.0-1.0-159.0-0.0","0","0","83965","","null","","","null","17","","","","","","","","","","","","","","","",""
"","time_out","","html-keyboard-response","121","430969","0.0-1.0-161.0-0.0","0","0","83965","","null","","","null","17","","","","","","","","","","","","","","","",""
"","ITI","","html-keyboard-response","122","431979","0.0-1.0-162.0","0","0","83965","","null","","","null","17","","","","","","","","","","","","","","","NaN",""
"","S1","","html-keyboard-response","123","432234","0.0-1.0-164.0","0","0","83965","","null","","","null","18","","","","","","","","","","","","","","","",""
"","ISI","","html-keyboard-response","124","433244","0.0-1.0-165.0","0","0","83965","","null","","","null","18","NaN","","","","","","","","","","","","","","",""
"","S2","","html-keyboard-response","125","433506","0.0-1.0-166.0","0","0","83965","","null","","","null","18","","NaN","","","","","","","","","","","","","",""
"","response","","html-keyboard-response","126","434245","0.0-1.0-167.0-0.0","0","0","83965","","738","","","68","18","","","1","18","training","adjacent","AB","1","2","N.jpg","P.jpg","0","1","0","",""
"","feedback","","html-keyboard-response","127","435252","0.0-1.0-168.0-0.0","0","0","83965","","null","","","null","18","","","","","","","","","","","","","","","",""
"","time_out","","html-keyboard-response","128","437260","0.0-1.0-170.0-0.0","0","0","83965","","null","","","null","18","","","","","","","","","","","","","","","",""
"","ITI","","html-keyboard-response","129","438266","0.0-1.0-171.0","0","0","83965","","null","","","null","18","","","","","","","","","","","","","","","NaN",""
"","S1","","html-keyboard-response","130","438521","0.0-1.0-173.0","0","0","83965","","null","","","null","19","","","","","","","","","","","","","","","",""
"","ISI","","html-keyboard-response","131","439531","0.0-1.0-174.0","0","0","83965","","null","","","null","19","NaN","","","","","","","","","","","","","","",""
"","S2","","html-keyboard-response","132","439792","0.0-1.0-175.0","0","0","83965","","null","","","null","19","","NaN","","","","","","","","","","","","","",""
"","response","","html-keyboard-response","133","440514","0.0-1.0-176.0-0.0","0","0","83965","","721","","","68","19","","","1","19","training","adjacent","GF","7","6","O.jpg","M.jpg","0","0","1","",""
"","feedback","","html-keyboard-response","134","441522","0.0-1.0-177.0-0.0","0","0","83965","","null","","","null","19","","","","","","","","","","","","","","","",""
"","ITI","","html-keyboard-response","135","442532","0.0-1.0-180.0","0","0","83965","","null","","","null","19","","","","","","","","","","","","","","","NaN",""
"","S1","","html-keyboard-response","136","442788","0.0-1.0-182.0","0","0","83965","","null","","","null","20","","","","","","","","","","","","","","","",""
"","ISI","","html-keyboard-response","137","443792","0.0-1.0-183.0","0","0","83965","","null","","","null","20","NaN","","","","","","","","","","","","","","",""
"","S2","","html-keyboard-response","138","444053","0.0-1.0-184.0","0","0","83965","","null","","","null","20","","NaN","","","","","","","","","","","","","",""
"","response","","html-keyboard-response","139","444787","0.0-1.0-185.0-0.0","0","0","83965","","733","","","68","20","","","1","20","training","adjacent","EF","5","6","R.jpg","M.jpg","0","1","0","",""
"","feedback","","html-keyboard-response","140","445795","0.0-1.0-186.0-0.0","0","0","83965","","null","","","null","20","","","","","","","","","","","","","","","",""
"","time_out","","html-keyboard-response","141","447803","0.0-1.0-188.0-0.0","0","0","83965","","null","","","null","20","","","","","","","","","","","","","","","",""
"","ITI","","html-keyboard-response","142","448812","0.0-1.0-189.0","0","0","83965","","null","","","null","20","","","","","","","","","","","","","","","NaN",""
"","S1","","html-keyboard-response","143","449075","0.0-1.0-191.0","0","0","83965","","null","","","null","21","","","","","","","","","","","","","","","",""
"","ISI","","html-keyboard-response","144","450084","0.0-1.0-192.0","0","0","83965","","null","","","null","21","NaN","","","","","","","","","","","","","","",""
"","S2","","html-keyboard-response","145","450346","0.0-1.0-193.0","0","0","83965","","null","","","null","21","","NaN","","","","","","","","","","","","","",""
"","response","","html-keyboard-response","146","450968","0.0-1.0-194.0-0.0","0","0","83965","","620","","","75","21","","","1","21","training","adjacent","DC","4","3","L.jpg","Q.jpg","1","0","0","",""
"","feedback","","html-keyboard-response","147","451977","0.0-1.0-195.0-0.0","0","0","83965","","null","","","null","21","","","","","","","","","","","","","","","",""
"","time_out","","html-keyboard-response","148","453986","0.0-1.0-197.0-0.0","0","0","83965","","null","","","null","21","","","","","","","","","","","","","","","",""
"","ITI","","html-keyboard-response","149","454996","0.0-1.0-198.0","0","0","83965","","null","","","null","21","","","","","","","","","","","","","","","NaN",""
"","S1","","html-keyboard-response","150","455257","0.0-1.0-200.0","0","0","83965","","null","","","null","22","","","","","","","","","","","","","","","",""
"","ISI","","html-keyboard-response","151","456266","0.0-1.0-201.0","0","0","83965","","null","","","null","22","NaN","","","","","","","","","","","","","","",""
"","S2","","html-keyboard-response","152","456522","0.0-1.0-202.0","0","0","83965","","null","","","null","22","","NaN","","","","","","","","","","","","","",""
"","response","","html-keyboard-response","153","457421","0.0-1.0-203.0-0.0","0","0","83965","","898","","","75","22","","","1","22","training","adjacent","BA","2","1","P.jpg","N.jpg","1","0","0","",""
"","feedback","","html-keyboard-response","154","458426","0.0-1.0-204.0-0.0","0","0","83965","","null","","","null","22","","","","","","","","","","","","","","","",""
"","time_out","","html-keyboard-response","155","460435","0.0-1.0-206.0-0.0","0","0","83965","","null","","","null","22","","","","","","","","","","","","","","","",""
"","ITI","","html-keyboard-response","156","461444","0.0-1.0-207.0","0","0","83965","","null","","","null","22","","","","","","","","","","","","","","","NaN",""
"","S1","","html-keyboard-response","157","461707","0.0-1.0-209.0","0","0","83965","","null","","","null","23","","","","","","","","","","","","","","","",""
"","ISI","","html-keyboard-response","158","462717","0.0-1.0-210.0","0","0","83965","","null","","","null","23","NaN","","","","","","","","","","","","","","",""
"","S2","","html-keyboard-response","159","462978","0.0-1.0-211.0","0","0","83965","","null","","","null","23","","NaN","","","","","","","","","","","","","",""
"","response","","html-keyboard-response","160","462992","0.0-1.0-212.0-0.0","0","0","83965","","13","","","75","23","","","1","23","training","adjacent","DC","4","3","L.jpg","Q.jpg","1","0","0","",""
"","feedback","","html-keyboard-response","161","464004","0.0-1.0-213.0-0.0","0","0","83965","","null","","","null","23","","","","","","","","","","","","","","","",""
"","time_out","","html-keyboard-response","162","466013","0.0-1.0-215.0-0.0","0","0","83965","","null","","","null","23","","","","","","","","","","","","","","","",""
"","ITI","","html-keyboard-response","163","467018","0.0-1.0-216.0","0","0","83965","","null","","","null","23","","","","","","","","","","","","","","","NaN",""
"","S1","","html-keyboard-response","164","467274","0.0-1.0-218.0","0","0","83965","","null","","","null","24","","","","","","","","","","","","","","","",""
"","ISI","","html-keyboard-response","165","468283","0.0-1.0-219.0","0","0","83965","","null","","","null","24","NaN","","","","","","","","","","","","","","",""
"","S2","","html-keyboard-response","166","468539","0.0-1.0-220.0","0","0","83965","","null","","","null","24","","NaN","","","","","","","","","","","","","",""
"","response","","html-keyboard-response","167","468993","0.0-1.0-221.0-0.0","0","0","83965","","452","","","68","24","","","1","24","training","adjacent","AB","1","2","N.jpg","P.jpg","0","1","0","",""
"","feedback","","html-keyboard-response","168","470002","0.0-1.0-222.0-0.0","0","0","83965","","null","","","null","24","","","","","","","","","","","","","","","",""
"","time_out","","html-keyboard-response","169","472010","0.0-1.0-224.0-0.0","0","0","83965","","null","","","null","24","","","","","","","","","","","","","","","",""
"","ITI","","html-keyboard-response","170","473021","0.0-1.0-225.0","0","0","83965","","null","","","null","24","","","","","","","","","","","","","","","NaN",""
"","S1","","html-keyboard-response","171","473282","0.0-1.0-227.0","0","0","83965","","null","","","null","25","","","","","","","","","","","","","","","",""
"","ISI","","html-keyboard-response","172","474292","0.0-1.0-228.0","0","0","83965","","null","","","null","25","NaN","","","","","","","","","","","","","","",""
"","S2","","html-keyboard-response","173","474553","0.0-1.0-229.0","0","0","83965","","null","","","null","25","","NaN","","","","","","","","","","","","","",""
"","response","","html-keyboard-response","174","475015","0.0-1.0-230.0-0.0","0","0","83965","","459","","","68","25","","","1","25","training","adjacent","CB","3","2","Q.jpg","P.jpg","0","0","1","",""
"","feedback","","html-keyboard-response","175","476028","0.0-1.0-231.0-0.0","0","0","83965","","null","","","null","25","","","","","","","","","","","","","","","",""
"","ITI","","html-keyboard-response","176","477037","0.0-1.0-234.0","0","0","83965","","null","","","null","25","","","","","","","","","","","","","","","NaN",""
"","S1","","html-keyboard-response","177","477298","0.0-1.0-236.0","0","0","83965","","null","","","null","26","","","","","","","","","","","","","","","",""
"","ISI","","html-keyboard-response","178","478308","0.0-1.0-237.0","0","0","83965","","null","","","null","26","NaN","","","","","","","","","","","","","","",""
"","S2","","html-keyboard-response","179","478570","0.0-1.0-238.0","0","0","83965","","null","","","null","26","","NaN","","","","","","","","","","","","","",""
"","response","","html-keyboard-response","180","478947","0.0-1.0-239.0-0.0","0","0","83965","","375","","","75","26","","","1","26","training","adjacent","DE","4","5","L.jpg","R.jpg","1","1","1","",""
"","feedback","","html-keyboard-response","181","479956","0.0-1.0-240.0-0.0","0","0","83965","","null","","","null","26","","","","","","","","","","","","","","","",""
"","ITI","","html-keyboard-response","182","480962","0.0-1.0-243.0","0","0","83965","","null","","","null","26","","","","","","","","","","","","","","","NaN",""
"","S1","","html-keyboard-response","183","481218","0.0-1.0-245.0","0","0","83965","","null","","","null","27","","","","","","","","","","","","","","","",""
"","ISI","","html-keyboard-response","184","482228","0.0-1.0-246.0","0","0","83965","","null","","","null","27","NaN","","","","","","","","","","","","","","",""
"","S2","","html-keyboard-response","185","482489","0.0-1.0-247.0","0","0","83965","","null","","","null","27","","NaN","","","","","","","","","","","","","",""
"","response","","html-keyboard-response","186","483198","0.0-1.0-248.0-0.0","0","0","83965","","708","","","75","27","","","1","27","training","adjacent","CB","3","2","Q.jpg","P.jpg","1","0","0","",""
"","feedback","","html-keyboard-response","187","484213","0.0-1.0-249.0-0.0","0","0","83965","","null","","","null","27","","","","","","","","","","","","","","","",""
"","time_out","","html-keyboard-response","188","486220","0.0-1.0-251.0-0.0","0","0","83965","","null","","","null","27","","","","","","","","","","","","","","","",""
"","ITI","","html-keyboard-response","189","487225","0.0-1.0-252.0","0","0","83965","","null","","","null","27","","","","","","","","","","","","","","","NaN",""
"","S1","","html-keyboard-response","190","487481","0.0-1.0-254.0","0","0","83965","","null","","","null","28","","","","","","","","","","","","","","","",""
"","ISI","","html-keyboard-response","191","488491","0.0-1.0-255.0","0","0","83965","","null","","","null","28","NaN","","","","","","","","","","","","","","",""
"","S2","","html-keyboard-response","192","488747","0.0-1.0-256.0","0","0","83965","","null","","","null","28","","NaN","","","","","","","","","","","","","",""
"","response","","html-keyboard-response","193","489435","0.0-1.0-257.0-0.0","0","0","83965","","687","","","68","28","","","1","28","training","adjacent","CD","3","4","Q.jpg","L.jpg","0","1","0","",""
"","feedback","","html-keyboard-response","194","490441","0.0-1.0-258.0-0.0","0","0","83965","","null","","","null","28","","","","","","","","","","","","","","","",""
"","time_out","","html-keyboard-response","195","492450","0.0-1.0-260.0-0.0","0","0","83965","","null","","","null","28","","","","","","","","","","","","","","","",""
"","ITI","","html-keyboard-response","196","493460","0.0-1.0-261.0","0","0","83965","","null","","","null","28","","","","","","","","","","","","","","","NaN",""
"","S1","","html-keyboard-response","197","493722","0.0-1.0-263.0","0","0","83965","","null","","","null","29","","","","","","","","","","","","","","","",""
"","ISI","","html-keyboard-response","198","494732","0.0-1.0-264.0","0","0","83965","","null","","","null","29","NaN","","","","","","","","","","","","","","",""
"","S2","","html-keyboard-response","199","494993","0.0-1.0-265.0","0","0","83965","","null","","","null","29","","NaN","","","","","","","","","","","","","",""
"","response","","html-keyboard-response","200","495149","0.0-1.0-266.0-0.0","0","0","83965","","155","","","75","29","","","1","29","training","adjacent","FE","6","5","M.jpg","R.jpg","1","0","0","",""
"","feedback","","html-keyboard-response","201","496154","0.0-1.0-267.0-0.0","0","0","83965","","null","","","null","29","","","","","","","","","","","","","","","",""
"","time_out","","html-keyboard-response","202","498162","0.0-1.0-269.0-0.0","0","0","83965","","null","","","null","29","","","","","","","","","","","","","","","",""
"","ITI","","html-keyboard-response","203","499172","0.0-1.0-270.0","0","0","83965","","null","","","null","29","","","","","","","","","","","","","","","NaN",""
"","S1","","html-keyboard-response","204","499434","0.0-1.0-272.0","0","0","83965","","null","","","null","30","","","","","","","","","","","","","","","",""
"","ISI","","html-keyboard-response","205","500444","0.0-1.0-273.0","0","0","83965","","null","","","null","30","NaN","","","","","","","","","","","","","","",""
"","S2","","html-keyboard-response","206","500705","0.0-1.0-274.0","0","0","83965","","null","","","null","30","","NaN","","","","","","","","","","","","","",""
"","response","","html-keyboard-response","207","501172","0.0-1.0-275.0-0.0","0","0","83965","","465","","","75","30","","","1","30","training","adjacent","BC","2","3","P.jpg","Q.jpg","1","1","1","",""
"","feedback","","html-keyboard-response","208","502179","0.0-1.0-276.0-0.0","0","0","83965","","null","","","null","30","","","","","","","","","","","","","","","",""
"","ITI","","html-keyboard-response","209","503188","0.0-1.0-279.0","0","0","83965","","null","","","null","30","","","","","","","","","","","","","","","NaN",""
"","S1","","html-keyboard-response","210","503445","0.0-1.0-281.0","0","0","83965","","null","","","null","31","","","","","","","","","","","","","","","",""
"","ISI","","html-keyboard-response","211","504448","0.0-1.0-282.0","0","0","83965","","null","","","null","31","NaN","","","","","","","","","","","","","","",""
"","S2","","html-keyboard-response","212","504709","0.0-1.0-283.0","0","0","83965","","null","","","null","31","","NaN","","","","","","","","","","","","","",""
"","response","","html-keyboard-response","213","505265","0.0-1.0-284.0-0.0","0","0","83965","","554","","","75","31","","","1","31","training","adjacent","FG","6","7","M.jpg","O.jpg","1","1","1","",""
"","feedback","","html-keyboard-response","214","506276","0.0-1.0-285.0-0.0","0","0","83965","","null","","","null","31","","","","","","","","","","","","","","","",""
"","ITI","","html-keyboard-response","215","507282","0.0-1.0-288.0","0","0","83965","","null","","","null","31","","","","","","","","","","","","","","","NaN",""
"","S1","","html-keyboard-response","216","507537","0.0-1.0-290.0","0","0","83965","","null","","","null","32","","","","","","","","","","","","","","","",""
"","ISI","","html-keyboard-response","217","508547","0.0-1.0-291.0","0","0","83965","","null","","","null","32","NaN","","","","","","","","","","","","","","",""
"","S2","","html-keyboard-response","218","508803","0.0-1.0-292.0","0","0","83965","","null","","","null","32","","NaN","","","","","","","","","","","","","",""
"","response","","html-keyboard-response","219","508970","0.0-1.0-293.0-0.0","0","0","83965","","165","","","75","32","","","1","32","training","adjacent","FE","6","5","M.jpg","R.jpg","1","0","0","",""
"","feedback","","html-keyboard-response","220","509980","0.0-1.0-294.0-0.0","0","0","83965","","null","","","null","32","","","","","","","","","","","","","","","",""
"","time_out","","html-keyboard-response","221","511989","0.0-1.0-296.0-0.0","0","0","83965","","null","","","null","32","","","","","","","","","","","","","","","",""
"","ITI","","html-keyboard-response","222","512994","0.0-1.0-297.0","0","0","83965","","null","","","null","32","","","","","","","","","","","","","","","NaN",""
"","S1","","html-keyboard-response","223","513249","0.0-1.0-299.0","0","0","83965","","null","","","null","33","","","","","","","","","","","","","","","",""
"","ISI","","html-keyboard-response","224","514259","0.0-1.0-300.0","0","0","83965","","431","","","75","33","k","","","","","","","","","","","","","","",""
"","S2","","html-keyboard-response","225","514515","0.0-1.0-301.0","0","0","83965","","null","","","null","33","","NaN","","","","","","","","","","","","","",""
"","response","","html-keyboard-response","226","514767","0.0-1.0-302.0-0.0","0","0","83965","","250","","","75","33","","","1","33","training","adjacent","FE","6","5","M.jpg","R.jpg","1","0","0","",""
"","feedback","","html-keyboard-response","227","515781","0.0-1.0-303.0-0.0","0","0","83965","","null","","","null","33","","","","","","","","","","","","","","","",""
"","time_out","","html-keyboard-response","228","517789","0.0-1.0-305.0-0.0","0","0","83965","","null","","","null","33","","","","","","","","","","","","","","","",""
"","ITI","","html-keyboard-response","229","518793","0.0-1.0-306.0","0","0","83965","","null","","","null","33","","","","","","","","","","","","","","","NaN",""
"","S1","","html-keyboard-response","230","519049","0.0-1.0-308.0","0","0","83965","","null","","","null","34","","","","","","","","","","","","","","","",""
"","ISI","","html-keyboard-response","231","520058","0.0-1.0-309.0","0","0","83965","","null","","","null","34","NaN","","","","","","","","","","","","","","",""
"","S2","","html-keyboard-response","232","520314","0.0-1.0-310.0","0","0","83965","","null","","","null","34","","NaN","","","","","","","","","","","","","",""
"","response","","html-keyboard-response","233","520627","0.0-1.0-311.0-0.0","0","0","83965","","311","","","75","34","","","1","34","training","adjacent","DE","4","5","L.jpg","R.jpg","1","1","1","",""
"","feedback","","html-keyboard-response","234","521637","0.0-1.0-312.0-0.0","0","0","83965","","null","","","null","34","","","","","","","","","","","","","","","",""
"","ITI","","html-keyboard-response","235","522642","0.0-1.0-315.0","0","0","83965","","null","","","null","34","","","","","","","","","","","","","","","NaN",""
"","S1","","html-keyboard-response","236","522897","0.0-1.0-317.0","0","0","83965","","null","","","null","35","","","","","","","","","","","","","","","",""
"","ISI","","html-keyboard-response","237","523908","0.0-1.0-318.0","0","0","83965","","null","","","null","35","NaN","","","","","","","","","","","","","","",""
"","S2","","html-keyboard-response","238","524163","0.0-1.0-319.0","0","0","83965","","null","","","null","35","","NaN","","","","","","","","","","","","","",""
"","response","","html-keyboard-response","239","524845","0.0-1.0-320.0-0.0","0","0","83965","","680","","","75","35","","","1","35","training","adjacent","ED","5","4","R.jpg","L.jpg","1","0","0","",""
"","feedback","","html-keyboard-response","240","525852","0.0-1.0-321.0-0.0","0","0","83965","","null","","","null","35","","","","","","","","","","","","","","","",""
"","time_out","","html-keyboard-response","241","527861","0.0-1.0-323.0-0.0","0","0","83965","","null","","","null","35","","","","","","","","","","","","","","","",""
"","ITI","","html-keyboard-response","242","528865","0.0-1.0-324.0","0","0","83965","","null","","","null","35","","","","","","","","","","","","","","","NaN",""
"","S1","","html-keyboard-response","243","529125","0.0-1.0-326.0","0","0","83965","","null","","","null","36","","","","","","","","","","","","","","","",""
"","ISI","","html-keyboard-response","244","530130","0.0-1.0-327.0","0","0","83965","","null","","","null","36","NaN","","","","","","","","","","","","","","",""
"","S2","","html-keyboard-response","245","530386","0.0-1.0-328.0","0","0","83965","","null","","","null","36","","NaN","","","","","","","","","","","","","",""
"","response","","html-keyboard-response","246","530675","0.0-1.0-329.0-0.0","0","0","83965","","287","","","75","36","","","1","36","training","adjacent","DC","4","3","L.jpg","Q.jpg","1","0","0","",""
"","feedback","","html-keyboard-response","247","531681","0.0-1.0-330.0-0.0","0","0","83965","","null","","","null","36","","","","","","","","","","","","","","","",""
"","time_out","","html-keyboard-response","248","533683","0.0-1.0-332.0-0.0","0","0","83965","","null","","","null","36","","","","","","","","","","","","","","","",""
"","ITI","","html-keyboard-response","249","534690","0.0-1.0-333.0","0","0","83965","","null","","","null","36","","","","","","","","","","","","","","","NaN",""
"","S1","","html-keyboard-response","250","534949","0.0-1.0-335.0","0","0","83965","","null","","","null","37","","","","","","","","","","","","","","","",""
"","ISI","","html-keyboard-response","251","535953","0.0-1.0-336.0","0","0","83965","","null","","","null","37","NaN","","","","","","","","","","","","","","",""
"","S2","","html-keyboard-response","252","536213","0.0-1.0-337.0","0","0","83965","","null","","","null","37","","NaN","","","","","","","","","","","","","",""
"","response","","html-keyboard-response","253","536754","0.0-1.0-338.0-0.0","0","0","83965","","538","","","75","37","","","1","37","training","adjacent","BC","2","3","P.jpg","Q.jpg","1","1","1","",""
"","feedback","","html-keyboard-response","254","537764","0.0-1.0-339.0-0.0","0","0","83965","","null","","","null","37","","","","","","","","","","","","","","","",""
"","ITI","","html-keyboard-response","255","538773","0.0-1.0-342.0","0","0","83965","","null","","","null","37","","","","","","","","","","","","","","","NaN",""
"","S1","","html-keyboard-response","256","539035","0.0-1.0-344.0","0","0","83965","","null","","","null","38","","","","","","","","","","","","","","","",""
"","ISI","","html-keyboard-response","257","540044","0.0-1.0-345.0","0","0","83965","","null","","","null","38","NaN","","","","","","","","","","","","","","",""
"","S2","","html-keyboard-response","258","540307","0.0-1.0-346.0","0","0","83965","","null","","","null","38","","NaN","","","","","","","","","","","","","",""
"","response","","html-keyboard-response","259","541011","0.0-1.0-347.0-0.0","0","0","83965","","701","","","68","38","","","1","38","training","adjacent","DE","4","5","L.jpg","R.jpg","0","1","0","",""
"","feedback","","html-keyboard-response","260","542020","0.0-1.0-348.0-0.0","0","0","83965","","null","","","null","38","","","","","","","","","","","","","","","",""
"","time_out","","html-keyboard-response","261","544028","0.0-1.0-350.0-0.0","0","0","83965","","null","","","null","38","","","","","","","","","","","","","","","",""
"","ITI","","html-keyboard-response","262","545037","0.0-1.0-351.0","0","0","83965","","null","","","null","38","","","","","","","","","","","","","","","NaN",""
"","S1","","html-keyboard-response","263","545299","0.0-1.0-353.0","0","0","83965","","null","","","null","39","","","","","","","","","","","","","","","",""
"","ISI","","html-keyboard-response","264","546310","0.0-1.0-354.0","0","0","83965","","null","","","null","39","NaN","","","","","","","","","","","","","","",""
"","S2","","html-keyboard-response","265","546571","0.0-1.0-355.0","0","0","83965","","null","","","null","39","","NaN","","","","","","","","","","","","","",""
"","response","","html-keyboard-response","266","546929","0.0-1.0-356.0-0.0","0","0","83965","","356","","","68","39","","","1","39","training","adjacent","ED","5","4","R.jpg","L.jpg","0","0","1","",""
"","feedback","","html-keyboard-response","267","547940","0.0-1.0-357.0-0.0","0","0","83965","","null","","","null","39","","","","","","","","","","","","","","","",""
"","ITI","","html-keyboard-response","268","548949","0.0-1.0-360.0","0","0","83965","","null","","","null","39","","","","","","","","","","","","","","","NaN",""
"","S1","","html-keyboard-response","269","549212","0.0-1.0-362.0","0","0","83965","","null","","","null","40","","","","","","","","","","","","","","","",""
"","ISI","","html-keyboard-response","270","550221","0.0-1.0-363.0","0","0","83965","","null","","","null","40","NaN","","","","","","","","","","","","","","",""
"","S2","","html-keyboard-response","271","550483","0.0-1.0-364.0","0","0","83965","","null","","","null","40","","NaN","","","","","","","","","","","","","",""
"","response","","html-keyboard-response","272","550616","0.0-1.0-365.0-0.0","0","0","83965","","130","","","75","40","","","1","40","training","adjacent","FG","6","7","M.jpg","O.jpg","1","1","1","",""
"","feedback","","html-keyboard-response","273","551627","0.0-1.0-366.0-0.0","0","0","83965","","null","","","null","40","","","","","","","","","","","","","","","",""
"","ITI","","html-keyboard-response","274","552637","0.0-1.0-369.0","0","0","83965","","null","","","null","40","","","","","","","","","","","","","","","NaN",""
"","S1","","html-keyboard-response","275","552898","0.0-1.0-371.0","0","0","83965","","null","","","null","41","","","","","","","","","","","","","","","",""
"","ISI","","html-keyboard-response","276","553908","0.0-1.0-372.0","0","0","83965","","null","","","null","41","NaN","","","","","","","","","","","","","","",""
"","S2","","html-keyboard-response","277","554170","0.0-1.0-373.0","0","0","83965","","null","","","null","41","","NaN","","","","","","","","","","","","","",""
"","response","","html-keyboard-response","278","554818","0.0-1.0-374.0-0.0","0","0","83965","","647","","","75","41","","","1","41","training","adjacent","BC","2","3","P.jpg","Q.jpg","1","1","1","",""
"","feedback","","html-keyboard-response","279","555830","0.0-1.0-375.0-0.0","0","0","83965","","null","","","null","41","","","","","","","","","","","","","","","",""
"","ITI","","html-keyboard-response","280","556834","0.0-1.0-378.0","0","0","83965","","null","","","null","41","","","","","","","","","","","","","","","NaN",""
"","S1","","html-keyboard-response","281","557089","0.0-1.0-380.0","0","0","83965","","null","","","null","42","","","","","","","","","","","","","","","",""
"","ISI","","html-keyboard-response","282","558099","0.0-1.0-381.0","0","0","83965","","null","","","null","42","NaN","","","","","","","","","","","","","","",""
"","S2","","html-keyboard-response","283","558355","0.0-1.0-382.0","0","0","83965","","null","","","null","42","","NaN","","","","","","","","","","","","","",""
"","response","","html-keyboard-response","284","558526","0.0-1.0-383.0-0.0","0","0","83965","","170","","","68","42","","","1","42","training","adjacent","GF","7","6","O.jpg","M.jpg","0","0","1","",""
"","feedback","","html-keyboard-response","285","559539","0.0-1.0-384.0-0.0","0","0","83965","","null","","","null","42","","","","","","","","","","","","","","","",""
"","ITI","","html-keyboard-response","286","560549","0.0-1.0-387.0","0","0","83965","","null","","","null","42","","","","","","","","","","","","","","","NaN",""
"","S1","","html-keyboard-response","287","560811","0.0-1.0-389.0","0","0","83965","","null","","","null","43","","","","","","","","","","","","","","","",""
"","ISI","","html-keyboard-response","288","561821","0.0-1.0-390.0","0","0","83965","","null","","","null","43","NaN","","","","","","","","","","","","","","",""
"","S2","","html-keyboard-response","289","562082","0.0-1.0-391.0","0","0","83965","","null","","","null","43","","NaN","","","","","","","","","","","","","",""
"","response","","html-keyboard-response","290","562365","0.0-1.0-392.0-0.0","0","0","83965","","282","","","68","43","","","1","43","training","adjacent","GF","7","6","O.jpg","M.jpg","0","0","1","",""
"","feedback","","html-keyboard-response","291","563371","0.0-1.0-393.0-0.0","0","0","83965","","null","","","null","43","","","","","","","","","","","","","","","",""
"","ITI","","html-keyboard-response","292","564380","0.0-1.0-396.0","0","0","83965","","null","","","null","43","","","","","","","","","","","","","","","NaN",""
"","S1","","html-keyboard-response","293","564636","0.0-1.0-398.0","0","0","83965","","null","","","null","44","","","","","","","","","","","","","","","",""
"","ISI","","html-keyboard-response","294","565645","0.0-1.0-399.0","0","0","83965","","null","","","null","44","NaN","","","","","","","","","","","","","","",""
"","S2","","html-keyboard-response","295","565907","0.0-1.0-400.0","0","0","83965","","null","","","null","44","","NaN","","","","","","","","","","","","","",""
"","response","","html-keyboard-response","296","566409","0.0-1.0-401.0-0.0","0","0","83965","","500","","","75","44","","","1","44","training","adjacent","AB","1","2","N.jpg","P.jpg","1","1","1","",""
"","feedback","","html-keyboard-response","297","567421","0.0-1.0-402.0-0.0","0","0","83965","","null","","","null","44","","","","","","","","","","","","","","","",""
"","ITI","","html-keyboard-response","298","568427","0.0-1.0-405.0","0","0","83965","","null","","","null","44","","","","","","","","","","","","","","","NaN",""
"","S1","","html-keyboard-response","299","568682","0.0-1.0-407.0","0","0","83965","","null","","","null","45","","","","","","","","","","","","","","","",""
"","ISI","","html-keyboard-response","300","569689","0.0-1.0-408.0","0","0","83965","","null","","","null","45","NaN","","","","","","","","","","","","","","",""
"","S2","","html-keyboard-response","301","569942","0.0-1.0-409.0","0","0","83965","","null","","","null","45","","NaN","","","","","","","","","","","","","",""
"","response","","html-keyboard-response","302","570678","0.0-1.0-410.0-0.0","0","0","83965","","735","","","75","45","","","1","45","training","adjacent","DE","4","5","L.jpg","R.jpg","1","1","1","",""
"","feedback","","html-keyboard-response","303","571683","0.0-1.0-411.0-0.0","0","0","83965","","null","","","null","45","","","","","","","","","","","","","","","",""
"","ITI","","html-keyboard-response","304","572691","0.0-1.0-414.0","0","0","83965","","null","","","null","45","","","","","","","","","","","","","","","NaN",""
"","S1","","html-keyboard-response","305","572949","0.0-1.0-416.0","0","0","83965","","null","","","null","46","","","","","","","","","","","","","","","",""
"","ISI","","html-keyboard-response","306","573957","0.0-1.0-417.0","0","0","83965","","null","","","null","46","NaN","","","","","","","","","","","","","","",""
"","S2","","html-keyboard-response","307","574220","0.0-1.0-418.0","0","0","83965","","null","","","null","46","","NaN","","","","","","","","","","","","","",""
"","response","","html-keyboard-response","308","574835","0.0-1.0-419.0-0.0","0","0","83965","","613","","","68","46","","","1","46","training","adjacent","EF","5","6","R.jpg","M.jpg","0","1","0","",""
"","feedback","","html-keyboard-response","309","575846","0.0-1.0-420.0-0.0","0","0","83965","","null","","","null","46","","","","","","","","","","","","","","","",""
"","time_out","","html-keyboard-response","310","577853","0.0-1.0-422.0-0.0","0","0","83965","","null","","","null","46","","","","","","","","","","","","","","","",""
"","ITI","","html-keyboard-response","311","578858","0.0-1.0-423.0","0","0","83965","","null","","","null","46","","","","","","","","","","","","","","","NaN",""
"","S1","","html-keyboard-response","312","579114","0.0-1.0-425.0","0","0","83965","","null","","","null","47","","","","","","","","","","","","","","","",""
"","ISI","","html-keyboard-response","313","580123","0.0-1.0-426.0","0","0","83965","","null","","","null","47","NaN","","","","","","","","","","","","","","",""
"","S2","","html-keyboard-response","314","580379","0.0-1.0-427.0","0","0","83965","","null","","","null","47","","NaN","","","","","","","","","","","","","",""
"","response","","html-keyboard-response","315","580879","0.0-1.0-428.0-0.0","0","0","83965","","498","","","75","47","","","1","47","training","adjacent","BC","2","3","P.jpg","Q.jpg","1","1","1","",""
"","feedback","","html-keyboard-response","316","581883","0.0-1.0-429.0-0.0","0","0","83965","","null","","","null","47","","","","","","","","","","","","","","","",""
"","ITI","","html-keyboard-response","317","582893","0.0-1.0-432.0","0","0","83965","","null","","","null","47","","","","","","","","","","","","","","","NaN",""
"","block_over","","html-keyboard-response","318","731609","0.0-1.0-433.0-0.0","0","0","83965","","148712","","","32","47","","","","","","","","","","","","","","","",""
"","S1","","html-keyboard-response","319","731867","0.0-1.0-434.0","0","0","83965","","null","","","null","48","","","","","","","","","","","","","","","",""
"","ISI","","html-keyboard-response","320","732878","0.0-1.0-435.0","0","0","83965","","null","","","null","48","NaN","","","","","","","","","","","","","","",""
"","S2","","html-keyboard-response","321","733133","0.0-1.0-436.0","0","0","83965","","null","","","null","48","","NaN","","","","","","","","","","","","","",""
"","response","","html-keyboard-response","322","734098","0.0-1.0-437.0-0.0","0","0","83965","","963","","","75","48","","","2","48","training","adjacent","DE","4","5","L.jpg","R.jpg","1","1","1","",""
"","feedback","","html-keyboard-response","323","735111","0.0-1.0-438.0-0.0","0","0","83965","","null","","","null","48","","","","","","","","","","","","","","","",""
"","ITI","","html-keyboard-response","324","736117","0.0-1.0-441.0","0","0","83965","","null","","","null","48","","","","","","","","","","","","","","","NaN",""
"","S1","","html-keyboard-response","325","736372","0.0-1.0-443.0","0","0","83965","","null","","","null","49","","","","","","","","","","","","","","","",""
"","ISI","","html-keyboard-response","326","737382","0.0-1.0-444.0","0","0","83965","","null","","","null","49","NaN","","","","","","","","","","","","","","",""
"","S2","","html-keyboard-response","327","737643","0.0-1.0-445.0","0","0","83965","","null","","","null","49","","NaN","","","","","","","","","","","","","",""
"","response","","html-keyboard-response","328","738312","0.0-1.0-446.0-0.0","0","0","83965","","667","","","68","49","","","2","49","training","adjacent","CD","3","4","Q.jpg","L.jpg","0","1","0","",""
"","feedback","","html-keyboard-response","329","739327","0.0-1.0-447.0-0.0","0","0","83965","","null","","","null","49","","","","","","","","","","","","","","","",""
"","time_out","","html-keyboard-response","330","741334","0.0-1.0-449.0-0.0","0","0","83965","","null","","","null","49","","","","","","","","","","","","","","","",""
"","ITI","","html-keyboard-response","331","742340","0.0-1.0-450.0","0","0","83965","","null","","","null","49","","","","","","","","","","","","","","","NaN",""
"","S1","","html-keyboard-response","332","742595","0.0-1.0-452.0","0","0","83965","","null","","","null","50","","","","","","","","","","","","","","","",""
"","ISI","","html-keyboard-response","333","743605","0.0-1.0-453.0","0","0","83965","","null","","","null","50","NaN","","","","","","","","","","","","","","",""
"","S2","","html-keyboard-response","334","743861","0.0-1.0-454.0","0","0","83965","","null","","","null","50","","NaN","","","","","","","","","","","","","",""
"","response","","html-keyboard-response","335","744363","0.0-1.0-455.0-0.0","0","0","83965","","500","","","68","50","","","2","50","training","adjacent","ED","5","4","R.jpg","L.jpg","0","0","1","",""
"","feedback","","html-keyboard-response","336","745365","0.0-1.0-456.0-0.0","0","0","83965","","null","","","null","50","","","","","","","","","","","","","","","",""
"","ITI","","html-keyboard-response","337","746374","0.0-1.0-459.0","0","0","83965","","null","","","null","50","","","","","","","","","","","","","","","NaN",""
"","S1","","html-keyboard-response","338","746636","0.0-1.0-461.0","0","0","83965","","null","","","null","51","","","","","","","","","","","","","","","",""
"","ISI","","html-keyboard-response","339","747646","0.0-1.0-462.0","0","0","83965","","null","","","null","51","NaN","","","","","","","","","","","","","","",""
"","S2","","html-keyboard-response","340","747901","0.0-1.0-463.0","0","0","83965","","null","","","null","51","","NaN","","","","","","","","","","","","","",""
"","response","","html-keyboard-response","341","748088","0.0-1.0-464.0-0.0","0","0","83965","","185","","","75","51","","","2","51","training","adjacent","FG","6","7","M.jpg","O.jpg","1","1","1","",""
"","feedback","","html-keyboard-response","342","749091","0.0-1.0-465.0-0.0","0","0","83965","","null","","","null","51","","","","","","","","","","","","","","","",""
"","ITI","","html-keyboard-response","343","750101","0.0-1.0-468.0","0","0","83965","","null","","","null","51","","","","","","","","","","","","","","","NaN",""
"","S1","","html-keyboard-response","344","750357","0.0-1.0-470.0","0","0","83965","","null","","","null","52","","","","","","","","","","","","","","","",""
"","ISI","","html-keyboard-response","345","751367","0.0-1.0-471.0","0","0","83965","","null","","","null","52","NaN","","","","","","","","","","","","","","",""
"","S2","","html-keyboard-response","346","751628","0.0-1.0-472.0","0","0","83965","","null","","","null","52","","NaN","","","","","","","","","","","","","",""
"","response","","html-keyboard-response","347","752143","0.0-1.0-473.0-0.0","0","0","83965","","514","","","75","52","","","2","52","training","adjacent","AB","1","2","N.jpg","P.jpg","1","1","1","",""
"","feedback","","html-keyboard-response","348","753149","0.0-1.0-474.0-0.0","0","0","83965","","null","","","null","52","","","","","","","","","","","","","","","",""
"","ITI","","html-keyboard-response","349","754159","0.0-1.0-477.0","0","0","83965","","null","","","null","52","","","","","","","","","","","","","","","NaN",""
"","S1","","html-keyboard-response","350","754420","0.0-1.0-479.0","0","0","83965","","null","","","null","53","","","","","","","","","","","","","","","",""
"","ISI","","html-keyboard-response","351","755430","0.0-1.0-480.0","0","0","83965","","null","","","null","53","NaN","","","","","","","","","","","","","","",""
"","S2","","html-keyboard-response","352","755686","0.0-1.0-481.0","0","0","83965","","null","","","null","53","","NaN","","","","","","","","","","","","","",""
"","response","","html-keyboard-response","353","755917","0.0-1.0-482.0-0.0","0","0","83965","","230","","","75","53","","","2","53","training","adjacent","FE","6","5","M.jpg","R.jpg","1","0","0","",""
"","feedback","","html-keyboard-response","354","756927","0.0-1.0-483.0-0.0","0","0","83965","","null","","","null","53","","","","","","","","","","","","","","","",""
"","time_out","","html-keyboard-response","355","758935","0.0-1.0-485.0-0.0","0","0","83965","","null","","","null","53","","","","","","","","","","","","","","","",""
"","ITI","","html-keyboard-response","356","759941","0.0-1.0-486.0","0","0","83965","","null","","","null","53","","","","","","","","","","","","","","","NaN",""
"","S1","","html-keyboard-response","357","760196","0.0-1.0-488.0","0","0","83965","","null","","","null","54","","","","","","","","","","","","","","","",""
"","ISI","","html-keyboard-response","358","761206","0.0-1.0-489.0","0","0","83965","","null","","","null","54","NaN","","","","","","","","","","","","","","",""
"","S2","","html-keyboard-response","359","761462","0.0-1.0-490.0","0","0","83965","","null","","","null","54","","NaN","","","","","","","","","","","","","",""
"","response","","html-keyboard-response","360","761872","0.0-1.0-491.0-0.0","0","0","83965","","409","","","68","54","","","2","54","training","adjacent","EF","5","6","R.jpg","M.jpg","0","1","0","",""
"","feedback","","html-keyboard-response","361","762884","0.0-1.0-492.0-0.0","0","0","83965","","null","","","null","54","","","","","","","","","","","","","","","",""
"","time_out","","html-keyboard-response","362","764892","0.0-1.0-494.0-0.0","0","0","83965","","null","","","null","54","","","","","","","","","","","","","","","",""
"","ITI","","html-keyboard-response","363","765903","0.0-1.0-495.0","0","0","83965","","null","","","null","54","","","","","","","","","","","","","","","NaN",""
"","S1","","html-keyboard-response","364","766164","0.0-1.0-497.0","0","0","83965","","null","","","null","55","","","","","","","","","","","","","","","",""
"","ISI","","html-keyboard-response","365","767174","0.0-1.0-498.0","0","0","83965","","null","","","null","55","NaN","","","","","","","","","","","","","","",""
"","S2","","html-keyboard-response","366","767429","0.0-1.0-499.0","0","0","83965","","null","","","null","55","","NaN","","","","","","","","","","","","","",""
"","response","","html-keyboard-response","367","768128","0.0-1.0-500.0-0.0","0","0","83965","","697","","","68","55","","","2","55","training","adjacent","FG","6","7","M.jpg","O.jpg","0","1","0","",""
"","feedback","","html-keyboard-response","368","769135","0.0-1.0-501.0-0.0","0","0","83965","","null","","","null","55","","","","","","","","","","","","","","","",""
"","time_out","","html-keyboard-response","369","771143","0.0-1.0-503.0-0.0","0","0","83965","","null","","","null","55","","","","","","","","","","","","","","","",""
"","ITI","","html-keyboard-response","370","772148","0.0-1.0-504.0","0","0","83965","","null","","","null","55","","","","","","","","","","","","","","","NaN",""
"","S1","","html-keyboard-response","371","772404","0.0-1.0-506.0","0","0","83965","","null","","","null","56","","","","","","","","","","","","","","","",""
"","ISI","","html-keyboard-response","372","773414","0.0-1.0-507.0","0","0","83965","","null","","","null","56","NaN","","","","","","","","","","","","","","",""
"","S2","","html-keyboard-response","373","773669","0.0-1.0-508.0","0","0","83965","","null","","","null","56","","NaN","","","","","","","","","","","","","",""
"","response","","html-keyboard-response","374","773933","0.0-1.0-509.0-0.0","0","0","83965","","262","","","75","56","","","2","56","training","adjacent","DC","4","3","L.jpg","Q.jpg","1","0","0","",""
"","feedback","","html-keyboard-response","375","774940","0.0-1.0-510.0-0.0","0","0","83965","","null","","","null","56","","","","","","","","","","","","","","","",""
"","time_out","","html-keyboard-response","376","776949","0.0-1.0-512.0-0.0","0","0","83965","","null","","","null","56","","","","","","","","","","","","","","","",""
"","ITI","","html-keyboard-response","377","777960","0.0-1.0-513.0","0","0","83965","","800","","","75","56","","","","","","","","","","","","","","","k",""
"","S1","","html-keyboard-response","378","778220","0.0-1.0-515.0","0","0","83965","","null","","","null","57","","","","","","","","","","","","","","","",""
"","ISI","","html-keyboard-response","379","779230","0.0-1.0-516.0","0","0","83965","","null","","","null","57","NaN","","","","","","","","","","","","","","",""
"","S2","","html-keyboard-response","380","779486","0.0-1.0-517.0","0","0","83965","","null","","","null","57","","NaN","","","","","","","","","","","","","",""
"","response","","html-keyboard-response","381","779784","0.0-1.0-518.0-0.0","0","0","83965","","295","","","68","57","","","2","57","training","adjacent","GF","7","6","O.jpg","M.jpg","0","0","1","",""
"","feedback","","html-keyboard-response","382","780791","0.0-1.0-519.0-0.0","0","0","83965","","null","","","null","57","","","","","","","","","","","","","","","",""
"","ITI","","html-keyboard-response","383","781795","0.0-1.0-522.0","0","0","83965","","null","","","null","57","","","","","","","","","","","","","","","NaN",""
"","S1","","html-keyboard-response","384","782052","0.0-1.0-524.0","0","0","83965","","null","","","null","58","","","","","","","","","","","","","","","",""
"","ISI","","html-keyboard-response","385","783062","0.0-1.0-525.0","0","0","83965","","725","","","75","58","k","","","","","","","","","","","","","","",""
"","S2","","html-keyboard-response","386","783317","0.0-1.0-526.0","0","0","83965","","null","","","null","58","","NaN","","","","","","","","","","","","","",""
"","response","","html-keyboard-response","387","783544","0.0-1.0-527.0-0.0","0","0","83965","","224","","","68","58","","","2","58","training","adjacent","BA","2","1","P.jpg","N.jpg","0","0","1","",""
"","feedback","","html-keyboard-response","388","784548","0.0-1.0-528.0-0.0","0","0","83965","","null","","","null","58","","","","","","","","","","","","","","","",""
"","ITI","","html-keyboard-response","389","785558","0.0-1.0-531.0","0","0","83965","","null","","","null","58","","","","","","","","","","","","","","","NaN",""
"","S1","","html-keyboard-response","390","785812","0.0-1.0-533.0","0","0","83965","","null","","","null","59","","","","","","","","","","","","","","","",""
"","ISI","","html-keyboard-response","391","786822","0.0-1.0-534.0","0","0","83965","","null","","","null","59","NaN","","","","","","","","","","","","","","",""
"","S2","","html-keyboard-response","392","787079","0.0-1.0-535.0","0","0","83965","","null","","","null","59","","NaN","","","","","","","","","","","","","",""
"","response","","html-keyboard-response","393","787598","0.0-1.0-536.0-0.0","0","0","83965","","518","","","68","59","","","2","59","training","adjacent","BC","2","3","P.jpg","Q.jpg","0","1","0","",""
"","feedback","","html-keyboard-response","394","788606","0.0-1.0-537.0-0.0","0","0","83965","","null","","","null","59","","","","","","","","","","","","","","","",""
"","time_out","","html-keyboard-response","395","790615","0.0-1.0-539.0-0.0","0","0","83965","","null","","","null","59","","","","","","","","","","","","","","","",""
"","ITI","","html-keyboard-response","396","791623","0.0-1.0-540.0","0","0","83965","","null","","","null","59","","","","","","","","","","","","","","","NaN",""
"","S1","","html-keyboard-response","397","791886","0.0-1.0-542.0","0","0","83965","","null","","","null","60","","","","","","","","","","","","","","","",""
"","ISI","","html-keyboard-response","398","792896","0.0-1.0-543.0","0","0","83965","","null","","","null","60","NaN","","","","","","","","","","","","","","",""
"","S2","","html-keyboard-response","399","793157","0.0-1.0-544.0","0","0","83965","","null","","","null","60","","NaN","","","","","","","","","","","","","",""
"","response","","html-keyboard-response","400","793780","0.0-1.0-545.0-0.0","0","0","83965","","622","","","68","60","","","2","60","training","adjacent","GF","7","6","O.jpg","M.jpg","0","0","1","",""
"","feedback","","html-keyboard-response","401","794789","0.0-1.0-546.0-0.0","0","0","83965","","null","","","null","60","","","","","","","","","","","","","","","",""
"","ITI","","html-keyboard-response","402","795798","0.0-1.0-549.0","0","0","83965","","null","","","null","60","","","","","","","","","","","","","","","NaN",""
"","S1","","html-keyboard-response","403","796054","0.0-1.0-551.0","0","0","83965","","null","","","null","61","","","","","","","","","","","","","","","",""
"","ISI","","html-keyboard-response","404","797064","0.0-1.0-552.0","0","0","83965","","null","","","null","61","NaN","","","","","","","","","","","","","","",""
"","S2","","html-keyboard-response","405","797325","0.0-1.0-553.0","0","0","83965","","null","","","null","61","","NaN","","","","","","","","","","","","","",""
"","response","","html-keyboard-response","406","797836","0.0-1.0-554.0-0.0","0","0","83965","","509","","","75","61","","","2","61","training","adjacent","CB","3","2","Q.jpg","P.jpg","1","0","0","",""
"","feedback","","html-keyboard-response","407","798846","0.0-1.0-555.0-0.0","0","0","83965","","null","","","null","61","","","","","","","","","","","","","","","",""
"","time_out","","html-keyboard-response","408","800855","0.0-1.0-557.0-0.0","0","0","83965","","null","","","null","61","","","","","","","","","","","","","","","",""
"","ITI","","html-keyboard-response","409","801859","0.0-1.0-558.0","0","0","83965","","null","","","null","61","","","","","","","","","","","","","","","NaN",""
"","S1","","html-keyboard-response","410","802118","0.0-1.0-560.0","0","0","83965","","null","","","null","62","","","","","","","","","","","","","","","",""
"","ISI","","html-keyboard-response","411","803127","0.0-1.0-561.0","0","0","83965","","null","","","null","62","NaN","","","","","","","","","","","","","","",""
"","S2","","html-keyboard-response","412","803391","0.0-1.0-562.0","0","0","83965","","null","","","null","62","","NaN","","","","","","","","","","","","","",""
"","response","","html-keyboard-response","413","803852","0.0-1.0-563.0-0.0","0","0","83965","","459","","","75","62","","","2","62","training","adjacent","BA","2","1","P.jpg","N.jpg","1","0","0","",""
"","feedback","","html-keyboard-response","414","804860","0.0-1.0-564.0-0.0","0","0","83965","","null","","","null","62","","","","","","","","","","","","","","","",""
"","time_out","","html-keyboard-response","415","806869","0.0-1.0-566.0-0.0","0","0","83965","","null","","","null","62","","","","","","","","","","","","","","","",""
"","ITI","","html-keyboard-response","416","807872","0.0-1.0-567.0","0","0","83965","","null","","","null","62","","","","","","","","","","","","","","","NaN",""
"","S1","","html-keyboard-response","417","808134","0.0-1.0-569.0","0","0","83965","","null","","","null","63","","","","","","","","","","","","","","","",""
"","ISI","","html-keyboard-response","418","809143","0.0-1.0-570.0","0","0","83965","","null","","","null","63","NaN","","","","","","","","","","","","","","",""
"","S2","","html-keyboard-response","419","809405","0.0-1.0-571.0","0","0","83965","","null","","","null","63","","NaN","","","","","","","","","","","","","",""
"","response","","html-keyboard-response","420","810046","0.0-1.0-572.0-0.0","0","0","83965","","639","","","75","63","","","2","63","training","adjacent","AB","1","2","N.jpg","P.jpg","1","1","1","",""
"","feedback","","html-keyboard-response","421","811054","0.0-1.0-573.0-0.0","0","0","83965","","null","","","null","63","","","","","","","","","","","","","","","",""
"","ITI","","html-keyboard-response","422","812062","0.0-1.0-576.0","0","0","83965","","null","","","null","63","","","","","","","","","","","","","","","NaN",""
"","S1","","html-keyboard-response","423","812320","0.0-1.0-578.0","0","0","83965","","null","","","null","64","","","","","","","","","","","","","","","",""
"","ISI","","html-keyboard-response","424","813324","0.0-1.0-579.0","0","0","83965","","null","","","null","64","NaN","","","","","","","","","","","","","","",""
"","S2","","html-keyboard-response","425","813584","0.0-1.0-580.0","0","0","83965","","null","","","null","64","","NaN","","","","","","","","","","","","","",""
"","response","","html-keyboard-response","426","814119","0.0-1.0-581.0-0.0","0","0","83965","","533","","","68","64","","","2","64","training","adjacent","CD","3","4","Q.jpg","L.jpg","0","1","0","",""
"","feedback","","html-keyboard-response","427","815128","0.0-1.0-582.0-0.0","0","0","83965","","null","","","null","64","","","","","","","","","","","","","","","",""
"","time_out","","html-keyboard-response","428","817132","0.0-1.0-584.0-0.0","0","0","83965","","null","","","null","64","","","","","","","","","","","","","","","",""
"","ITI","","html-keyboard-response","429","818142","0.0-1.0-585.0","0","0","83965","","null","","","null","64","","","","","","","","","","","","","","","NaN",""
"","S1","","html-keyboard-response","430","818397","0.0-1.0-587.0","0","0","83965","","null","","","null","65","","","","","","","","","","","","","","","",""
"","ISI","","html-keyboard-response","431","819408","0.0-1.0-588.0","0","0","83965","","null","","","null","65","NaN","","","","","","","","","","","","","","",""
"","S2","","html-keyboard-response","432","819669","0.0-1.0-589.0","0","0","83965","","null","","","null","65","","NaN","","","","","","","","","","","","","",""
"","response","","html-keyboard-response","433","820089","0.0-1.0-590.0-0.0","0","0","83965","","419","","","68","65","","","2","65","training","adjacent","ED","5","4","R.jpg","L.jpg","0","0","1","",""
"","feedback","","html-keyboard-response","434","821103","0.0-1.0-591.0-0.0","0","0","83965","","null","","","null","65","","","","","","","","","","","","","","","",""
"","ITI","","html-keyboard-response","435","822112","0.0-1.0-594.0","0","0","83965","","null","","","null","65","","","","","","","","","","","","","","","NaN",""
"","S1","","html-keyboard-response","436","822375","0.0-1.0-596.0","0","0","83965","","null","","","null","66","","","","","","","","","","","","","","","",""
"","ISI","","html-keyboard-response","437","823385","0.0-1.0-597.0","0","0","83965","","206","","","68","66","d","","","","","","","","","","","","","","",""
"","S2","","html-keyboard-response","438","823646","0.0-1.0-598.0","0","0","83965","","null","","","null","66","","NaN","","","","","","","","","","","","","",""
"","response","","html-keyboard-response","439","824151","0.0-1.0-599.0-0.0","0","0","83965","","503","","","68","66","","","2","66","training","adjacent","BC","2","3","P.jpg","Q.jpg","0","1","0","",""
"","feedback","","html-keyboard-response","440","825160","0.0-1.0-600.0-0.0","0","0","83965","","null","","","null","66","","","","","","","","","","","","","","","",""
"","time_out","","html-keyboard-response","441","827169","0.0-1.0-602.0-0.0","0","0","83965","","null","","","null","66","","","","","","","","","","","","","","","",""
"","ITI","","html-keyboard-response","442","828175","0.0-1.0-603.0","0","0","83965","","null","","","null","66","","","","","","","","","","","","","","","NaN",""
"","S1","","html-keyboard-response","443","828431","0.0-1.0-605.0","0","0","83965","","null","","","null","67","","","","","","","","","","","","","","","",""
"","ISI","","html-keyboard-response","444","829441","0.0-1.0-606.0","0","0","83965","","null","","","null","67","NaN","","","","","","","","","","","","","","",""
"","S2","","html-keyboard-response","445","829693","0.0-1.0-607.0","0","0","83965","","null","","","null","67","","NaN","","","","","","","","","","","","","",""
"","response","","html-keyboard-response","446","830213","0.0-1.0-608.0-0.0","0","0","83965","","518","","","68","67","","","2","67","training","adjacent","CB","3","2","Q.jpg","P.jpg","0","0","1","",""
"","feedback","","html-keyboard-response","447","831223","0.0-1.0-609.0-0.0","0","0","83965","","null","","","null","67","","","","","","","","","","","","","","","",""
"","ITI","","html-keyboard-response","448","832233","0.0-1.0-612.0","0","0","83965","","null","","","null","67","","","","","","","","","","","","","","","NaN",""
"","S1","","html-keyboard-response","449","832489","0.0-1.0-614.0","0","0","83965","","null","","","null","68","","","","","","","","","","","","","","","",""
"","ISI","","html-keyboard-response","450","833498","0.0-1.0-615.0","0","0","83965","","null","","","null","68","NaN","","","","","","","","","","","","","","",""
"","S2","","html-keyboard-response","451","833760","0.0-1.0-616.0","0","0","83965","","null","","","null","68","","NaN","","","","","","","","","","","","","",""
"","response","","html-keyboard-response","452","834398","0.0-1.0-617.0-0.0","0","0","83965","","636","","","68","68","","","2","68","training","adjacent","GF","7","6","O.jpg","M.jpg","0","0","1","",""
"","feedback","","html-keyboard-response","453","835409","0.0-1.0-618.0-0.0","0","0","83965","","null","","","null","68","","","","","","","","","","","","","","","",""
"","ITI","","html-keyboard-response","454","836419","0.0-1.0-621.0","0","0","83965","","null","","","null","68","","","","","","","","","","","","","","","NaN",""
"","S1","","html-keyboard-response","455","836675","0.0-1.0-623.0","0","0","83965","","null","","","null","69","","","","","","","","","","","","","","","",""
"","ISI","","html-keyboard-response","456","837679","0.0-1.0-624.0","0","0","83965","","null","","","null","69","NaN","","","","","","","","","","","","","","",""
"","S2","","html-keyboard-response","457","837939","0.0-1.0-625.0","0","0","83965","","null","","","null","69","","NaN","","","","","","","","","","","","","",""
"","response","","html-keyboard-response","458","838383","0.0-1.0-626.0-0.0","0","0","83965","","442","","","68","69","","","2","69","training","adjacent","CD","3","4","Q.jpg","L.jpg","0","1","0","",""
"","feedback","","html-keyboard-response","459","839391","0.0-1.0-627.0-0.0","0","0","83965","","null","","","null","69","","","","","","","","","","","","","","","",""
"","time_out","","html-keyboard-response","460","841400","0.0-1.0-629.0-0.0","0","0","83965","","null","","","null","69","","","","","","","","","","","","","","","",""
"","ITI","","html-keyboard-response","461","842411","0.0-1.0-630.0","0","0","83965","","null","","","null","69","","","","","","","","","","","","","","","NaN",""
"","S1","","html-keyboard-response","462","842672","0.0-1.0-632.0","0","0","83965","","null","","","null","70","","","","","","","","","","","","","","","",""
"","ISI","","html-keyboard-response","463","843675","0.0-1.0-633.0","0","0","83965","","null","","","null","70","NaN","","","","","","","","","","","","","","",""
"","S2","","html-keyboard-response","464","843937","0.0-1.0-634.0","0","0","83965","","null","","","null","70","","NaN","","","","","","","","","","","","","",""
"","response","","html-keyboard-response","465","844461","0.0-1.0-635.0-0.0","0","0","83965","","522","","","75","70","","","2","70","training","adjacent","DE","4","5","L.jpg","R.jpg","1","1","1","",""
"","feedback","","html-keyboard-response","466","845476","0.0-1.0-636.0-0.0","0","0","83965","","null","","","null","70","","","","","","","","","","","","","","","",""
"","ITI","","html-keyboard-response","467","846480","0.0-1.0-639.0","0","0","83965","","null","","","null","70","","","","","","","","","","","","","","","NaN",""
"","S1","","html-keyboard-response","468","846735","0.0-1.0-641.0","0","0","83965","","null","","","null","71","","","","","","","","","","","","","","","",""
"","ISI","","html-keyboard-response","469","847746","0.0-1.0-642.0","0","0","83965","","null","","","null","71","NaN","","","","","","","","","","","","","","",""
"","S2","","html-keyboard-response","470","848001","0.0-1.0-643.0","0","0","83965","","null","","","null","71","","NaN","","","","","","","","","","","","","",""
"","response","","html-keyboard-response","471","848686","0.0-1.0-644.0-0.0","0","0","83965","","684","","","75","71","","","2","71","training","adjacent","BC","2","3","P.jpg","Q.jpg","1","1","1","",""
"","feedback","","html-keyboard-response","472","849690","0.0-1.0-645.0-0.0","0","0","83965","","null","","","null","71","","","","","","","","","","","","","","","",""
"","ITI","","html-keyboard-response","473","850696","0.0-1.0-648.0","0","0","83965","","null","","","null","71","","","","","","","","","","","","","","","NaN",""
"","S1","","html-keyboard-response","474","850956","0.0-1.0-650.0","0","0","83965","","null","","","null","72","","","","","","","","","","","","","","","",""
"","ISI","","html-keyboard-response","475","851960","0.0-1.0-651.0","0","0","83965","","null","","","null","72","NaN","","","","","","","","","","","","","","",""
"","S2","","html-keyboard-response","476","852220","0.0-1.0-652.0","0","0","83965","","null","","","null","72","","NaN","","","","","","","","","","","","","",""
"","response","","html-keyboard-response","477","852542","0.0-1.0-653.0-0.0","0","0","83965","","320","","","68","72","","","2","72","training","adjacent","CD","3","4","Q.jpg","L.jpg","0","1","0","",""
"","feedback","","html-keyboard-response","478","853555","0.0-1.0-654.0-0.0","0","0","83965","","null","","","null","72","","","","","","","","","","","","","","","",""
"","time_out","","html-keyboard-response","479","855564","0.0-1.0-656.0-0.0","0","0","83965","","null","","","null","72","","","","","","","","","","","","","","","",""
"","ITI","","html-keyboard-response","480","856569","0.0-1.0-657.0","0","0","83965","","null","","","null","72","","","","","","","","","","","","","","","NaN",""
"","S1","","html-keyboard-response","481","856825","0.0-1.0-659.0","0","0","83965","","null","","","null","73","","","","","","","","","","","","","","","",""
"","ISI","","html-keyboard-response","482","857834","0.0-1.0-660.0","0","0","83965","","null","","","null","73","NaN","","","","","","","","","","","","","","",""
"","S2","","html-keyboard-response","483","858091","0.0-1.0-661.0","0","0","83965","","null","","","null","73","","NaN","","","","","","","","","","","","","",""
"","response","","html-keyboard-response","484","858452","0.0-1.0-662.0-0.0","0","0","83965","","360","","","68","73","","","2","73","training","adjacent","BC","2","3","P.jpg","Q.jpg","0","1","0","",""
"","feedback","","html-keyboard-response","485","859460","0.0-1.0-663.0-0.0","0","0","83965","","null","","","null","73","","","","","","","","","","","","","","","",""
"","time_out","","html-keyboard-response","486","861467","0.0-1.0-665.0-0.0","0","0","83965","","null","","","null","73","","","","","","","","","","","","","","","",""
"","ITI","","html-keyboard-response","487","862473","0.0-1.0-666.0","0","0","83965","","null","","","null","73","","","","","","","","","","","","","","","NaN",""
"","S1","","html-keyboard-response","488","862729","0.0-1.0-668.0","0","0","83965","","null","","","null","74","","","","","","","","","","","","","","","",""
"","ISI","","html-keyboard-response","489","863738","0.0-1.0-669.0","0","0","83965","","null","","","null","74","NaN","","","","","","","","","","","","","","",""
"","S2","","html-keyboard-response","490","863994","0.0-1.0-670.0","0","0","83965","","null","","","null","74","","NaN","","","","","","","","","","","","","",""
"","response","","html-keyboard-response","491","864339","0.0-1.0-671.0-0.0","0","0","83965","","343","","","75","74","","","2","74","training","adjacent","FE","6","5","M.jpg","R.jpg","1","0","0","",""
"","feedback","","html-keyboard-response","492","865347","0.0-1.0-672.0-0.0","0","0","83965","","null","","","null","74","","","","","","","","","","","","","","","",""
"","time_out","","html-keyboard-response","493","867355","0.0-1.0-674.0-0.0","0","0","83965","","null","","","null","74","","","","","","","","","","","","","","","",""
"","ITI","","html-keyboard-response","494","868363","0.0-1.0-675.0","0","0","83965","","null","","","null","74","","","","","","","","","","","","","","","NaN",""
"","S1","","html-keyboard-response","495","868627","0.0-1.0-677.0","0","0","83965","","null","","","null","75","","","","","","","","","","","","","","","",""
"","ISI","","html-keyboard-response","496","869635","0.0-1.0-678.0","0","0","83965","","null","","","null","75","NaN","","","","","","","","","","","","","","",""
"","S2","","html-keyboard-response","497","869898","0.0-1.0-679.0","0","0","83965","","null","","","null","75","","NaN","","","","","","","","","","","","","",""
"","response","","html-keyboard-response","498","870299","0.0-1.0-680.0-0.0","0","0","83965","","400","","","75","75","","","2","75","training","adjacent","FE","6","5","M.jpg","R.jpg","1","0","0","",""
"","feedback","","html-keyboard-response","499","871307","0.0-1.0-681.0-0.0","0","0","83965","","null","","","null","75","","","","","","","","","","","","","","","",""
"","time_out","","html-keyboard-response","500","873316","0.0-1.0-683.0-0.0","0","0","83965","","null","","","null","75","","","","","","","","","","","","","","","",""
"","ITI","","html-keyboard-response","501","874321","0.0-1.0-684.0","0","0","83965","","null","","","null","75","","","","","","","","","","","","","","","NaN",""
"","S1","","html-keyboard-response","502","874577","0.0-1.0-686.0","0","0","83965","","null","","","null","76","","","","","","","","","","","","","","","",""
"","ISI","","html-keyboard-response","503","875586","0.0-1.0-687.0","0","0","83965","","null","","","null","76","NaN","","","","","","","","","","","","","","",""
"","S2","","html-keyboard-response","504","875843","0.0-1.0-688.0","0","0","83965","","null","","","null","76","","NaN","","","","","","","","","","","","","",""
"","response","","html-keyboard-response","505","876335","0.0-1.0-689.0-0.0","0","0","83965","","491","","","68","76","","","2","76","training","adjacent","CB","3","2","Q.jpg","P.jpg","0","0","1","",""
"","feedback","","html-keyboard-response","506","877346","0.0-1.0-690.0-0.0","0","0","83965","","null","","","null","76","","","","","","","","","","","","","","","",""
"","ITI","","html-keyboard-response","507","878356","0.0-1.0-693.0","0","0","83965","","null","","","null","76","","","","","","","","","","","","","","","NaN",""
"","S1","","html-keyboard-response","508","878617","0.0-1.0-695.0","0","0","83965","","null","","","null","77","","","","","","","","","","","","","","","",""
"","ISI","","html-keyboard-response","509","879627","0.0-1.0-696.0","0","0","83965","","null","","","null","77","NaN","","","","","","","","","","","","","","",""
"","S2","","html-keyboard-response","510","879888","0.0-1.0-697.0","0","0","83965","","null","","","null","77","","NaN","","","","","","","","","","","","","",""
"","response","","html-keyboard-response","511","880069","0.0-1.0-698.0-0.0","0","0","83965","","179","","","75","77","","","2","77","training","adjacent","DE","4","5","L.jpg","R.jpg","1","1","1","",""
"","feedback","","html-keyboard-response","512","881085","0.0-1.0-699.0-0.0","0","0","83965","","null","","","null","77","","","","","","","","","","","","","","","",""
"","ITI","","html-keyboard-response","513","882089","0.0-1.0-702.0","0","0","83965","","null","","","null","77","","","","","","","","","","","","","","","NaN",""
"","S1","","html-keyboard-response","514","882349","0.0-1.0-704.0","0","0","83965","","null","","","null","78","","","","","","","","","","","","","","","",""
"","ISI","","html-keyboard-response","515","883354","0.0-1.0-705.0","0","0","83965","","null","","","null","78","NaN","","","","","","","","","","","","","","",""
"","S2","","html-keyboard-response","516","883609","0.0-1.0-706.0","0","0","83965","","null","","","null","78","","NaN","","","","","","","","","","","","","",""
"","response","","html-keyboard-response","517","883724","0.0-1.0-707.0-0.0","0","0","83965","","112","","","75","78","","","2","78","training","adjacent","FE","6","5","M.jpg","R.jpg","1","0","0","",""
"","feedback","","html-keyboard-response","518","884729","0.0-1.0-708.0-0.0","0","0","83965","","null","","","null","78","","","","","","","","","","","","","","","",""
"","time_out","","html-keyboard-response","519","886739","0.0-1.0-710.0-0.0","0","0","83965","","null","","","null","78","","","","","","","","","","","","","","","",""
"","ITI","","html-keyboard-response","520","887749","0.0-1.0-711.0","0","0","83965","","null","","","null","78","","","","","","","","","","","","","","","NaN",""
"","S1","","html-keyboard-response","521","888010","0.0-1.0-713.0","0","0","83965","","null","","","null","79","","","","","","","","","","","","","","","",""
"","ISI","","html-keyboard-response","522","889020","0.0-1.0-714.0","0","0","83965","","null","","","null","79","NaN","","","","","","","","","","","","","","",""
"","S2","","html-keyboard-response","523","889281","0.0-1.0-715.0","0","0","83965","","null","","","null","79","","NaN","","","","","","","","","","","","","",""
"","response","","html-keyboard-response","524","889585","0.0-1.0-716.0-0.0","0","0","83965","","302","","","68","79","","","2","79","training","adjacent","EF","5","6","R.jpg","M.jpg","0","1","0","",""
"","feedback","","html-keyboard-response","525","890593","0.0-1.0-717.0-0.0","0","0","83965","","null","","","null","79","","","","","","","","","","","","","","","",""
"","time_out","","html-keyboard-response","526","892602","0.0-1.0-719.0-0.0","0","0","83965","","null","","","null","79","","","","","","","","","","","","","","","",""
"","ITI","","html-keyboard-response","527","893612","0.0-1.0-720.0","0","0","83965","","null","","","null","79","","","","","","","","","","","","","","","NaN",""
"","S1","","html-keyboard-response","528","893873","0.0-1.0-722.0","0","0","83965","","null","","","null","80","","","","","","","","","","","","","","","",""
"","ISI","","html-keyboard-response","529","894883","0.0-1.0-723.0","0","0","83965","","null","","","null","80","NaN","","","","","","","","","","","","","","",""
"","S2","","html-keyboard-response","530","895139","0.0-1.0-724.0","0","0","83965","","null","","","null","80","","NaN","","","","","","","","","","","","","",""
"","response","","html-keyboard-response","531","895575","0.0-1.0-725.0-0.0","0","0","83965","","435","","","75","80","","","2","80","training","adjacent","ED","5","4","R.jpg","L.jpg","1","0","0","",""
"","feedback","","html-keyboard-response","532","896588","0.0-1.0-726.0-0.0","0","0","83965","","null","","","null","80","","","","","","","","","","","","","","","",""
"","time_out","","html-keyboard-response","533","898592","0.0-1.0-728.0-0.0","0","0","83965","","null","","","null","80","","","","","","","","","","","","","","","",""
"","ITI","","html-keyboard-response","534","899602","0.0-1.0-729.0","0","0","83965","","null","","","null","80","","","","","","","","","","","","","","","NaN",""
"","S1","","html-keyboard-response","535","899858","0.0-1.0-731.0","0","0","83965","","null","","","null","81","","","","","","","","","","","","","","","",""
"","ISI","","html-keyboard-response","536","900868","0.0-1.0-732.0","0","0","83965","","null","","","null","81","NaN","","","","","","","","","","","","","","",""
"","S2","","html-keyboard-response","537","901119","0.0-1.0-733.0","0","0","83965","","249","","","75","81","","k","2","81","training","adjacent","FG","6","7","M.jpg","O.jpg","1","1","1","",""
"","feedback","","html-keyboard-response","538","902133","0.0-1.0-735.0-0.0","0","0","83965","","null","","","null","81","","","","","","","","","","","","","","","",""
"","ITI","","html-keyboard-response","539","903138","0.0-1.0-738.0","0","0","83965","","null","","","null","81","","","","","","","","","","","","","","","NaN",""
"","S1","","html-keyboard-response","540","903393","0.0-1.0-740.0","0","0","83965","","null","","","null","82","","","","","","","","","","","","","","","",""
"","ISI","","html-keyboard-response","541","904403","0.0-1.0-741.0","0","0","83965","","null","","","null","82","NaN","","","","","","","","","","","","","","",""
"","S2","","html-keyboard-response","542","904659","0.0-1.0-742.0","0","0","83965","","null","","","null","82","","NaN","","","","","","","","","","","","","",""
"","response","","html-keyboard-response","543","905163","0.0-1.0-743.0-0.0","0","0","83965","","502","","","68","82","","","2","82","training","adjacent","ED","5","4","R.jpg","L.jpg","0","0","1","",""
"","feedback","","html-keyboard-response","544","906173","0.0-1.0-744.0-0.0","0","0","83965","","null","","","null","82","","","","","","","","","","","","","","","",""
"","ITI","","html-keyboard-response","545","907178","0.0-1.0-747.0","0","0","83965","","null","","","null","82","","","","","","","","","","","","","","","NaN",""
"","S1","","html-keyboard-response","546","907433","0.0-1.0-749.0","0","0","83965","","null","","","null","83","","","","","","","","","","","","","","","",""
"","ISI","","html-keyboard-response","547","908444","0.0-1.0-750.0","0","0","83965","","null","","","null","83","NaN","","","","","","","","","","","","","","",""
"","S2","","html-keyboard-response","548","908698","0.0-1.0-751.0","0","0","83965","","null","","","null","83","","NaN","","","","","","","","","","","","","",""
"","response","","html-keyboard-response","549","909125","0.0-1.0-752.0-0.0","0","0","83965","","426","","","75","83","","","2","83","training","adjacent","DC","4","3","L.jpg","Q.jpg","1","0","0","",""
"","feedback","","html-keyboard-response","550","910133","0.0-1.0-753.0-0.0","0","0","83965","","null","","","null","83","","","","","","","","","","","","","","","",""
"","time_out","","html-keyboard-response","551","912140","0.0-1.0-755.0-0.0","0","0","83965","","null","","","null","83","","","","","","","","","","","","","","","",""
"","ITI","","html-keyboard-response","552","913146","0.0-1.0-756.0","0","0","83965","","null","","","null","83","","","","","","","","","","","","","","","NaN",""
"","S1","","html-keyboard-response","553","913401","0.0-1.0-758.0","0","0","83965","","null","","","null","84","","","","","","","","","","","","","","","",""
"","ISI","","html-keyboard-response","554","914411","0.0-1.0-759.0","0","0","83965","","null","","","null","84","NaN","","","","","","","","","","","","","","",""
"","S2","","html-keyboard-response","555","914666","0.0-1.0-760.0","0","0","83965","","null","","","null","84","","NaN","","","","","","","","","","","","","",""
"","response","","html-keyboard-response","556","915142","0.0-1.0-761.0-0.0","0","0","83965","","474","","","68","84","","","2","84","training","adjacent","GF","7","6","O.jpg","M.jpg","0","0","1","",""
"","feedback","","html-keyboard-response","557","916153","0.0-1.0-762.0-0.0","0","0","83965","","null","","","null","84","","","","","","","","","","","","","","","",""
"","ITI","","html-keyboard-response","558","917163","0.0-1.0-765.0","0","0","83965","","null","","","null","84","","","","","","","","","","","","","","","NaN",""
"","S1","","html-keyboard-response","559","917418","0.0-1.0-767.0","0","0","83965","","null","","","null","85","","","","","","","","","","","","","","","",""
"","ISI","","html-keyboard-response","560","918428","0.0-1.0-768.0","0","0","83965","","null","","","null","85","NaN","","","","","","","","","","","","","","",""
"","S2","","html-keyboard-response","561","918690","0.0-1.0-769.0","0","0","83965","","null","","","null","85","","NaN","","","","","","","","","","","","","",""
"","response","","html-keyboard-response","562","918802","0.0-1.0-770.0-0.0","0","0","83965","","111","","","75","85","","","2","85","training","adjacent","AB","1","2","N.jpg","P.jpg","1","1","1","",""
"","feedback","","html-keyboard-response","563","919810","0.0-1.0-771.0-0.0","0","0","83965","","null","","","null","85","","","","","","","","","","","","","","","",""
"","ITI","","html-keyboard-response","564","920820","0.0-1.0-774.0","0","0","83965","","null","","","null","85","","","","","","","","","","","","","","","NaN",""
"","S1","","html-keyboard-response","565","921081","0.0-1.0-776.0","0","0","83965","","null","","","null","86","","","","","","","","","","","","","","","",""
"","ISI","","html-keyboard-response","566","922091","0.0-1.0-777.0","0","0","83965","","null","","","null","86","NaN","","","","","","","","","","","","","","",""
"","S2","","html-keyboard-response","567","922347","0.0-1.0-778.0","0","0","83965","","null","","","null","86","","NaN","","","","","","","","","","","","","",""
"","response","","html-keyboard-response","568","922667","0.0-1.0-779.0-0.0","0","0","83965","","319","","","75","86","","","2","86","training","adjacent","DC","4","3","L.jpg","Q.jpg","1","0","0","",""
"","feedback","","html-keyboard-response","569","923675","0.0-1.0-780.0-0.0","0","0","83965","","null","","","null","86","","","","","","","","","","","","","","","",""
"","time_out","","html-keyboard-response","570","925682","0.0-1.0-782.0-0.0","0","0","83965","","null","","","null","86","","","","","","","","","","","","","","","",""
"","ITI","","html-keyboard-response","571","926689","0.0-1.0-783.0","0","0","83965","","null","","","null","86","","","","","","","","","","","","","","","NaN",""
"","S1","","html-keyboard-response","572","926949","0.0-1.0-785.0","0","0","83965","","null","","","null","87","","","","","","","","","","","","","","","",""
"","ISI","","html-keyboard-response","573","927953","0.0-1.0-786.0","0","0","83965","","null","","","null","87","NaN","","","","","","","","","","","","","","",""
"","S2","","html-keyboard-response","574","928210","0.0-1.0-787.0","0","0","83965","","null","","","null","87","","NaN","","","","","","","","","","","","","",""
"","response","","html-keyboard-response","575","928502","0.0-1.0-788.0-0.0","0","0","83965","","290","","","75","87","","","2","87","training","adjacent","FG","6","7","M.jpg","O.jpg","1","1","1","",""
"","feedback","","html-keyboard-response","576","929516","0.0-1.0-789.0-0.0","0","0","83965","","null","","","null","87","","","","","","","","","","","","","","","",""
"","ITI","","html-keyboard-response","577","930525","0.0-1.0-792.0","0","0","83965","","null","","","null","87","","","","","","","","","","","","","","","NaN",""
"","S1","","html-keyboard-response","578","930787","0.0-1.0-794.0","0","0","83965","","null","","","null","88","","","","","","","","","","","","","","","",""
"","ISI","","html-keyboard-response","579","931797","0.0-1.0-795.0","0","0","83965","","null","","","null","88","NaN","","","","","","","","","","","","","","",""
"","S2","","html-keyboard-response","580","932058","0.0-1.0-796.0","0","0","83965","","null","","","null","88","","NaN","","","","","","","","","","","","","",""
"","response","","html-keyboard-response","581","932480","0.0-1.0-797.0-0.0","0","0","83965","","420","","","68","88","","","2","88","training","adjacent","EF","5","6","R.jpg","M.jpg","0","1","0","",""
"","feedback","","html-keyboard-response","582","933492","0.0-1.0-798.0-0.0","0","0","83965","","null","","","null","88","","","","","","","","","","","","","","","",""
