"success","ttype","start_time","trial_type","trial_index","time_elapsed","internal_node_id","warning","missed_checkup","PID","view_history","rt","responses","repeat_instructions","key_press","index","keypress_isi","keypress_S2","block","trial_num","phase","group_type","pair_type","S1_stim","S2_stim","S1_img","S2_img","S1_chosen","S1_higher","accuracy","keypress_iti","total_bonus_tally"
"true","full_screen","d04132023hr2032","fullscreen","0","15863","0.0-0.0","0","0","44586","","","","","","","","","","","","","","","","","","","","","",""
"","instructions","","instructions","1","44698","0.0-1.0-0.0-0.0","0","0","44586","[{""page_index"":0,""viewing_time"":16481},{""page_index"":1,""viewing_time"":6023},{""page_index"":2,""viewing_time"":4324},{""page_index"":3,""viewing_time"":2006}]","28835","","","","","","","","","","","","","","","","","","","",""
"","comprehension_check","","survey-multi-choice","2","78635","0.0-1.0-0.0-1.0","0","0","44586","","33935","{""Q0"":""True"",""Q1"":""K"",""Q2"":""Once the second image appears and while the screen 'MAKE A CHOICE' is shown"",""Q3"":""Green mark"",""Q4"":""either D or K""}","1","","","","","","","","","","","","","","","","","",""
"","missed_instruction_checkup","","html-keyboard-response","3","81430","0.0-1.0-0.0-2.0-0.0","0","1","44586","","2794","","","32","","","","","","","","","","","","","","","","",""
"","instructions","","instructions","4","103001","0.0-1.0-0.1-0.1","0","0","44586","[{""page_index"":0,""viewing_time"":7454},{""page_index"":1,""viewing_time"":11913},{""page_index"":2,""viewing_time"":869},{""page_index"":3,""viewing_time"":1333}]","21569","","","","","","","","","","","","","","","","","","","",""
"","comprehension_check","","survey-multi-choice","5","110636","0.0-1.0-0.1-1.1","0","0","44586","","7634","{""Q0"":""True"",""Q1"":""D"",""Q2"":""Once the second image appears and while the screen 'MAKE A CHOICE' is shown"",""Q3"":""Green mark"",""Q4"":""either D or K""}","0","","","","","","","","","","","","","","","","","",""
"","start_exp","","html-keyboard-response","6","113982","0.0-1.0-1.0","0","0","44586","","3344","","","32","","","","","","","","","","","","","","","","",""
"","S1","","html-keyboard-response","7","114234","0.0-1.0-2.0","0","0","44586","","null","","","null","0","","","","","","","","","","","","","","","",""
"","ISI","","html-keyboard-response","8","115235","0.0-1.0-3.0","0","0","44586","","null","","","null","0","NaN","","","","","","","","","","","","","","",""
"","S2","","html-keyboard-response","9","115488","0.0-1.0-4.0","0","0","44586","","null","","","null","0","","NaN","","","","","","","","","","","","","",""
"","response","","html-keyboard-response","10","116569","0.0-1.0-5.0-0.0","0","0","44586","","1080","","","68","0","","","1","0","training","adjacent","DE","4","5","M.jpg","O.jpg","1","1","1","",""
"","feedback","","html-keyboard-response","11","117571","0.0-1.0-6.0-0.0","0","0","44586","","null","","","null","0","","","","","","","","","","","","","","","",""
"","ITI","","html-keyboard-response","12","118573","0.0-1.0-9.0","0","0","44586","","null","","","null","0","","","","","","","","","","","","","","","NaN",""
"","S1","","html-keyboard-response","13","118825","0.0-1.0-11.0","0","0","44586","","null","","","null","1","","","","","","","","","","","","","","","",""
"","ISI","","html-keyboard-response","14","119826","0.0-1.0-12.0","0","0","44586","","null","","","null","1","NaN","","","","","","","","","","","","","","",""
"","S2","","html-keyboard-response","15","120077","0.0-1.0-13.0","0","0","44586","","null","","","null","1","","NaN","","","","","","","","","","","","","",""
"","response","","html-keyboard-response","16","120430","0.0-1.0-14.0-0.0","0","0","44586","","351","","","75","1","","","1","1","training","adjacent","AB","1","2","L.jpg","P.jpg","0","1","0","",""
"","feedback","","html-keyboard-response","17","121433","0.0-1.0-15.0-0.0","0","0","44586","","null","","","null","1","","","","","","","","","","","","","","","",""
"","time_out","","html-keyboard-response","18","123435","0.0-1.0-17.0-0.0","0","0","44586","","null","","","null","1","","","","","","","","","","","","","","","",""
"","ITI","","html-keyboard-response","19","124437","0.0-1.0-18.0","0","0","44586","","null","","","null","1","","","","","","","","","","","","","","","NaN",""
"","S1","","html-keyboard-response","20","124689","0.0-1.0-20.0","0","0","44586","","null","","","null","2","","","","","","","","","","","","","","","",""
"","ISI","","html-keyboard-response","21","125691","0.0-1.0-21.0","0","0","44586","","null","","","null","2","NaN","","","","","","","","","","","","","","",""
"","S2","","html-keyboard-response","22","125943","0.0-1.0-22.0","0","0","44586","","null","","","null","2","","NaN","","","","","","","","","","","","","",""
"","response","","html-keyboard-response","23","126436","0.0-1.0-23.0-0.0","0","0","44586","","493","","","68","2","","","1","2","training","adjacent","AB","1","2","L.jpg","P.jpg","1","1","1","",""
"","feedback","","html-keyboard-response","24","127438","0.0-1.0-24.0-0.0","0","0","44586","","null","","","null","2","","","","","","","","","","","","","","","",""
"","ITI","","html-keyboard-response","25","128440","0.0-1.0-27.0","0","0","44586","","null","","","null","2","","","","","","","","","","","","","","","NaN",""
"","S1","","html-keyboard-response","26","128691","0.0-1.0-29.0","0","0","44586","","null","","","null","3","","","","","","","","","","","","","","","",""
"","ISI","","html-keyboard-response","27","129694","0.0-1.0-30.0","0","0","44586","","null","","","null","3","NaN","","","","","","","","","","","","","","",""
"","S2","","html-keyboard-response","28","129945","0.0-1.0-31.0","0","0","44586","","null","","","null","3","","NaN","","","","","","","","","","","","","",""
"","response","","html-keyboard-response","29","131431","0.0-1.0-32.0-0.0","0","0","44586","","1484","","","75","3","","","1","3","training","adjacent","EF","5","6","O.jpg","R.jpg","0","1","0","",""
"","feedback","","html-keyboard-response","30","132434","0.0-1.0-33.0-0.0","0","0","44586","","null","","","null","3","","","","","","","","","","","","","","","",""
"","time_out","","html-keyboard-response","31","134434","0.0-1.0-35.0-0.0","0","0","44586","","null","","","null","3","","","","","","","","","","","","","","","",""
"","ITI","","html-keyboard-response","32","135436","0.0-1.0-36.0","0","0","44586","","null","","","null","3","","","","","","","","","","","","","","","NaN",""
"","S1","","html-keyboard-response","33","135687","0.0-1.0-38.0","0","0","44586","","null","","","null","4","","","","","","","","","","","","","","","",""
"","ISI","","html-keyboard-response","34","136689","0.0-1.0-39.0","0","0","44586","","null","","","null","4","NaN","","","","","","","","","","","","","","",""
"","S2","","html-keyboard-response","35","136940","0.0-1.0-40.0","0","0","44586","","null","","","null","4","","NaN","","","","","","","","","","","","","",""
"","response","","html-keyboard-response","36","137857","0.0-1.0-41.0-0.0","0","0","44586","","916","","","75","4","","","1","4","training","adjacent","FE","6","5","R.jpg","O.jpg","0","0","1","",""
"","feedback","","html-keyboard-response","37","138860","0.0-1.0-42.0-0.0","0","0","44586","","null","","","null","4","","","","","","","","","","","","","","","",""
"","ITI","","html-keyboard-response","38","139862","0.0-1.0-45.0","0","0","44586","","null","","","null","4","","","","","","","","","","","","","","","NaN",""
"","S1","","html-keyboard-response","39","140114","0.0-1.0-47.0","0","0","44586","","null","","","null","5","","","","","","","","","","","","","","","",""
"","ISI","","html-keyboard-response","40","141116","0.0-1.0-48.0","0","0","44586","","null","","","null","5","NaN","","","","","","","","","","","","","","",""
"","S2","","html-keyboard-response","41","141368","0.0-1.0-49.0","0","0","44586","","null","","","null","5","","NaN","","","","","","","","","","","","","",""
"","response","","html-keyboard-response","42","141990","0.0-1.0-50.0-0.0","0","0","44586","","621","","","75","5","","","1","5","training","adjacent","DE","4","5","M.jpg","O.jpg","0","1","0","",""
"","feedback","","html-keyboard-response","43","142993","0.0-1.0-51.0-0.0","0","0","44586","","null","","","null","5","","","","","","","","","","","","","","","",""
"","time_out","","html-keyboard-response","44","144995","0.0-1.0-53.0-0.0","0","0","44586","","null","","","null","5","","","","","","","","","","","","","","","",""
"","ITI","","html-keyboard-response","45","145996","0.0-1.0-54.0","0","0","44586","","null","","","null","5","","","","","","","","","","","","","","","NaN",""
"","S1","","html-keyboard-response","46","146262","0.0-1.0-56.0","0","0","44586","","null","","","null","6","","","","","","","","","","","","","","","",""
"","ISI","","html-keyboard-response","47","147264","0.0-1.0-57.0","0","0","44586","","null","","","null","6","NaN","","","","","","","","","","","","","","",""
"","S2","","html-keyboard-response","48","147516","0.0-1.0-58.0","0","0","44586","","null","","","null","6","","NaN","","","","","","","","","","","","","",""
"","response","","html-keyboard-response","49","148106","0.0-1.0-59.0-0.0","0","0","44586","","590","","","68","6","","","1","6","training","adjacent","BC","2","3","P.jpg","N.jpg","1","1","1","",""
"","feedback","","html-keyboard-response","50","149108","0.0-1.0-60.0-0.0","0","0","44586","","null","","","null","6","","","","","","","","","","","","","","","",""
"","ITI","","html-keyboard-response","51","150110","0.0-1.0-63.0","0","0","44586","","null","","","null","6","","","","","","","","","","","","","","","NaN",""
"","S1","","html-keyboard-response","52","150363","0.0-1.0-65.0","0","0","44586","","null","","","null","7","","","","","","","","","","","","","","","",""
"","ISI","","html-keyboard-response","53","151364","0.0-1.0-66.0","0","0","44586","","null","","","null","7","NaN","","","","","","","","","","","","","","",""
"","S2","","html-keyboard-response","54","151617","0.0-1.0-67.0","0","0","44586","","null","","","null","7","","NaN","","","","","","","","","","","","","",""
"","response","","html-keyboard-response","55","152012","0.0-1.0-68.0-0.0","0","0","44586","","394","","","68","7","","","1","7","training","adjacent","BC","2","3","P.jpg","N.jpg","1","1","1","",""
"","feedback","","html-keyboard-response","56","153016","0.0-1.0-69.0-0.0","0","0","44586","","null","","","null","7","","","","","","","","","","","","","","","",""
"","ITI","","html-keyboard-response","57","154017","0.0-1.0-72.0","0","0","44586","","null","","","null","7","","","","","","","","","","","","","","","NaN",""
"","S1","","html-keyboard-response","58","154269","0.0-1.0-74.0","0","0","44586","","null","","","null","8","","","","","","","","","","","","","","","",""
"","ISI","","html-keyboard-response","59","155270","0.0-1.0-75.0","0","0","44586","","null","","","null","8","NaN","","","","","","","","","","","","","","",""
"","S2","","html-keyboard-response","60","155522","0.0-1.0-76.0","0","0","44586","","null","","","null","8","","NaN","","","","","","","","","","","","","",""
"","response","","html-keyboard-response","61","155813","0.0-1.0-77.0-0.0","0","0","44586","","290","","","75","8","","","1","8","training","adjacent","CD","3","4","N.jpg","M.jpg","0","1","0","",""
"","feedback","","html-keyboard-response","62","156816","0.0-1.0-78.0-0.0","0","0","44586","","null","","","null","8","","","","","","","","","","","","","","","",""
"","time_out","","html-keyboard-response","63","158817","0.0-1.0-80.0-0.0","0","0","44586","","null","","","null","8","","","","","","","","","","","","","","","",""
"","ITI","","html-keyboard-response","64","159818","0.0-1.0-81.0","0","0","44586","","null","","","null","8","","","","","","","","","","","","","","","NaN",""
"","S1","","html-keyboard-response","65","160069","0.0-1.0-83.0","0","0","44586","","null","","","null","9","","","","","","","","","","","","","","","",""
"","ISI","","html-keyboard-response","66","161071","0.0-1.0-84.0","0","0","44586","","null","","","null","9","NaN","","","","","","","","","","","","","","",""
"","S2","","html-keyboard-response","67","161323","0.0-1.0-85.0","0","0","44586","","null","","","null","9","","NaN","","","","","","","","","","","","","",""
"","response","","html-keyboard-response","68","161709","0.0-1.0-86.0-0.0","0","0","44586","","386","","","68","9","","","1","9","training","adjacent","BA","2","1","P.jpg","L.jpg","1","0","0","",""
"","feedback","","html-keyboard-response","69","162712","0.0-1.0-87.0-0.0","0","0","44586","","null","","","null","9","","","","","","","","","","","","","","","",""
"","time_out","","html-keyboard-response","70","164713","0.0-1.0-89.0-0.0","0","0","44586","","null","","","null","9","","","","","","","","","","","","","","","",""
"","ITI","","html-keyboard-response","71","165714","0.0-1.0-90.0","0","0","44586","","null","","","null","9","","","","","","","","","","","","","","","NaN",""
"","S1","","html-keyboard-response","72","165966","0.0-1.0-92.0","0","0","44586","","null","","","null","10","","","","","","","","","","","","","","","",""
"","ISI","","html-keyboard-response","73","166968","0.0-1.0-93.0","0","0","44586","","null","","","null","10","NaN","","","","","","","","","","","","","","",""
"","S2","","html-keyboard-response","74","167221","0.0-1.0-94.0","0","0","44586","","null","","","null","10","","NaN","","","","","","","","","","","","","",""
"","response","","html-keyboard-response","75","168432","0.0-1.0-95.0-0.0","0","0","44586","","1209","","","68","10","","","1","10","training","adjacent","GF","7","6","Q.jpg","R.jpg","1","0","0","",""
"","feedback","","html-keyboard-response","76","169434","0.0-1.0-96.0-0.0","0","0","44586","","null","","","null","10","","","","","","","","","","","","","","","",""
"","time_out","","html-keyboard-response","77","171439","0.0-1.0-98.0-0.0","0","0","44586","","null","","","null","10","","","","","","","","","","","","","","","",""
"","ITI","","html-keyboard-response","78","172440","0.0-1.0-99.0","0","0","44586","","null","","","null","10","","","","","","","","","","","","","","","NaN",""
"","S1","","html-keyboard-response","79","172692","0.0-1.0-101.0","0","0","44586","","null","","","null","11","","","","","","","","","","","","","","","",""
"","ISI","","html-keyboard-response","80","173694","0.0-1.0-102.0","0","0","44586","","null","","","null","11","NaN","","","","","","","","","","","","","","",""
"","S2","","html-keyboard-response","81","173946","0.0-1.0-103.0","0","0","44586","","null","","","null","11","","NaN","","","","","","","","","","","","","",""
"","response","","html-keyboard-response","82","173955","0.0-1.0-104.0-0.0","0","0","44586","","8","","","68","11","","","1","11","training","adjacent","BA","2","1","P.jpg","L.jpg","1","0","0","",""
"","feedback","","html-keyboard-response","83","174957","0.0-1.0-105.0-0.0","0","0","44586","","null","","","null","11","","","","","","","","","","","","","","","",""
"","time_out","","html-keyboard-response","84","176960","0.0-1.0-107.0-0.0","0","0","44586","","null","","","null","11","","","","","","","","","","","","","","","",""
"","ITI","","html-keyboard-response","85","177961","0.0-1.0-108.0","0","0","44586","","null","","","null","11","","","","","","","","","","","","","","","NaN",""
"","S1","","html-keyboard-response","86","178213","0.0-1.0-110.0","0","0","44586","","null","","","null","12","","","","","","","","","","","","","","","",""
"","ISI","","html-keyboard-response","87","179215","0.0-1.0-111.0","0","0","44586","","null","","","null","12","NaN","","","","","","","","","","","","","","",""
"","S2","","html-keyboard-response","88","179467","0.0-1.0-112.0","0","0","44586","","null","","","null","12","","NaN","","","","","","","","","","","","","",""
"","response","","html-keyboard-response","89","180551","0.0-1.0-113.0-0.0","0","0","44586","","1082","","","68","12","","","1","12","training","adjacent","GF","7","6","Q.jpg","R.jpg","1","0","0","",""
"","feedback","","html-keyboard-response","90","181557","0.0-1.0-114.0-0.0","0","0","44586","","null","","","null","12","","","","","","","","","","","","","","","",""
"","time_out","","html-keyboard-response","91","183560","0.0-1.0-116.0-0.0","0","0","44586","","null","","","null","12","","","","","","","","","","","","","","","",""
"","ITI","","html-keyboard-response","92","184561","0.0-1.0-117.0","0","0","44586","","null","","","null","12","","","","","","","","","","","","","","","NaN",""
"","S1","","html-keyboard-response","93","184813","0.0-1.0-119.0","0","0","44586","","null","","","null","13","","","","","","","","","","","","","","","",""
"","ISI","","html-keyboard-response","94","185814","0.0-1.0-120.0","0","0","44586","","null","","","null","13","NaN","","","","","","","","","","","","","","",""
"","S2","","html-keyboard-response","95","186065","0.0-1.0-121.0","0","0","44586","","null","","","null","13","","NaN","","","","","","","","","","","","","",""
"","response","","html-keyboard-response","96","186425","0.0-1.0-122.0-0.0","0","0","44586","","358","","","68","13","","","1","13","training","adjacent","DC","4","3","M.jpg","N.jpg","1","0","0","",""
"","feedback","","html-keyboard-response","97","187428","0.0-1.0-123.0-0.0","0","0","44586","","null","","","null","13","","","","","","","","","","","","","","","",""
"","time_out","","html-keyboard-response","98","189430","0.0-1.0-125.0-0.0","0","0","44586","","null","","","null","13","","","","","","","","","","","","","","","",""
"","ITI","","html-keyboard-response","99","190431","0.0-1.0-126.0","0","0","44586","","null","","","null","13","","","","","","","","","","","","","","","NaN",""
"","S1","","html-keyboard-response","100","190684","0.0-1.0-128.0","0","0","44586","","null","","","null","14","","","","","","","","","","","","","","","",""
"","ISI","","html-keyboard-response","101","191684","0.0-1.0-129.0","0","0","44586","","null","","","null","14","NaN","","","","","","","","","","","","","","",""
"","S2","","html-keyboard-response","102","191937","0.0-1.0-130.0","0","0","44586","","null","","","null","14","","NaN","","","","","","","","","","","","","",""
"","response","","html-keyboard-response","103","192278","0.0-1.0-131.0-0.0","0","0","44586","","340","","","75","14","","","1","14","training","adjacent","FG","6","7","R.jpg","Q.jpg","0","1","0","",""
"","feedback","","html-keyboard-response","104","193280","0.0-1.0-132.0-0.0","0","0","44586","","null","","","null","14","","","","","","","","","","","","","","","",""
"","time_out","","html-keyboard-response","105","195281","0.0-1.0-134.0-0.0","0","0","44586","","null","","","null","14","","","","","","","","","","","","","","","",""
"","ITI","","html-keyboard-response","106","196283","0.0-1.0-135.0","0","0","44586","","null","","","null","14","","","","","","","","","","","","","","","NaN",""
"","S1","","html-keyboard-response","107","196536","0.0-1.0-137.0","0","0","44586","","null","","","null","15","","","","","","","","","","","","","","","",""
"","ISI","","html-keyboard-response","108","197536","0.0-1.0-138.0","0","0","44586","","null","","","null","15","NaN","","","","","","","","","","","","","","",""
"","S2","","html-keyboard-response","109","197788","0.0-1.0-139.0","0","0","44586","","null","","","null","15","","NaN","","","","","","","","","","","","","",""
"","response","","html-keyboard-response","110","198818","0.0-1.0-140.0-0.0","0","0","44586","","1029","","","68","15","","","1","15","training","adjacent","ED","5","4","O.jpg","M.jpg","1","0","0","",""
"","feedback","","html-keyboard-response","111","199821","0.0-1.0-141.0-0.0","0","0","44586","","null","","","null","15","","","","","","","","","","","","","","","",""
"","time_out","","html-keyboard-response","112","201821","0.0-1.0-143.0-0.0","0","0","44586","","null","","","null","15","","","","","","","","","","","","","","","",""
"","ITI","","html-keyboard-response","113","202823","0.0-1.0-144.0","0","0","44586","","null","","","null","15","","","","","","","","","","","","","","","NaN",""
"","S1","","html-keyboard-response","114","203076","0.0-1.0-146.0","0","0","44586","","null","","","null","16","","","","","","","","","","","","","","","",""
"","ISI","","html-keyboard-response","115","204077","0.0-1.0-147.0","0","0","44586","","null","","","null","16","NaN","","","","","","","","","","","","","","",""
"","S2","","html-keyboard-response","116","204329","0.0-1.0-148.0","0","0","44586","","null","","","null","16","","NaN","","","","","","","","","","","","","",""
"","response","","html-keyboard-response","117","204551","0.0-1.0-149.0-0.0","0","0","44586","","221","","","68","16","","","1","16","training","adjacent","AB","1","2","L.jpg","P.jpg","1","1","1","",""
"","feedback","","html-keyboard-response","118","205553","0.0-1.0-150.0-0.0","0","0","44586","","null","","","null","16","","","","","","","","","","","","","","","",""
"","ITI","","html-keyboard-response","119","206555","0.0-1.0-153.0","0","0","44586","","null","","","null","16","","","","","","","","","","","","","","","NaN",""
"","S1","","html-keyboard-response","120","206807","0.0-1.0-155.0","0","0","44586","","null","","","null","17","","","","","","","","","","","","","","","",""
"","ISI","","html-keyboard-response","121","207808","0.0-1.0-156.0","0","0","44586","","null","","","null","17","NaN","","","","","","","","","","","","","","",""
"","S2","","html-keyboard-response","122","208060","0.0-1.0-157.0","0","0","44586","","null","","","null","17","","NaN","","","","","","","","","","","","","",""
"","response","","html-keyboard-response","123","208661","0.0-1.0-158.0-0.0","0","0","44586","","600","","","75","17","","","1","17","training","adjacent","GF","7","6","Q.jpg","R.jpg","0","0","1","",""
"","feedback","","html-keyboard-response","124","209663","0.0-1.0-159.0-0.0","0","0","44586","","null","","","null","17","","","","","","","","","","","","","","","",""
"","ITI","","html-keyboard-response","125","210665","0.0-1.0-162.0","0","0","44586","","null","","","null","17","","","","","","","","","","","","","","","NaN",""
"","S1","","html-keyboard-response","126","210918","0.0-1.0-164.0","0","0","44586","","null","","","null","18","","","","","","","","","","","","","","","",""
"","ISI","","html-keyboard-response","127","211920","0.0-1.0-165.0","0","0","44586","","null","","","null","18","NaN","","","","","","","","","","","","","","",""
"","S2","","html-keyboard-response","128","212172","0.0-1.0-166.0","0","0","44586","","null","","","null","18","","NaN","","","","","","","","","","","","","",""
"","response","","html-keyboard-response","129","212776","0.0-1.0-167.0-0.0","0","0","44586","","603","","","75","18","","","1","18","training","adjacent","CB","3","2","N.jpg","P.jpg","0","0","1","",""
"","feedback","","html-keyboard-response","130","213778","0.0-1.0-168.0-0.0","0","0","44586","","null","","","null","18","","","","","","","","","","","","","","","",""
"","ITI","","html-keyboard-response","131","214779","0.0-1.0-171.0","0","0","44586","","null","","","null","18","","","","","","","","","","","","","","","NaN",""
"","S1","","html-keyboard-response","132","215032","0.0-1.0-173.0","0","0","44586","","null","","","null","19","","","","","","","","","","","","","","","",""
"","ISI","","html-keyboard-response","133","216033","0.0-1.0-174.0","0","0","44586","","null","","","null","19","NaN","","","","","","","","","","","","","","",""
"","S2","","html-keyboard-response","134","216286","0.0-1.0-175.0","0","0","44586","","null","","","null","19","","NaN","","","","","","","","","","","","","",""
"","response","","html-keyboard-response","135","216854","0.0-1.0-176.0-0.0","0","0","44586","","568","","","75","19","","","1","19","training","adjacent","CD","3","4","N.jpg","M.jpg","0","1","0","",""
"","feedback","","html-keyboard-response","136","217856","0.0-1.0-177.0-0.0","0","0","44586","","null","","","null","19","","","","","","","","","","","","","","","",""
"","time_out","","html-keyboard-response","137","219857","0.0-1.0-179.0-0.0","0","0","44586","","null","","","null","19","","","","","","","","","","","","","","","",""
"","ITI","","html-keyboard-response","138","220859","0.0-1.0-180.0","0","0","44586","","null","","","null","19","","","","","","","","","","","","","","","NaN",""
"","S1","","html-keyboard-response","139","221112","0.0-1.0-182.0","0","0","44586","","null","","","null","20","","","","","","","","","","","","","","","",""
"","ISI","","html-keyboard-response","140","222120","0.0-1.0-183.0","0","0","44586","","null","","","null","20","NaN","","","","","","","","","","","","","","",""
"","S2","","html-keyboard-response","141","222372","0.0-1.0-184.0","0","0","44586","","null","","","null","20","","NaN","","","","","","","","","","","","","",""
"","response","","html-keyboard-response","142","222476","0.0-1.0-185.0-0.0","0","0","44586","","103","","","68","20","","","1","20","training","adjacent","CB","3","2","N.jpg","P.jpg","1","0","0","",""
"","feedback","","html-keyboard-response","143","223478","0.0-1.0-186.0-0.0","0","0","44586","","null","","","null","20","","","","","","","","","","","","","","","",""
"","time_out","","html-keyboard-response","144","225480","0.0-1.0-188.0-0.0","0","0","44586","","null","","","null","20","","","","","","","","","","","","","","","",""
"","ITI","","html-keyboard-response","145","226481","0.0-1.0-189.0","0","0","44586","","null","","","null","20","","","","","","","","","","","","","","","NaN",""
"","S1","","html-keyboard-response","146","226732","0.0-1.0-191.0","0","0","44586","","null","","","null","21","","","","","","","","","","","","","","","",""
"","ISI","","html-keyboard-response","147","227734","0.0-1.0-192.0","0","0","44586","","null","","","null","21","NaN","","","","","","","","","","","","","","",""
"","S2","","html-keyboard-response","148","227986","0.0-1.0-193.0","0","0","44586","","null","","","null","21","","NaN","","","","","","","","","","","","","",""
"","response","","html-keyboard-response","149","228128","0.0-1.0-194.0-0.0","0","0","44586","","140","","","75","21","","","1","21","training","adjacent","FE","6","5","R.jpg","O.jpg","0","0","1","",""
"","feedback","","html-keyboard-response","150","229129","0.0-1.0-195.0-0.0","0","0","44586","","null","","","null","21","","","","","","","","","","","","","","","",""
"","ITI","","html-keyboard-response","151","230131","0.0-1.0-198.0","0","0","44586","","null","","","null","21","","","","","","","","","","","","","","","NaN",""
"","S1","","html-keyboard-response","152","230382","0.0-1.0-200.0","0","0","44586","","null","","","null","22","","","","","","","","","","","","","","","",""
"","ISI","","html-keyboard-response","153","231384","0.0-1.0-201.0","0","0","44586","","null","","","null","22","NaN","","","","","","","","","","","","","","",""
"","S2","","html-keyboard-response","154","231635","0.0-1.0-202.0","0","0","44586","","null","","","null","22","","NaN","","","","","","","","","","","","","",""
"","response","","html-keyboard-response","155","232328","0.0-1.0-203.0-0.0","0","0","44586","","691","","","75","22","","","1","22","training","adjacent","DE","4","5","M.jpg","O.jpg","0","1","0","",""
"","feedback","","html-keyboard-response","156","233329","0.0-1.0-204.0-0.0","0","0","44586","","null","","","null","22","","","","","","","","","","","","","","","",""
"","time_out","","html-keyboard-response","157","235331","0.0-1.0-206.0-0.0","0","0","44586","","null","","","null","22","","","","","","","","","","","","","","","",""
"","ITI","","html-keyboard-response","158","236333","0.0-1.0-207.0","0","0","44586","","null","","","null","22","","","","","","","","","","","","","","","NaN",""
"","S1","","html-keyboard-response","159","236585","0.0-1.0-209.0","0","0","44586","","null","","","null","23","","","","","","","","","","","","","","","",""
"","ISI","","html-keyboard-response","160","237587","0.0-1.0-210.0","0","0","44586","","null","","","null","23","NaN","","","","","","","","","","","","","","",""
"","S2","","html-keyboard-response","161","237839","0.0-1.0-211.0","0","0","44586","","null","","","null","23","","NaN","","","","","","","","","","","","","",""
"","response","","html-keyboard-response","162","238174","0.0-1.0-212.0-0.0","0","0","44586","","333","","","68","23","","","1","23","training","adjacent","FG","6","7","R.jpg","Q.jpg","1","1","1","",""
"","feedback","","html-keyboard-response","163","239176","0.0-1.0-213.0-0.0","0","0","44586","","null","","","null","23","","","","","","","","","","","","","","","",""
"","ITI","","html-keyboard-response","164","240177","0.0-1.0-216.0","0","0","44586","","null","","","null","23","","","","","","","","","","","","","","","NaN",""
"","S1","","html-keyboard-response","165","240429","0.0-1.0-218.0","0","0","44586","","null","","","null","24","","","","","","","","","","","","","","","",""
"","ISI","","html-keyboard-response","166","241431","0.0-1.0-219.0","0","0","44586","","null","","","null","24","NaN","","","","","","","","","","","","","","",""
"","S2","","html-keyboard-response","167","241682","0.0-1.0-220.0","0","0","44586","","null","","","null","24","","NaN","","","","","","","","","","","","","",""
"","response","","html-keyboard-response","168","242270","0.0-1.0-221.0-0.0","0","0","44586","","586","","","68","24","","","1","24","training","adjacent","FG","6","7","R.jpg","Q.jpg","1","1","1","",""
"","feedback","","html-keyboard-response","169","243272","0.0-1.0-222.0-0.0","0","0","44586","","null","","","null","24","","","","","","","","","","","","","","","",""
"","ITI","","html-keyboard-response","170","244274","0.0-1.0-225.0","0","0","44586","","null","","","null","24","","","","","","","","","","","","","","","NaN",""
"","S1","","html-keyboard-response","171","244526","0.0-1.0-227.0","0","0","44586","","null","","","null","25","","","","","","","","","","","","","","","",""
"","ISI","","html-keyboard-response","172","245528","0.0-1.0-228.0","0","0","44586","","null","","","null","25","NaN","","","","","","","","","","","","","","",""
"","S2","","html-keyboard-response","173","245781","0.0-1.0-229.0","0","0","44586","","null","","","null","25","","NaN","","","","","","","","","","","","","",""
"","response","","html-keyboard-response","174","246306","0.0-1.0-230.0-0.0","0","0","44586","","523","","","75","25","","","1","25","training","adjacent","ED","5","4","O.jpg","M.jpg","0","0","1","",""
"","feedback","","html-keyboard-response","175","247307","0.0-1.0-231.0-0.0","0","0","44586","","null","","","null","25","","","","","","","","","","","","","","","",""
"","ITI","","html-keyboard-response","176","248308","0.0-1.0-234.0","0","0","44586","","null","","","null","25","","","","","","","","","","","","","","","NaN",""
"","S1","","html-keyboard-response","177","248560","0.0-1.0-236.0","0","0","44586","","null","","","null","26","","","","","","","","","","","","","","","",""
"","ISI","","html-keyboard-response","178","249562","0.0-1.0-237.0","0","0","44586","","null","","","null","26","NaN","","","","","","","","","","","","","","",""
"","S2","","html-keyboard-response","179","249814","0.0-1.0-238.0","0","0","44586","","null","","","null","26","","NaN","","","","","","","","","","","","","",""
"","response","","html-keyboard-response","180","250536","0.0-1.0-239.0-0.0","0","0","44586","","720","","","68","26","","","1","26","training","adjacent","EF","5","6","O.jpg","R.jpg","1","1","1","",""
"","feedback","","html-keyboard-response","181","251538","0.0-1.0-240.0-0.0","0","0","44586","","null","","","null","26","","","","","","","","","","","","","","","",""
"","ITI","","html-keyboard-response","182","252539","0.0-1.0-243.0","0","0","44586","","null","","","null","26","","","","","","","","","","","","","","","NaN",""
"","S1","","html-keyboard-response","183","252791","0.0-1.0-245.0","0","0","44586","","null","","","null","27","","","","","","","","","","","","","","","",""
"","ISI","","html-keyboard-response","184","253793","0.0-1.0-246.0","0","0","44586","","null","","","null","27","NaN","","","","","","","","","","","","","","",""
"","S2","","html-keyboard-response","185","254045","0.0-1.0-247.0","0","0","44586","","null","","","null","27","","NaN","","","","","","","","","","","","","",""
"","response","","html-keyboard-response","186","254394","0.0-1.0-248.0-0.0","0","0","44586","","347","","","75","27","","","1","27","training","adjacent","CB","3","2","N.jpg","P.jpg","0","0","1","",""
"","feedback","","html-keyboard-response","187","255395","0.0-1.0-249.0-0.0","0","0","44586","","null","","","null","27","","","","","","","","","","","","","","","",""
"","ITI","","html-keyboard-response","188","256398","0.0-1.0-252.0","0","0","44586","","null","","","null","27","","","","","","","","","","","","","","","NaN",""
"","S1","","html-keyboard-response","189","256650","0.0-1.0-254.0","0","0","44586","","null","","","null","28","","","","","","","","","","","","","","","",""
"","ISI","","html-keyboard-response","190","257651","0.0-1.0-255.0","0","0","44586","","null","","","null","28","NaN","","","","","","","","","","","","","","",""
"","S2","","html-keyboard-response","191","257903","0.0-1.0-256.0","0","0","44586","","null","","","null","28","","NaN","","","","","","","","","","","","","",""
"","response","","html-keyboard-response","192","258177","0.0-1.0-257.0-0.0","0","0","44586","","272","","","75","28","","","1","28","training","adjacent","CB","3","2","N.jpg","P.jpg","0","0","1","",""
"","feedback","","html-keyboard-response","193","259178","0.0-1.0-258.0-0.0","0","0","44586","","null","","","null","28","","","","","","","","","","","","","","","",""
"","ITI","","html-keyboard-response","194","260189","0.0-1.0-261.0","0","0","44586","","null","","","null","28","","","","","","","","","","","","","","","NaN",""
"","S1","","html-keyboard-response","195","260442","0.0-1.0-263.0","0","0","44586","","null","","","null","29","","","","","","","","","","","","","","","",""
"","ISI","","html-keyboard-response","196","261443","0.0-1.0-264.0","0","0","44586","","null","","","null","29","NaN","","","","","","","","","","","","","","",""
"","S2","","html-keyboard-response","197","261696","0.0-1.0-265.0","0","0","44586","","null","","","null","29","","NaN","","","","","","","","","","","","","",""
"","response","","html-keyboard-response","198","262007","0.0-1.0-266.0-0.0","0","0","44586","","309","","","75","29","","","1","29","training","adjacent","AB","1","2","L.jpg","P.jpg","0","1","0","",""
"","feedback","","html-keyboard-response","199","263009","0.0-1.0-267.0-0.0","0","0","44586","","null","","","null","29","","","","","","","","","","","","","","","",""
"","time_out","","html-keyboard-response","200","265010","0.0-1.0-269.0-0.0","0","0","44586","","null","","","null","29","","","","","","","","","","","","","","","",""
"","ITI","","html-keyboard-response","201","266012","0.0-1.0-270.0","0","0","44586","","null","","","null","29","","","","","","","","","","","","","","","NaN",""
"","S1","","html-keyboard-response","202","266264","0.0-1.0-272.0","0","0","44586","","null","","","null","30","","","","","","","","","","","","","","","",""
"","ISI","","html-keyboard-response","203","267265","0.0-1.0-273.0","0","0","44586","","null","","","null","30","NaN","","","","","","","","","","","","","","",""
"","S2","","html-keyboard-response","204","267517","0.0-1.0-274.0","0","0","44586","","null","","","null","30","","NaN","","","","","","","","","","","","","",""
"","response","","html-keyboard-response","205","267758","0.0-1.0-275.0-0.0","0","0","44586","","239","","","68","30","","","1","30","training","adjacent","FG","6","7","R.jpg","Q.jpg","1","1","1","",""
"","feedback","","html-keyboard-response","206","268760","0.0-1.0-276.0-0.0","0","0","44586","","null","","","null","30","","","","","","","","","","","","","","","",""
"","ITI","","html-keyboard-response","207","269762","0.0-1.0-279.0","0","0","44586","","null","","","null","30","","","","","","","","","","","","","","","NaN",""
"","S1","","html-keyboard-response","208","270014","0.0-1.0-281.0","0","0","44586","","null","","","null","31","","","","","","","","","","","","","","","",""
"","ISI","","html-keyboard-response","209","271016","0.0-1.0-282.0","0","0","44586","","null","","","null","31","NaN","","","","","","","","","","","","","","",""
"","S2","","html-keyboard-response","210","271268","0.0-1.0-283.0","0","0","44586","","null","","","null","31","","NaN","","","","","","","","","","","","","",""
"","response","","html-keyboard-response","211","271528","0.0-1.0-284.0-0.0","0","0","44586","","258","","","68","31","","","1","31","training","adjacent","FE","6","5","R.jpg","O.jpg","1","0","0","",""
"","feedback","","html-keyboard-response","212","272529","0.0-1.0-285.0-0.0","0","0","44586","","null","","","null","31","","","","","","","","","","","","","","","",""
"","time_out","","html-keyboard-response","213","274536","0.0-1.0-287.0-0.0","0","0","44586","","null","","","null","31","","","","","","","","","","","","","","","",""
"","ITI","","html-keyboard-response","214","275538","0.0-1.0-288.0","0","0","44586","","null","","","null","31","","","","","","","","","","","","","","","NaN",""
"","S1","","html-keyboard-response","215","275790","0.0-1.0-290.0","0","0","44586","","null","","","null","32","","","","","","","","","","","","","","","",""
"","ISI","","html-keyboard-response","216","276791","0.0-1.0-291.0","0","0","44586","","null","","","null","32","NaN","","","","","","","","","","","","","","",""
"","S2","","html-keyboard-response","217","277043","0.0-1.0-292.0","0","0","44586","","null","","","null","32","","NaN","","","","","","","","","","","","","",""
"","response","","html-keyboard-response","218","277355","0.0-1.0-293.0-0.0","0","0","44586","","310","","","68","32","","","1","32","training","adjacent","DC","4","3","M.jpg","N.jpg","1","0","0","",""
"","feedback","","html-keyboard-response","219","278357","0.0-1.0-294.0-0.0","0","0","44586","","null","","","null","32","","","","","","","","","","","","","","","",""
"","time_out","","html-keyboard-response","220","280359","0.0-1.0-296.0-0.0","0","0","44586","","null","","","null","32","","","","","","","","","","","","","","","",""
"","ITI","","html-keyboard-response","221","281361","0.0-1.0-297.0","0","0","44586","","null","","","null","32","","","","","","","","","","","","","","","NaN",""
"","S1","","html-keyboard-response","222","281612","0.0-1.0-299.0","0","0","44586","","null","","","null","33","","","","","","","","","","","","","","","",""
"","ISI","","html-keyboard-response","223","282614","0.0-1.0-300.0","0","0","44586","","null","","","null","33","NaN","","","","","","","","","","","","","","",""
"","S2","","html-keyboard-response","224","282866","0.0-1.0-301.0","0","0","44586","","null","","","null","33","","NaN","","","","","","","","","","","","","",""
"","response","","html-keyboard-response","225","282994","0.0-1.0-302.0-0.0","0","0","44586","","127","","","68","33","","","1","33","training","adjacent","FE","6","5","R.jpg","O.jpg","1","0","0","",""
"","feedback","","html-keyboard-response","226","283997","0.0-1.0-303.0-0.0","0","0","44586","","null","","","null","33","","","","","","","","","","","","","","","",""
"","time_out","","html-keyboard-response","227","285998","0.0-1.0-305.0-0.0","0","0","44586","","null","","","null","33","","","","","","","","","","","","","","","",""
"","ITI","","html-keyboard-response","228","287000","0.0-1.0-306.0","0","0","44586","","null","","","null","33","","","","","","","","","","","","","","","NaN",""
"","S1","","html-keyboard-response","229","287252","0.0-1.0-308.0","0","0","44586","","null","","","null","34","","","","","","","","","","","","","","","",""
"","ISI","","html-keyboard-response","230","288254","0.0-1.0-309.0","0","0","44586","","null","","","null","34","NaN","","","","","","","","","","","","","","",""
"","S2","","html-keyboard-response","231","288505","0.0-1.0-310.0","0","0","44586","","null","","","null","34","","NaN","","","","","","","","","","","","","",""
"","response","","html-keyboard-response","232","288664","0.0-1.0-311.0-0.0","0","0","44586","","157","","","68","34","","","1","34","training","adjacent","DC","4","3","M.jpg","N.jpg","1","0","0","",""
"","feedback","","html-keyboard-response","233","289666","0.0-1.0-312.0-0.0","0","0","44586","","null","","","null","34","","","","","","","","","","","","","","","",""
"","time_out","","html-keyboard-response","234","291668","0.0-1.0-314.0-0.0","0","0","44586","","null","","","null","34","","","","","","","","","","","","","","","",""
"","ITI","","html-keyboard-response","235","292669","0.0-1.0-315.0","0","0","44586","","null","","","null","34","","","","","","","","","","","","","","","NaN",""
"","S1","","html-keyboard-response","236","292922","0.0-1.0-317.0","0","0","44586","","null","","","null","35","","","","","","","","","","","","","","","",""
"","ISI","","html-keyboard-response","237","293924","0.0-1.0-318.0","0","0","44586","","null","","","null","35","NaN","","","","","","","","","","","","","","",""
"","S2","","html-keyboard-response","238","294176","0.0-1.0-319.0","0","0","44586","","null","","","null","35","","NaN","","","","","","","","","","","","","",""
"","response","","html-keyboard-response","239","294733","0.0-1.0-320.0-0.0","0","0","44586","","556","","","75","35","","","1","35","training","adjacent","EF","5","6","O.jpg","R.jpg","0","1","0","",""
"","feedback","","html-keyboard-response","240","295735","0.0-1.0-321.0-0.0","0","0","44586","","null","","","null","35","","","","","","","","","","","","","","","",""
"","time_out","","html-keyboard-response","241","297737","0.0-1.0-323.0-0.0","0","0","44586","","null","","","null","35","","","","","","","","","","","","","","","",""
"","ITI","","html-keyboard-response","242","298742","0.0-1.0-324.0","0","0","44586","","null","","","null","35","","","","","","","","","","","","","","","NaN",""
"","S1","","html-keyboard-response","243","298995","0.0-1.0-326.0","0","0","44586","","null","","","null","36","","","","","","","","","","","","","","","",""
"","ISI","","html-keyboard-response","244","299996","0.0-1.0-327.0","0","0","44586","","null","","","null","36","NaN","","","","","","","","","","","","","","",""
"","S2","","html-keyboard-response","245","300249","0.0-1.0-328.0","0","0","44586","","null","","","null","36","","NaN","","","","","","","","","","","","","",""
"","response","","html-keyboard-response","246","301214","0.0-1.0-329.0-0.0","0","0","44586","","964","","","75","36","","","1","36","training","adjacent","BA","2","1","P.jpg","L.jpg","0","0","1","",""
"","feedback","","html-keyboard-response","247","302215","0.0-1.0-330.0-0.0","0","0","44586","","null","","","null","36","","","","","","","","","","","","","","","",""
"","ITI","","html-keyboard-response","248","303217","0.0-1.0-333.0","0","0","44586","","null","","","null","36","","","","","","","","","","","","","","","NaN",""
"","S1","","html-keyboard-response","249","303469","0.0-1.0-335.0","0","0","44586","","null","","","null","37","","","","","","","","","","","","","","","",""
"","ISI","","html-keyboard-response","250","304471","0.0-1.0-336.0","0","0","44586","","null","","","null","37","NaN","","","","","","","","","","","","","","",""
"","S2","","html-keyboard-response","251","304723","0.0-1.0-337.0","0","0","44586","","null","","","null","37","","NaN","","","","","","","","","","","","","",""
"","response","","html-keyboard-response","252","305401","0.0-1.0-338.0-0.0","0","0","44586","","677","","","75","37","","","1","37","training","adjacent","ED","5","4","O.jpg","M.jpg","0","0","1","",""
"","feedback","","html-keyboard-response","253","306403","0.0-1.0-339.0-0.0","0","0","44586","","null","","","null","37","","","","","","","","","","","","","","","",""
"","ITI","","html-keyboard-response","254","307405","0.0-1.0-342.0","0","0","44586","","null","","","null","37","","","","","","","","","","","","","","","NaN",""
"","S1","","html-keyboard-response","255","307658","0.0-1.0-344.0","0","0","44586","","null","","","null","38","","","","","","","","","","","","","","","",""
"","ISI","","html-keyboard-response","256","308660","0.0-1.0-345.0","0","0","44586","","null","","","null","38","NaN","","","","","","","","","","","","","","",""
"","S2","","html-keyboard-response","257","308912","0.0-1.0-346.0","0","0","44586","","null","","","null","38","","NaN","","","","","","","","","","","","","",""
"","response","","html-keyboard-response","258","309121","0.0-1.0-347.0-0.0","0","0","44586","","207","","","68","38","","","1","38","training","adjacent","DC","4","3","M.jpg","N.jpg","1","0","0","",""
"","feedback","","html-keyboard-response","259","310123","0.0-1.0-348.0-0.0","0","0","44586","","null","","","null","38","","","","","","","","","","","","","","","",""
"","time_out","","html-keyboard-response","260","312126","0.0-1.0-350.0-0.0","0","0","44586","","null","","","null","38","","","","","","","","","","","","","","","",""
"","ITI","","html-keyboard-response","261","313128","0.0-1.0-351.0","0","0","44586","","null","","","null","38","","","","","","","","","","","","","","","NaN",""
"","S1","","html-keyboard-response","262","313380","0.0-1.0-353.0","0","0","44586","","null","","","null","39","","","","","","","","","","","","","","","",""
"","ISI","","html-keyboard-response","263","314382","0.0-1.0-354.0","0","0","44586","","null","","","null","39","NaN","","","","","","","","","","","","","","",""
"","S2","","html-keyboard-response","264","314634","0.0-1.0-355.0","0","0","44586","","null","","","null","39","","NaN","","","","","","","","","","","","","",""
"","response","","html-keyboard-response","265","315037","0.0-1.0-356.0-0.0","0","0","44586","","401","","","68","39","","","1","39","training","adjacent","GF","7","6","Q.jpg","R.jpg","1","0","0","",""
"","feedback","","html-keyboard-response","266","316040","0.0-1.0-357.0-0.0","0","0","44586","","null","","","null","39","","","","","","","","","","","","","","","",""
"","time_out","","html-keyboard-response","267","318042","0.0-1.0-359.0-0.0","0","0","44586","","null","","","null","39","","","","","","","","","","","","","","","",""
"","ITI","","html-keyboard-response","268","319044","0.0-1.0-360.0","0","0","44586","","null","","","null","39","","","","","","","","","","","","","","","NaN",""
"","S1","","html-keyboard-response","269","319296","0.0-1.0-362.0","0","0","44586","","null","","","null","40","","","","","","","","","","","","","","","",""
"","ISI","","html-keyboard-response","270","320298","0.0-1.0-363.0","0","0","44586","","null","","","null","40","NaN","","","","","","","","","","","","","","",""
"","S2","","html-keyboard-response","271","320550","0.0-1.0-364.0","0","0","44586","","null","","","null","40","","NaN","","","","","","","","","","","","","",""
"","response","","html-keyboard-response","272","321210","0.0-1.0-365.0-0.0","0","0","44586","","659","","","75","40","","","1","40","training","adjacent","BA","2","1","P.jpg","L.jpg","0","0","1","",""
"","feedback","","html-keyboard-response","273","322212","0.0-1.0-366.0-0.0","0","0","44586","","null","","","null","40","","","","","","","","","","","","","","","",""
"","ITI","","html-keyboard-response","274","323214","0.0-1.0-369.0","0","0","44586","","null","","","null","40","","","","","","","","","","","","","","","NaN",""
"","S1","","html-keyboard-response","275","323466","0.0-1.0-371.0","0","0","44586","","null","","","null","41","","","","","","","","","","","","","","","",""
"","ISI","","html-keyboard-response","276","324467","0.0-1.0-372.0","0","0","44586","","null","","","null","41","NaN","","","","","","","","","","","","","","",""
"","S2","","html-keyboard-response","277","324720","0.0-1.0-373.0","0","0","44586","","null","","","null","41","","NaN","","","","","","","","","","","","","",""
"","response","","html-keyboard-response","278","325273","0.0-1.0-374.0-0.0","0","0","44586","","551","","","75","41","","","1","41","training","adjacent","CD","3","4","N.jpg","M.jpg","0","1","0","",""
"","feedback","","html-keyboard-response","279","326276","0.0-1.0-375.0-0.0","0","0","44586","","null","","","null","41","","","","","","","","","","","","","","","",""
"","time_out","","html-keyboard-response","280","328277","0.0-1.0-377.0-0.0","0","0","44586","","null","","","null","41","","","","","","","","","","","","","","","",""
"","ITI","","html-keyboard-response","281","329279","0.0-1.0-378.0","0","0","44586","","null","","","null","41","","","","","","","","","","","","","","","NaN",""
"","S1","","html-keyboard-response","282","329531","0.0-1.0-380.0","0","0","44586","","null","","","null","42","","","","","","","","","","","","","","","",""
"","ISI","","html-keyboard-response","283","330531","0.0-1.0-381.0","0","0","44586","","null","","","null","42","NaN","","","","","","","","","","","","","","",""
"","S2","","html-keyboard-response","284","330784","0.0-1.0-382.0","0","0","44586","","null","","","null","42","","NaN","","","","","","","","","","","","","",""
"","response","","html-keyboard-response","285","330794","0.0-1.0-383.0-0.0","0","0","44586","","8","","","68","42","","","1","42","training","adjacent","DE","4","5","M.jpg","O.jpg","1","1","1","",""
"","feedback","","html-keyboard-response","286","331796","0.0-1.0-384.0-0.0","0","0","44586","","null","","","null","42","","","","","","","","","","","","","","","",""
"","ITI","","html-keyboard-response","287","332798","0.0-1.0-387.0","0","0","44586","","null","","","null","42","","","","","","","","","","","","","","","NaN",""
"","S1","","html-keyboard-response","288","333050","0.0-1.0-389.0","0","0","44586","","null","","","null","43","","","","","","","","","","","","","","","",""
"","ISI","","html-keyboard-response","289","334051","0.0-1.0-390.0","0","0","44586","","null","","","null","43","NaN","","","","","","","","","","","","","","",""
"","S2","","html-keyboard-response","290","334303","0.0-1.0-391.0","0","0","44586","","null","","","null","43","","NaN","","","","","","","","","","","","","",""
"","response","","html-keyboard-response","291","335066","0.0-1.0-392.0-0.0","0","0","44586","","761","","","75","43","","","1","43","training","adjacent","ED","5","4","O.jpg","M.jpg","0","0","1","",""
"","feedback","","html-keyboard-response","292","336067","0.0-1.0-393.0-0.0","0","0","44586","","null","","","null","43","","","","","","","","","","","","","","","",""
"","ITI","","html-keyboard-response","293","337068","0.0-1.0-396.0","0","0","44586","","null","","","null","43","","","","","","","","","","","","","","","NaN",""
"","S1","","html-keyboard-response","294","337322","0.0-1.0-398.0","0","0","44586","","null","","","null","44","","","","","","","","","","","","","","","",""
"","ISI","","html-keyboard-response","295","338323","0.0-1.0-399.0","0","0","44586","","null","","","null","44","NaN","","","","","","","","","","","","","","",""
"","S2","","html-keyboard-response","296","338575","0.0-1.0-400.0","0","0","44586","","null","","","null","44","","NaN","","","","","","","","","","","","","",""
"","response","","html-keyboard-response","297","338909","0.0-1.0-401.0-0.0","0","0","44586","","333","","","68","44","","","1","44","training","adjacent","BC","2","3","P.jpg","N.jpg","1","1","1","",""
"","feedback","","html-keyboard-response","298","339911","0.0-1.0-402.0-0.0","0","0","44586","","null","","","null","44","","","","","","","","","","","","","","","",""
"","ITI","","html-keyboard-response","299","340913","0.0-1.0-405.0","0","0","44586","","null","","","null","44","","","","","","","","","","","","","","","NaN",""
"","S1","","html-keyboard-response","300","341166","0.0-1.0-407.0","0","0","44586","","null","","","null","45","","","","","","","","","","","","","","","",""
"","ISI","","html-keyboard-response","301","342167","0.0-1.0-408.0","0","0","44586","","null","","","null","45","NaN","","","","","","","","","","","","","","",""
"","S2","","html-keyboard-response","302","342420","0.0-1.0-409.0","0","0","44586","","null","","","null","45","","NaN","","","","","","","","","","","","","",""
"","response","","html-keyboard-response","303","342600","0.0-1.0-410.0-0.0","0","0","44586","","178","","","68","45","","","1","45","training","adjacent","EF","5","6","O.jpg","R.jpg","1","1","1","",""
"","feedback","","html-keyboard-response","304","343601","0.0-1.0-411.0-0.0","0","0","44586","","null","","","null","45","","","","","","","","","","","","","","","",""
"","ITI","","html-keyboard-response","305","344603","0.0-1.0-414.0","0","0","44586","","null","","","null","45","","","","","","","","","","","","","","","NaN",""
"","S1","","html-keyboard-response","306","344856","0.0-1.0-416.0","0","0","44586","","null","","","null","46","","","","","","","","","","","","","","","",""
"","ISI","","html-keyboard-response","307","345857","0.0-1.0-417.0","0","0","44586","","null","","","null","46","NaN","","","","","","","","","","","","","","",""
"","S2","","html-keyboard-response","308","346112","0.0-1.0-418.0","0","0","44586","","null","","","null","46","","NaN","","","","","","","","","","","","","",""
"","response","","html-keyboard-response","309","346380","0.0-1.0-419.0-0.0","0","0","44586","","267","","","68","46","","","1","46","training","adjacent","BC","2","3","P.jpg","N.jpg","1","1","1","",""
"","feedback","","html-keyboard-response","310","347382","0.0-1.0-420.0-0.0","0","0","44586","","null","","","null","46","","","","","","","","","","","","","","","",""
"","ITI","","html-keyboard-response","311","348384","0.0-1.0-423.0","0","0","44586","","null","","","null","46","","","","","","","","","","","","","","","NaN",""
"","S1","","html-keyboard-response","312","348636","0.0-1.0-425.0","0","0","44586","","null","","","null","47","","","","","","","","","","","","","","","",""
"","ISI","","html-keyboard-response","313","349638","0.0-1.0-426.0","0","0","44586","","null","","","null","47","NaN","","","","","","","","","","","","","","",""
"","S2","","html-keyboard-response","314","349891","0.0-1.0-427.0","0","0","44586","","null","","","null","47","","NaN","","","","","","","","","","","","","",""
"","response","","html-keyboard-response","315","350563","0.0-1.0-428.0-0.0","0","0","44586","","670","","","75","47","","","1","47","training","adjacent","CD","3","4","N.jpg","M.jpg","0","1","0","",""
"","feedback","","html-keyboard-response","316","351565","0.0-1.0-429.0-0.0","0","0","44586","","null","","","null","47","","","","","","","","","","","","","","","",""
"","time_out","","html-keyboard-response","317","353567","0.0-1.0-431.0-0.0","0","0","44586","","null","","","null","47","","","","","","","","","","","","","","","",""
"","ITI","","html-keyboard-response","318","354569","0.0-1.0-432.0","0","0","44586","","null","","","null","47","","","","","","","","","","","","","","","NaN",""
"","block_over","","html-keyboard-response","319","381300","0.0-1.0-433.0-0.0","0","0","44586","","26729","","","32","47","","","","","","","","","","","","","","","",""
"","S1","","html-keyboard-response","320","381551","0.0-1.0-434.0","0","0","44586","","null","","","null","48","","","","","","","","","","","","","","","",""
"","ISI","","html-keyboard-response","321","382552","0.0-1.0-435.0","0","0","44586","","null","","","null","48","NaN","","","","","","","","","","","","","","",""
"","S2","","html-keyboard-response","322","382805","0.0-1.0-436.0","0","0","44586","","null","","","null","48","","NaN","","","","","","","","","","","","","",""
"","response","","html-keyboard-response","323","383383","0.0-1.0-437.0-0.0","0","0","44586","","576","","","68","48","","","2","48","training","adjacent","EF","5","6","O.jpg","R.jpg","1","1","1","",""
"","feedback","","html-keyboard-response","324","384385","0.0-1.0-438.0-0.0","0","0","44586","","null","","","null","48","","","","","","","","","","","","","","","",""
"","ITI","","html-keyboard-response","325","385387","0.0-1.0-441.0","0","0","44586","","null","","","null","48","","","","","","","","","","","","","","","NaN",""
"","S1","","html-keyboard-response","326","385640","0.0-1.0-443.0","0","0","44586","","null","","","null","49","","","","","","","","","","","","","","","",""
"","ISI","","html-keyboard-response","327","386642","0.0-1.0-444.0","0","0","44586","","null","","","null","49","NaN","","","","","","","","","","","","","","",""
"","S2","","html-keyboard-response","328","386895","0.0-1.0-445.0","0","0","44586","","null","","","null","49","","NaN","","","","","","","","","","","","","",""
"","response","","html-keyboard-response","329","387565","0.0-1.0-446.0-0.0","0","0","44586","","669","","","75","49","","","2","49","training","adjacent","DE","4","5","M.jpg","O.jpg","0","1","0","",""
"","feedback","","html-keyboard-response","330","388566","0.0-1.0-447.0-0.0","0","0","44586","","null","","","null","49","","","","","","","","","","","","","","","",""
"","time_out","","html-keyboard-response","331","390567","0.0-1.0-449.0-0.0","0","0","44586","","null","","","null","49","","","","","","","","","","","","","","","",""
"","ITI","","html-keyboard-response","332","391568","0.0-1.0-450.0","0","0","44586","","null","","","null","49","","","","","","","","","","","","","","","NaN",""
"","S1","","html-keyboard-response","333","391819","0.0-1.0-452.0","0","0","44586","","null","","","null","50","","","","","","","","","","","","","","","",""
"","ISI","","html-keyboard-response","334","392821","0.0-1.0-453.0","0","0","44586","","null","","","null","50","NaN","","","","","","","","","","","","","","",""
"","S2","","html-keyboard-response","335","393073","0.0-1.0-454.0","0","0","44586","","null","","","null","50","","NaN","","","","","","","","","","","","","",""
"","response","","html-keyboard-response","336","393486","0.0-1.0-455.0-0.0","0","0","44586","","411","","","68","50","","","2","50","training","adjacent","DC","4","3","M.jpg","N.jpg","1","0","0","",""
"","feedback","","html-keyboard-response","337","394488","0.0-1.0-456.0-0.0","0","0","44586","","null","","","null","50","","","","","","","","","","","","","","","",""
"","time_out","","html-keyboard-response","338","396489","0.0-1.0-458.0-0.0","0","0","44586","","null","","","null","50","","","","","","","","","","","","","","","",""
"","ITI","","html-keyboard-response","339","397490","0.0-1.0-459.0","0","0","44586","","null","","","null","50","","","","","","","","","","","","","","","NaN",""
"","S1","","html-keyboard-response","340","397742","0.0-1.0-461.0","0","0","44586","","null","","","null","51","","","","","","","","","","","","","","","",""
"","ISI","","html-keyboard-response","341","398744","0.0-1.0-462.0","0","0","44586","","null","","","null","51","NaN","","","","","","","","","","","","","","",""
"","S2","","html-keyboard-response","342","398996","0.0-1.0-463.0","0","0","44586","","null","","","null","51","","NaN","","","","","","","","","","","","","",""
"","response","","html-keyboard-response","343","399289","0.0-1.0-464.0-0.0","0","0","44586","","291","","","68","51","","","2","51","training","adjacent","ED","5","4","O.jpg","M.jpg","1","0","0","",""
"","feedback","","html-keyboard-response","344","400291","0.0-1.0-465.0-0.0","0","0","44586","","null","","","null","51","","","","","","","","","","","","","","","",""
"","time_out","","html-keyboard-response","345","402292","0.0-1.0-467.0-0.0","0","0","44586","","null","","","null","51","","","","","","","","","","","","","","","",""
"","ITI","","html-keyboard-response","346","403294","0.0-1.0-468.0","0","0","44586","","null","","","null","51","","","","","","","","","","","","","","","NaN",""
"","S1","","html-keyboard-response","347","403546","0.0-1.0-470.0","0","0","44586","","null","","","null","52","","","","","","","","","","","","","","","",""
"","ISI","","html-keyboard-response","348","404548","0.0-1.0-471.0","0","0","44586","","null","","","null","52","NaN","","","","","","","","","","","","","","",""
"","S2","","html-keyboard-response","349","404801","0.0-1.0-472.0","0","0","44586","","null","","","null","52","","NaN","","","","","","","","","","","","","",""
"","response","","html-keyboard-response","350","405957","0.0-1.0-473.0-0.0","0","0","44586","","1155","","","75","52","","","2","52","training","adjacent","FG","6","7","R.jpg","Q.jpg","0","1","0","",""
"","feedback","","html-keyboard-response","351","406959","0.0-1.0-474.0-0.0","0","0","44586","","null","","","null","52","","","","","","","","","","","","","","","",""
"","time_out","","html-keyboard-response","352","408960","0.0-1.0-476.0-0.0","0","0","44586","","null","","","null","52","","","","","","","","","","","","","","","",""
"","ITI","","html-keyboard-response","353","409962","0.0-1.0-477.0","0","0","44586","","null","","","null","52","","","","","","","","","","","","","","","NaN",""
"","S1","","html-keyboard-response","354","410213","0.0-1.0-479.0","0","0","44586","","null","","","null","53","","","","","","","","","","","","","","","",""
"","ISI","","html-keyboard-response","355","411215","0.0-1.0-480.0","0","0","44586","","null","","","null","53","NaN","","","","","","","","","","","","","","",""
"","S2","","html-keyboard-response","356","411467","0.0-1.0-481.0","0","0","44586","","null","","","null","53","","NaN","","","","","","","","","","","","","",""
"","response","","html-keyboard-response","357","411719","0.0-1.0-482.0-0.0","0","0","44586","","250","","","68","53","","","2","53","training","adjacent","BA","2","1","P.jpg","L.jpg","1","0","0","",""
"","feedback","","html-keyboard-response","358","412721","0.0-1.0-483.0-0.0","0","0","44586","","null","","","null","53","","","","","","","","","","","","","","","",""
"","time_out","","html-keyboard-response","359","414723","0.0-1.0-485.0-0.0","0","0","44586","","null","","","null","53","","","","","","","","","","","","","","","",""
"","ITI","","html-keyboard-response","360","415725","0.0-1.0-486.0","0","0","44586","","null","","","null","53","","","","","","","","","","","","","","","NaN",""
"","S1","","html-keyboard-response","361","415976","0.0-1.0-488.0","0","0","44586","","null","","","null","54","","","","","","","","","","","","","","","",""
"","ISI","","html-keyboard-response","362","416978","0.0-1.0-489.0","0","0","44586","","null","","","null","54","NaN","","","","","","","","","","","","","","",""
"","S2","","html-keyboard-response","363","417230","0.0-1.0-490.0","0","0","44586","","null","","","null","54","","NaN","","","","","","","","","","","","","",""
"","response","","html-keyboard-response","364","417754","0.0-1.0-491.0-0.0","0","0","44586","","523","","","68","54","","","2","54","training","adjacent","BA","2","1","P.jpg","L.jpg","1","0","0","",""
"","feedback","","html-keyboard-response","365","418755","0.0-1.0-492.0-0.0","0","0","44586","","null","","","null","54","","","","","","","","","","","","","","","",""
"","time_out","","html-keyboard-response","366","420757","0.0-1.0-494.0-0.0","0","0","44586","","null","","","null","54","","","","","","","","","","","","","","","",""
"","ITI","","html-keyboard-response","367","421758","0.0-1.0-495.0","0","0","44586","","null","","","null","54","","","","","","","","","","","","","","","NaN",""
"","S1","","html-keyboard-response","368","422010","0.0-1.0-497.0","0","0","44586","","null","","","null","55","","","","","","","","","","","","","","","",""
"","ISI","","html-keyboard-response","369","423011","0.0-1.0-498.0","0","0","44586","","null","","","null","55","NaN","","","","","","","","","","","","","","",""
"","S2","","html-keyboard-response","370","423263","0.0-1.0-499.0","0","0","44586","","null","","","null","55","","NaN","","","","","","","","","","","","","",""
"","response","","html-keyboard-response","371","423913","0.0-1.0-500.0-0.0","0","0","44586","","648","","","75","55","","","2","55","training","adjacent","FE","6","5","R.jpg","O.jpg","0","0","1","",""
"","feedback","","html-keyboard-response","372","424927","0.0-1.0-501.0-0.0","0","0","44586","","null","","","null","55","","","","","","","","","","","","","","","",""
"","ITI","","html-keyboard-response","373","425929","0.0-1.0-504.0","0","0","44586","","null","","","null","55","","","","","","","","","","","","","","","NaN",""
"","S1","","html-keyboard-response","374","426181","0.0-1.0-506.0","0","0","44586","","null","","","null","56","","","","","","","","","","","","","","","",""
"","ISI","","html-keyboard-response","375","427183","0.0-1.0-507.0","0","0","44586","","null","","","null","56","NaN","","","","","","","","","","","","","","",""
"","S2","","html-keyboard-response","376","427435","0.0-1.0-508.0","0","0","44586","","null","","","null","56","","NaN","","","","","","","","","","","","","",""
"","response","","html-keyboard-response","377","427735","0.0-1.0-509.0-0.0","0","0","44586","","299","","","68","56","","","2","56","training","adjacent","EF","5","6","O.jpg","R.jpg","1","1","1","",""
"","feedback","","html-keyboard-response","378","428737","0.0-1.0-510.0-0.0","0","0","44586","","null","","","null","56","","","","","","","","","","","","","","","",""
"","ITI","","html-keyboard-response","379","429740","0.0-1.0-513.0","0","0","44586","","null","","","null","56","","","","","","","","","","","","","","","NaN",""
"","S1","","html-keyboard-response","380","429992","0.0-1.0-515.0","0","0","44586","","null","","","null","57","","","","","","","","","","","","","","","",""
"","ISI","","html-keyboard-response","381","431000","0.0-1.0-516.0","0","0","44586","","null","","","null","57","NaN","","","","","","","","","","","","","","",""
"","S2","","html-keyboard-response","382","431252","0.0-1.0-517.0","0","0","44586","","null","","","null","57","","NaN","","","","","","","","","","","","","",""
"","response","","html-keyboard-response","383","432131","0.0-1.0-518.0-0.0","0","0","44586","","877","","","75","57","","","2","57","training","adjacent","AB","1","2","L.jpg","P.jpg","0","1","0","",""
"","feedback","","html-keyboard-response","384","433133","0.0-1.0-519.0-0.0","0","0","44586","","null","","","null","57","","","","","","","","","","","","","","","",""
"","time_out","","html-keyboard-response","385","435135","0.0-1.0-521.0-0.0","0","0","44586","","null","","","null","57","","","","","","","","","","","","","","","",""
"","ITI","","html-keyboard-response","386","436137","0.0-1.0-522.0","0","0","44586","","null","","","null","57","","","","","","","","","","","","","","","NaN",""
"","S1","","html-keyboard-response","387","436388","0.0-1.0-524.0","0","0","44586","","null","","","null","58","","","","","","","","","","","","","","","",""
"","ISI","","html-keyboard-response","388","437390","0.0-1.0-525.0","0","0","44586","","null","","","null","58","NaN","","","","","","","","","","","","","","",""
"","S2","","html-keyboard-response","389","437642","0.0-1.0-526.0","0","0","44586","","null","","","null","58","","NaN","","","","","","","","","","","","","",""
"","response","","html-keyboard-response","390","437934","0.0-1.0-527.0-0.0","0","0","44586","","290","","","68","58","","","2","58","training","adjacent","FG","6","7","R.jpg","Q.jpg","1","1","1","",""
"","feedback","","html-keyboard-response","391","438935","0.0-1.0-528.0-0.0","0","0","44586","","null","","","null","58","","","","","","","","","","","","","","","",""
"","ITI","","html-keyboard-response","392","439936","0.0-1.0-531.0","0","0","44586","","null","","","null","58","","","","","","","","","","","","","","","NaN",""
"","S1","","html-keyboard-response","393","440188","0.0-1.0-533.0","0","0","44586","","null","","","null","59","","","","","","","","","","","","","","","",""
"","ISI","","html-keyboard-response","394","441190","0.0-1.0-534.0","0","0","44586","","null","","","null","59","NaN","","","","","","","","","","","","","","",""
"","S2","","html-keyboard-response","395","441442","0.0-1.0-535.0","0","0","44586","","null","","","null","59","","NaN","","","","","","","","","","","","","",""
"","response","","html-keyboard-response","396","442101","0.0-1.0-536.0-0.0","0","0","44586","","657","","","75","59","","","2","59","training","adjacent","CB","3","2","N.jpg","P.jpg","0","0","1","",""
"","feedback","","html-keyboard-response","397","443102","0.0-1.0-537.0-0.0","0","0","44586","","null","","","null","59","","","","","","","","","","","","","","","",""
"","ITI","","html-keyboard-response","398","444107","0.0-1.0-540.0","0","0","44586","","null","","","null","59","","","","","","","","","","","","","","","NaN",""
"","S1","","html-keyboard-response","399","444359","0.0-1.0-542.0","0","0","44586","","null","","","null","60","","","","","","","","","","","","","","","",""
"","ISI","","html-keyboard-response","400","445361","0.0-1.0-543.0","0","0","44586","","null","","","null","60","NaN","","","","","","","","","","","","","","",""
"","S2","","html-keyboard-response","401","445613","0.0-1.0-544.0","0","0","44586","","null","","","null","60","","NaN","","","","","","","","","","","","","",""
"","response","","html-keyboard-response","402","446288","0.0-1.0-545.0-0.0","0","0","44586","","674","","","75","60","","","2","60","training","adjacent","FE","6","5","R.jpg","O.jpg","0","0","1","",""
"","feedback","","html-keyboard-response","403","447290","0.0-1.0-546.0-0.0","0","0","44586","","null","","","null","60","","","","","","","","","","","","","","","",""
"","ITI","","html-keyboard-response","404","448292","0.0-1.0-549.0","0","0","44586","","null","","","null","60","","","","","","","","","","","","","","","NaN",""
"","S1","","html-keyboard-response","405","448545","0.0-1.0-551.0","0","0","44586","","null","","","null","61","","","","","","","","","","","","","","","",""
"","ISI","","html-keyboard-response","406","449547","0.0-1.0-552.0","0","0","44586","","null","","","null","61","NaN","","","","","","","","","","","","","","",""
"","S2","","html-keyboard-response","407","449811","0.0-1.0-553.0","0","0","44586","","null","","","null","61","","NaN","","","","","","","","","","","","","",""
"","response","","html-keyboard-response","408","450128","0.0-1.0-554.0-0.0","0","0","44586","","315","","","68","61","","","2","61","training","adjacent","BC","2","3","P.jpg","N.jpg","1","1","1","",""
"","feedback","","html-keyboard-response","409","451130","0.0-1.0-555.0-0.0","0","0","44586","","null","","","null","61","","","","","","","","","","","","","","","",""
"","ITI","","html-keyboard-response","410","452132","0.0-1.0-558.0","0","0","44586","","null","","","null","61","","","","","","","","","","","","","","","NaN",""
"","S1","","html-keyboard-response","411","452383","0.0-1.0-560.0","0","0","44586","","null","","","null","62","","","","","","","","","","","","","","","",""
"","ISI","","html-keyboard-response","412","453394","0.0-1.0-561.0","0","0","44586","","null","","","null","62","NaN","","","","","","","","","","","","","","",""
"","S2","","html-keyboard-response","413","453646","0.0-1.0-562.0","0","0","44586","","null","","","null","62","","NaN","","","","","","","","","","","","","",""
"","response","","html-keyboard-response","414","454208","0.0-1.0-563.0-0.0","0","0","44586","","560","","","75","62","","","2","62","training","adjacent","CB","3","2","N.jpg","P.jpg","0","0","1","",""
"","feedback","","html-keyboard-response","415","455210","0.0-1.0-564.0-0.0","0","0","44586","","null","","","null","62","","","","","","","","","","","","","","","",""
"","ITI","","html-keyboard-response","416","456211","0.0-1.0-567.0","0","0","44586","","null","","","null","62","","","","","","","","","","","","","","","NaN",""
"","S1","","html-keyboard-response","417","456464","0.0-1.0-569.0","0","0","44586","","null","","","null","63","","","","","","","","","","","","","","","",""
"","ISI","","html-keyboard-response","418","457466","0.0-1.0-570.0","0","0","44586","","null","","","null","63","NaN","","","","","","","","","","","","","","",""
"","S2","","html-keyboard-response","419","457719","0.0-1.0-571.0","0","0","44586","","null","","","null","63","","NaN","","","","","","","","","","","","","",""
"","response","","html-keyboard-response","420","459001","0.0-1.0-572.0-0.0","0","0","44586","","1281","","","68","63","","","2","63","training","adjacent","DC","4","3","M.jpg","N.jpg","1","0","0","",""
"","feedback","","html-keyboard-response","421","460003","0.0-1.0-573.0-0.0","0","0","44586","","null","","","null","63","","","","","","","","","","","","","","","",""
"","time_out","","html-keyboard-response","422","462005","0.0-1.0-575.0-0.0","0","0","44586","","null","","","null","63","","","","","","","","","","","","","","","",""
"","ITI","","html-keyboard-response","423","463006","0.0-1.0-576.0","0","0","44586","","null","","","null","63","","","","","","","","","","","","","","","NaN",""
"","S1","","html-keyboard-response","424","463258","0.0-1.0-578.0","0","0","44586","","null","","","null","64","","","","","","","","","","","","","","","",""
"","ISI","","html-keyboard-response","425","464259","0.0-1.0-579.0","0","0","44586","","null","","","null","64","NaN","","","","","","","","","","","","","","",""
"","S2","","html-keyboard-response","426","464511","0.0-1.0-580.0","0","0","44586","","null","","","null","64","","NaN","","","","","","","","","","","","","",""
"","response","","html-keyboard-response","427","464795","0.0-1.0-581.0-0.0","0","0","44586","","282","","","68","64","","","2","64","training","adjacent","ED","5","4","O.jpg","M.jpg","1","0","0","",""
"","feedback","","html-keyboard-response","428","465796","0.0-1.0-582.0-0.0","0","0","44586","","null","","","null","64","","","","","","","","","","","","","","","",""
"","time_out","","html-keyboard-response","429","467799","0.0-1.0-584.0-0.0","0","0","44586","","null","","","null","64","","","","","","","","","","","","","","","",""
"","ITI","","html-keyboard-response","430","468801","0.0-1.0-585.0","0","0","44586","","null","","","null","64","","","","","","","","","","","","","","","NaN",""
"","S1","","html-keyboard-response","431","469054","0.0-1.0-587.0","0","0","44586","","null","","","null","65","","","","","","","","","","","","","","","",""
"","ISI","","html-keyboard-response","432","470056","0.0-1.0-588.0","0","0","44586","","null","","","null","65","NaN","","","","","","","","","","","","","","",""
"","S2","","html-keyboard-response","433","470307","0.0-1.0-589.0","0","0","44586","","null","","","null","65","","NaN","","","","","","","","","","","","","",""
"","response","","html-keyboard-response","434","470858","0.0-1.0-590.0-0.0","0","0","44586","","549","","","75","65","","","2","65","training","adjacent","DE","4","5","M.jpg","O.jpg","0","1","0","",""
"","feedback","","html-keyboard-response","435","471860","0.0-1.0-591.0-0.0","0","0","44586","","null","","","null","65","","","","","","","","","","","","","","","",""
"","time_out","","html-keyboard-response","436","473861","0.0-1.0-593.0-0.0","0","0","44586","","null","","","null","65","","","","","","","","","","","","","","","",""
"","ITI","","html-keyboard-response","437","474863","0.0-1.0-594.0","0","0","44586","","null","","","null","65","","","","","","","","","","","","","","","NaN",""
"","S1","","html-keyboard-response","438","475115","0.0-1.0-596.0","0","0","44586","","null","","","null","66","","","","","","","","","","","","","","","",""
"","ISI","","html-keyboard-response","439","476117","0.0-1.0-597.0","0","0","44586","","null","","","null","66","NaN","","","","","","","","","","","","","","",""
"","S2","","html-keyboard-response","440","476370","0.0-1.0-598.0","0","0","44586","","null","","","null","66","","NaN","","","","","","","","","","","","","",""
"","response","","html-keyboard-response","441","477213","0.0-1.0-599.0-0.0","0","0","44586","","841","","","75","66","","","2","66","training","adjacent","AB","1","2","L.jpg","P.jpg","0","1","0","",""
"","feedback","","html-keyboard-response","442","478215","0.0-1.0-600.0-0.0","0","0","44586","","null","","","null","66","","","","","","","","","","","","","","","",""
"","time_out","","html-keyboard-response","443","480217","0.0-1.0-602.0-0.0","0","0","44586","","null","","","null","66","","","","","","","","","","","","","","","",""
"","ITI","","html-keyboard-response","444","481220","0.0-1.0-603.0","0","0","44586","","null","","","null","66","","","","","","","","","","","","","","","NaN",""
"","S1","","html-keyboard-response","445","481472","0.0-1.0-605.0","0","0","44586","","null","","","null","67","","","","","","","","","","","","","","","",""
"","ISI","","html-keyboard-response","446","482473","0.0-1.0-606.0","0","0","44586","","null","","","null","67","NaN","","","","","","","","","","","","","","",""
"","S2","","html-keyboard-response","447","482725","0.0-1.0-607.0","0","0","44586","","null","","","null","67","","NaN","","","","","","","","","","","","","",""
"","response","","html-keyboard-response","448","483601","0.0-1.0-608.0-0.0","0","0","44586","","874","","","75","67","","","2","67","training","adjacent","CD","3","4","N.jpg","M.jpg","0","1","0","",""
"","feedback","","html-keyboard-response","449","484603","0.0-1.0-609.0-0.0","0","0","44586","","null","","","null","67","","","","","","","","","","","","","","","",""
"","time_out","","html-keyboard-response","450","486604","0.0-1.0-611.0-0.0","0","0","44586","","null","","","null","67","","","","","","","","","","","","","","","",""
"","ITI","","html-keyboard-response","451","487605","0.0-1.0-612.0","0","0","44586","","null","","","null","67","","","","","","","","","","","","","","","NaN",""
"","S1","","html-keyboard-response","452","487857","0.0-1.0-614.0","0","0","44586","","null","","","null","68","","","","","","","","","","","","","","","",""
"","ISI","","html-keyboard-response","453","488859","0.0-1.0-615.0","0","0","44586","","null","","","null","68","NaN","","","","","","","","","","","","","","",""
"","S2","","html-keyboard-response","454","489111","0.0-1.0-616.0","0","0","44586","","null","","","null","68","","NaN","","","","","","","","","","","","","",""
"","response","","html-keyboard-response","455","489913","0.0-1.0-617.0-0.0","0","0","44586","","800","","","75","68","","","2","68","training","adjacent","GF","7","6","Q.jpg","R.jpg","0","0","1","",""
"","feedback","","html-keyboard-response","456","490929","0.0-1.0-618.0-0.0","0","0","44586","","null","","","null","68","","","","","","","","","","","","","","","",""
"","ITI","","html-keyboard-response","457","491931","0.0-1.0-621.0","0","0","44586","","null","","","null","68","","","","","","","","","","","","","","","NaN",""
"","S1","","html-keyboard-response","458","492183","0.0-1.0-623.0","0","0","44586","","null","","","null","69","","","","","","","","","","","","","","","",""
"","ISI","","html-keyboard-response","459","493185","0.0-1.0-624.0","0","0","44586","","null","","","null","69","NaN","","","","","","","","","","","","","","",""
"","S2","","html-keyboard-response","460","493438","0.0-1.0-625.0","0","0","44586","","null","","","null","69","","NaN","","","","","","","","","","","","","",""
"","response","","html-keyboard-response","461","493975","0.0-1.0-626.0-0.0","0","0","44586","","536","","","75","69","","","2","69","training","adjacent","CB","3","2","N.jpg","P.jpg","0","0","1","",""
"","feedback","","html-keyboard-response","462","494976","0.0-1.0-627.0-0.0","0","0","44586","","null","","","null","69","","","","","","","","","","","","","","","",""
"","ITI","","html-keyboard-response","463","495979","0.0-1.0-630.0","0","0","44586","","null","","","null","69","","","","","","","","","","","","","","","NaN",""
"","S1","","html-keyboard-response","464","496235","0.0-1.0-632.0","0","0","44586","","null","","","null","70","","","","","","","","","","","","","","","",""
"","ISI","","html-keyboard-response","465","497237","0.0-1.0-633.0","0","0","44586","","null","","","null","70","NaN","","","","","","","","","","","","","","",""
"","S2","","html-keyboard-response","466","497490","0.0-1.0-634.0","0","0","44586","","null","","","null","70","","NaN","","","","","","","","","","","","","",""
"","response","","html-keyboard-response","467","497708","0.0-1.0-635.0-0.0","0","0","44586","","216","","","68","70","","","2","70","training","adjacent","BC","2","3","P.jpg","N.jpg","1","1","1","",""
"","feedback","","html-keyboard-response","468","498710","0.0-1.0-636.0-0.0","0","0","44586","","null","","","null","70","","","","","","","","","","","","","","","",""
"","ITI","","html-keyboard-response","469","499712","0.0-1.0-639.0","0","0","44586","","null","","","null","70","","","","","","","","","","","","","","","NaN",""
"","S1","","html-keyboard-response","470","499963","0.0-1.0-641.0","0","0","44586","","null","","","null","71","","","","","","","","","","","","","","","",""
"","ISI","","html-keyboard-response","471","500966","0.0-1.0-642.0","0","0","44586","","null","","","null","71","NaN","","","","","","","","","","","","","","",""
"","S2","","html-keyboard-response","472","501217","0.0-1.0-643.0","0","0","44586","","null","","","null","71","","NaN","","","","","","","","","","","","","",""
"","response","","html-keyboard-response","473","501950","0.0-1.0-644.0-0.0","0","0","44586","","731","","","68","71","","","2","71","training","adjacent","EF","5","6","O.jpg","R.jpg","1","1","1","",""
"","feedback","","html-keyboard-response","474","502951","0.0-1.0-645.0-0.0","0","0","44586","","null","","","null","71","","","","","","","","","","","","","","","",""
"","ITI","","html-keyboard-response","475","503953","0.0-1.0-648.0","0","0","44586","","null","","","null","71","","","","","","","","","","","","","","","NaN",""
"","S1","","html-keyboard-response","476","504204","0.0-1.0-650.0","0","0","44586","","null","","","null","72","","","","","","","","","","","","","","","",""
"","ISI","","html-keyboard-response","477","505206","0.0-1.0-651.0","0","0","44586","","null","","","null","72","NaN","","","","","","","","","","","","","","",""
"","S2","","html-keyboard-response","478","505458","0.0-1.0-652.0","0","0","44586","","null","","","null","72","","NaN","","","","","","","","","","","","","",""
"","response","","html-keyboard-response","479","506045","0.0-1.0-653.0-0.0","0","0","44586","","585","","","68","72","","","2","72","training","adjacent","DC","4","3","M.jpg","N.jpg","1","0","0","",""
"","feedback","","html-keyboard-response","480","507046","0.0-1.0-654.0-0.0","0","0","44586","","null","","","null","72","","","","","","","","","","","","","","","",""
"","time_out","","html-keyboard-response","481","509048","0.0-1.0-656.0-0.0","0","0","44586","","null","","","null","72","","","","","","","","","","","","","","","",""
"","ITI","","html-keyboard-response","482","510050","0.0-1.0-657.0","0","0","44586","","null","","","null","72","","","","","","","","","","","","","","","NaN",""
"","S1","","html-keyboard-response","483","510302","0.0-1.0-659.0","0","0","44586","","null","","","null","73","","","","","","","","","","","","","","","",""
"","ISI","","html-keyboard-response","484","511304","0.0-1.0-660.0","0","0","44586","","null","","","null","73","NaN","","","","","","","","","","","","","","",""
"","S2","","html-keyboard-response","485","511555","0.0-1.0-661.0","0","0","44586","","null","","","null","73","","NaN","","","","","","","","","","","","","",""
"","response","","html-keyboard-response","486","512088","0.0-1.0-662.0-0.0","0","0","44586","","531","","","68","73","","","2","73","training","adjacent","DC","4","3","M.jpg","N.jpg","1","0","0","",""
"","feedback","","html-keyboard-response","487","513090","0.0-1.0-663.0-0.0","0","0","44586","","null","","","null","73","","","","","","","","","","","","","","","",""
"","time_out","","html-keyboard-response","488","515092","0.0-1.0-665.0-0.0","0","0","44586","","null","","","null","73","","","","","","","","","","","","","","","",""
"","ITI","","html-keyboard-response","489","516094","0.0-1.0-666.0","0","0","44586","","null","","","null","73","","","","","","","","","","","","","","","NaN",""
"","S1","","html-keyboard-response","490","516347","0.0-1.0-668.0","0","0","44586","","null","","","null","74","","","","","","","","","","","","","","","",""
"","ISI","","html-keyboard-response","491","517348","0.0-1.0-669.0","0","0","44586","","null","","","null","74","NaN","","","","","","","","","","","","","","",""
"","S2","","html-keyboard-response","492","517601","0.0-1.0-670.0","0","0","44586","","null","","","null","74","","NaN","","","","","","","","","","","","","",""
"","response","","html-keyboard-response","493","518055","0.0-1.0-671.0-0.0","0","0","44586","","452","","","75","74","","","2","74","training","adjacent","CB","3","2","N.jpg","P.jpg","0","0","1","",""
"","feedback","","html-keyboard-response","494","519067","0.0-1.0-672.0-0.0","0","0","44586","","null","","","null","74","","","","","","","","","","","","","","","",""
"","ITI","","html-keyboard-response","495","520071","0.0-1.0-675.0","0","0","44586","","null","","","null","74","","","","","","","","","","","","","","","NaN",""
"","S1","","html-keyboard-response","496","520323","0.0-1.0-677.0","0","0","44586","","null","","","null","75","","","","","","","","","","","","","","","",""
"","ISI","","html-keyboard-response","497","521325","0.0-1.0-678.0","0","0","44586","","null","","","null","75","NaN","","","","","","","","","","","","","","",""
"","S2","","html-keyboard-response","498","521576","0.0-1.0-679.0","0","0","44586","","null","","","null","75","","NaN","","","","","","","","","","","","","",""
"","response","","html-keyboard-response","499","522056","0.0-1.0-680.0-0.0","0","0","44586","","478","","","75","75","","","2","75","training","adjacent","FE","6","5","R.jpg","O.jpg","0","0","1","",""
"","feedback","","html-keyboard-response","500","523058","0.0-1.0-681.0-0.0","0","0","44586","","null","","","null","75","","","","","","","","","","","","","","","",""
"","ITI","","html-keyboard-response","501","524059","0.0-1.0-684.0","0","0","44586","","null","","","null","75","","","","","","","","","","","","","","","NaN",""
"","S1","","html-keyboard-response","502","524312","0.0-1.0-686.0","0","0","44586","","null","","","null","76","","","","","","","","","","","","","","","",""
"","ISI","","html-keyboard-response","503","525312","0.0-1.0-687.0","0","0","44586","","null","","","null","76","NaN","","","","","","","","","","","","","","",""
"","S2","","html-keyboard-response","504","525564","0.0-1.0-688.0","0","0","44586","","null","","","null","76","","NaN","","","","","","","","","","","","","",""
"","response","","html-keyboard-response","505","526086","0.0-1.0-689.0-0.0","0","0","44586","","520","","","75","76","","","2","76","training","adjacent","DE","4","5","M.jpg","O.jpg","0","1","0","",""
"","feedback","","html-keyboard-response","506","527087","0.0-1.0-690.0-0.0","0","0","44586","","null","","","null","76","","","","","","","","","","","","","","","",""
"","time_out","","html-keyboard-response","507","529089","0.0-1.0-692.0-0.0","0","0","44586","","null","","","null","76","","","","","","","","","","","","","","","",""
"","ITI","","html-keyboard-response","508","530091","0.0-1.0-693.0","0","0","44586","","null","","","null","76","","","","","","","","","","","","","","","NaN",""
"","S1","","html-keyboard-response","509","530357","0.0-1.0-695.0","0","0","44586","","null","","","null","77","","","","","","","","","","","","","","","",""
"","ISI","","html-keyboard-response","510","531359","0.0-1.0-696.0","0","0","44586","","null","","","null","77","NaN","","","","","","","","","","","","","","",""
"","S2","","html-keyboard-response","511","531612","0.0-1.0-697.0","0","0","44586","","null","","","null","77","","NaN","","","","","","","","","","","","","",""
"","response","","html-keyboard-response","512","531912","0.0-1.0-698.0-0.0","0","0","44586","","299","","","68","77","","","2","77","training","adjacent","FG","6","7","R.jpg","Q.jpg","1","1","1","",""
"","feedback","","html-keyboard-response","513","532914","0.0-1.0-699.0-0.0","0","0","44586","","null","","","null","77","","","","","","","","","","","","","","","",""
"","ITI","","html-keyboard-response","514","533916","0.0-1.0-702.0","0","0","44586","","null","","","null","77","","","","","","","","","","","","","","","NaN",""
"","S1","","html-keyboard-response","515","534169","0.0-1.0-704.0","0","0","44586","","null","","","null","78","","","","","","","","","","","","","","","",""
"","ISI","","html-keyboard-response","516","535170","0.0-1.0-705.0","0","0","44586","","null","","","null","78","NaN","","","","","","","","","","","","","","",""
"","S2","","html-keyboard-response","517","535423","0.0-1.0-706.0","0","0","44586","","null","","","null","78","","NaN","","","","","","","","","","","","","",""
"","response","","html-keyboard-response","518","535567","0.0-1.0-707.0-0.0","0","0","44586","","143","","","75","78","","","2","78","training","adjacent","GF","7","6","Q.jpg","R.jpg","0","0","1","",""
"","feedback","","html-keyboard-response","519","536569","0.0-1.0-708.0-0.0","0","0","44586","","null","","","null","78","","","","","","","","","","","","","","","",""
"","ITI","","html-keyboard-response","520","537572","0.0-1.0-711.0","0","0","44586","","null","","","null","78","","","","","","","","","","","","","","","NaN",""
"","S1","","html-keyboard-response","521","537824","0.0-1.0-713.0","0","0","44586","","null","","","null","79","","","","","","","","","","","","","","","",""
"","ISI","","html-keyboard-response","522","538827","0.0-1.0-714.0","0","0","44586","","null","","","null","79","NaN","","","","","","","","","","","","","","",""
"","S2","","html-keyboard-response","523","539079","0.0-1.0-715.0","0","0","44586","","null","","","null","79","","NaN","","","","","","","","","","","","","",""
"","response","","html-keyboard-response","524","539430","0.0-1.0-716.0-0.0","0","0","44586","","349","","","68","79","","","2","79","training","adjacent","EF","5","6","O.jpg","R.jpg","1","1","1","",""
"","feedback","","html-keyboard-response","525","540433","0.0-1.0-717.0-0.0","0","0","44586","","null","","","null","79","","","","","","","","","","","","","","","",""
"","ITI","","html-keyboard-response","526","541435","0.0-1.0-720.0","0","0","44586","","null","","","null","79","","","","","","","","","","","","","","","NaN",""
"","S1","","html-keyboard-response","527","541687","0.0-1.0-722.0","0","0","44586","","null","","","null","80","","","","","","","","","","","","","","","",""
"","ISI","","html-keyboard-response","528","542690","0.0-1.0-723.0","0","0","44586","","null","","","null","80","NaN","","","","","","","","","","","","","","",""
"","S2","","html-keyboard-response","529","542943","0.0-1.0-724.0","0","0","44586","","null","","","null","80","","NaN","","","","","","","","","","","","","",""
"","response","","html-keyboard-response","530","543806","0.0-1.0-725.0-0.0","0","0","44586","","862","","","75","80","","","2","80","training","adjacent","CD","3","4","N.jpg","M.jpg","0","1","0","",""
"","feedback","","html-keyboard-response","531","544807","0.0-1.0-726.0-0.0","0","0","44586","","null","","","null","80","","","","","","","","","","","","","","","",""
"","time_out","","html-keyboard-response","532","546809","0.0-1.0-728.0-0.0","0","0","44586","","null","","","null","80","","","","","","","","","","","","","","","",""
"","ITI","","html-keyboard-response","533","547810","0.0-1.0-729.0","0","0","44586","","null","","","null","80","","","","","","","","","","","","","","","NaN",""
"","S1","","html-keyboard-response","534","548062","0.0-1.0-731.0","0","0","44586","","null","","","null","81","","","","","","","","","","","","","","","",""
"","ISI","","html-keyboard-response","535","549064","0.0-1.0-732.0","0","0","44586","","null","","","null","81","NaN","","","","","","","","","","","","","","",""
"","S2","","html-keyboard-response","536","549316","0.0-1.0-733.0","0","0","44586","","null","","","null","81","","NaN","","","","","","","","","","","","","",""
"","response","","html-keyboard-response","537","549911","0.0-1.0-734.0-0.0","0","0","44586","","594","","","68","81","","","2","81","training","adjacent","CD","3","4","N.jpg","M.jpg","1","1","1","",""
"","feedback","","html-keyboard-response","538","550913","0.0-1.0-735.0-0.0","0","0","44586","","null","","","null","81","","","","","","","","","","","","","","","",""
"","ITI","","html-keyboard-response","539","551916","0.0-1.0-738.0","0","0","44586","","null","","","null","81","","","","","","","","","","","","","","","NaN",""
"","S1","","html-keyboard-response","540","552168","0.0-1.0-740.0","0","0","44586","","null","","","null","82","","","","","","","","","","","","","","","",""
"","ISI","","html-keyboard-response","541","553169","0.0-1.0-741.0","0","0","44586","","null","","","null","82","NaN","","","","","","","","","","","","","","",""
"","S2","","html-keyboard-response","542","553422","0.0-1.0-742.0","0","0","44586","","null","","","null","82","","NaN","","","","","","","","","","","","","",""
"","response","","html-keyboard-response","543","553854","0.0-1.0-743.0-0.0","0","0","44586","","431","","","68","82","","","2","82","training","adjacent","BC","2","3","P.jpg","N.jpg","1","1","1","",""
"","feedback","","html-keyboard-response","544","554856","0.0-1.0-744.0-0.0","0","0","44586","","null","","","null","82","","","","","","","","","","","","","","","",""
"","ITI","","html-keyboard-response","545","555858","0.0-1.0-747.0","0","0","44586","","null","","","null","82","","","","","","","","","","","","","","","NaN",""
"","S1","","html-keyboard-response","546","556110","0.0-1.0-749.0","0","0","44586","","null","","","null","83","","","","","","","","","","","","","","","",""
"","ISI","","html-keyboard-response","547","557111","0.0-1.0-750.0","0","0","44586","","null","","","null","83","NaN","","","","","","","","","","","","","","",""
"","S2","","html-keyboard-response","548","557364","0.0-1.0-751.0","0","0","44586","","null","","","null","83","","NaN","","","","","","","","","","","","","",""
"","response","","html-keyboard-response","549","558019","0.0-1.0-752.0-0.0","0","0","44586","","653","","","75","83","","","2","83","training","adjacent","AB","1","2","L.jpg","P.jpg","0","1","0","",""
"","feedback","","html-keyboard-response","550","559021","0.0-1.0-753.0-0.0","0","0","44586","","null","","","null","83","","","","","","","","","","","","","","","",""
"","time_out","","html-keyboard-response","551","561023","0.0-1.0-755.0-0.0","0","0","44586","","null","","","null","83","","","","","","","","","","","","","","","",""
"","ITI","","html-keyboard-response","552","562025","0.0-1.0-756.0","0","0","44586","","null","","","null","83","","","","","","","","","","","","","","","NaN",""
"","S1","","html-keyboard-response","553","562277","0.0-1.0-758.0","0","0","44586","","null","","","null","84","","","","","","","","","","","","","","","",""
"","ISI","","html-keyboard-response","554","563279","0.0-1.0-759.0","0","0","44586","","null","","","null","84","NaN","","","","","","","","","","","","","","",""
"","S2","","html-keyboard-response","555","563530","0.0-1.0-760.0","0","0","44586","","null","","","null","84","","NaN","","","","","","","","","","","","","",""
"","response","","html-keyboard-response","556","564849","0.0-1.0-761.0-0.0","0","0","44586","","1318","","","75","84","","","2","84","training","adjacent","BA","2","1","P.jpg","L.jpg","0","0","1","",""
"","feedback","","html-keyboard-response","557","565852","0.0-1.0-762.0-0.0","0","0","44586","","null","","","null","84","","","","","","","","","","","","","","","",""
"","ITI","","html-keyboard-response","558","566854","0.0-1.0-765.0","0","0","44586","","null","","","null","84","","","","","","","","","","","","","","","NaN",""
"","S1","","html-keyboard-response","559","567105","0.0-1.0-767.0","0","0","44586","","null","","","null","85","","","","","","","","","","","","","","","",""
"","ISI","","html-keyboard-response","560","568106","0.0-1.0-768.0","0","0","44586","","null","","","null","85","NaN","","","","","","","","","","","","","","",""
"","S2","","html-keyboard-response","561","568365","0.0-1.0-769.0","0","0","44586","","null","","","null","85","","NaN","","","","","","","","","","","","","",""
"","response","","html-keyboard-response","562","568757","0.0-1.0-770.0-0.0","0","0","44586","","390","","","75","85","","","2","85","training","adjacent","GF","7","6","Q.jpg","R.jpg","0","0","1","",""
"","feedback","","html-keyboard-response","563","569758","0.0-1.0-771.0-0.0","0","0","44586","","null","","","null","85","","","","","","","","","","","","","","","",""
"","ITI","","html-keyboard-response","564","570760","0.0-1.0-774.0","0","0","44586","","null","","","null","85","","","","","","","","","","","","","","","NaN",""
"","S1","","html-keyboard-response","565","571011","0.0-1.0-776.0","0","0","44586","","null","","","null","86","","","","","","","","","","","","","","","",""
"","ISI","","html-keyboard-response","566","572014","0.0-1.0-777.0","0","0","44586","","null","","","null","86","NaN","","","","","","","","","","","","","","",""
"","S2","","html-keyboard-response","567","572266","0.0-1.0-778.0","0","0","44586","","null","","","null","86","","NaN","","","","","","","","","","","","","",""
"","response","","html-keyboard-response","568","573299","0.0-1.0-779.0-0.0","0","0","44586","","1032","","","68","86","","","2","86","training","adjacent","ED","5","4","O.jpg","M.jpg","1","0","0","",""
"","feedback","","html-keyboard-response","569","574301","0.0-1.0-780.0-0.0","0","0","44586","","null","","","null","86","","","","","","","","","","","","","","","",""
"","time_out","","html-keyboard-response","570","576303","0.0-1.0-782.0-0.0","0","0","44586","","null","","","null","86","","","","","","","","","","","","","","","",""
"","ITI","","html-keyboard-response","571","577304","0.0-1.0-783.0","0","0","44586","","null","","","null","86","","","","","","","","","","","","","","","NaN",""
"","S1","","html-keyboard-response","572","577557","0.0-1.0-785.0","0","0","44586","","null","","","null","87","","","","","","","","","","","","","","","",""
"","ISI","","html-keyboard-response","573","578558","0.0-1.0-786.0","0","0","44586","","null","","","null","87","NaN","","","","","","","","","","","","","","",""
"","S2","","html-keyboard-response","574","578809","0.0-1.0-787.0","0","0","44586","","null","","","null","87","","NaN","","","","","","","","","","","","","",""
"","response","","html-keyboard-response","575","579660","0.0-1.0-788.0-0.0","0","0","44586","","849","","","75","87","","","2","87","training","adjacent","GF","7","6","Q.jpg","R.jpg","0","0","1","",""
"","feedback","","html-keyboard-response","576","580662","0.0-1.0-789.0-0.0","0","0","44586","","null","","","null","87","","","","","","","","","","","","","","","",""
"","ITI","","html-keyboard-response","577","581664","0.0-1.0-792.0","0","0","44586","","null","","","null","87","","","","","","","","","","","","","","","NaN",""
"","S1","","html-keyboard-response","578","581921","0.0-1.0-794.0","0","0","44586","","null","","","null","88","","","","","","","","","","","","","","","",""
"","ISI","","html-keyboard-response","579","582927","0.0-1.0-795.0","0","0","44586","","null","","","null","88","NaN","","","","","","","","","","","","","","",""
"","S2","","html-keyboard-response","580","583179","0.0-1.0-796.0","0","0","44586","","null","","","null","88","","NaN","","","","","","","","","","","","","",""
