"success","ttype","start_time","trial_type","trial_index","time_elapsed","internal_node_id","warning","missed_checkup","PID","view_history","rt","responses","repeat_instructions","key_press","index","keypress_isi","keypress_S2","block","trial_num","phase","group_type","pair_type","S1_stim","S2_stim","S1_img","S2_img","S1_chosen","S1_higher","accuracy","keypress_iti","total_bonus_tally"
"true","full_screen","d03032023hr2011","fullscreen","0","5133","0.0-0.0","0","0","81438","","","","","","","","","","","","","","","","","","","","","",""
"","instructions","","instructions","1","21202","0.0-1.0-0.0-0.0","0","0","81438","[{""page_index"":0,""viewing_time"":8126},{""page_index"":1,""viewing_time"":3379},{""page_index"":2,""viewing_time"":3019},{""page_index"":3,""viewing_time"":1540}]","16065","","","","","","","","","","","","","","","","","","","",""
"","comprehension_check","","survey-multi-choice","2","36298","0.0-1.0-0.0-1.0","0","0","81438","","15090","{""Q0"":""True"",""Q1"":""D"",""Q2"":""Only while the second image is shown"",""Q3"":""Green mark"",""Q4"":""either D or K""}","1","","","","","","","","","","","","","","","","","",""
"","missed_instruction_checkup","","html-keyboard-response","3","38022","0.0-1.0-0.0-2.0-0.0","0","1","81438","","1721","","","32","","","","","","","","","","","","","","","","",""
"","instructions","","instructions","4","44709","0.0-1.0-0.1-0.1","0","0","81438","[{""page_index"":0,""viewing_time"":2176},{""page_index"":1,""viewing_time"":1800},{""page_index"":2,""viewing_time"":1405},{""page_index"":3,""viewing_time"":1304}]","6685","","","","","","","","","","","","","","","","","","","",""
"","comprehension_check","","survey-multi-choice","5","57481","0.0-1.0-0.1-1.1","0","0","81438","","12769","{""Q0"":""True"",""Q1"":""D"",""Q2"":""Only while the second image is shown"",""Q3"":""Green mark"",""Q4"":""either D or K""}","1","","","","","","","","","","","","","","","","","",""
"","missed_instruction_checkup","","html-keyboard-response","6","58767","0.0-1.0-0.1-2.1-0.1","0","1","81438","","1284","","","32","","","","","","","","","","","","","","","","",""
"","instructions","","instructions","7","64771","0.0-1.0-0.2-0.2","0","0","81438","[{""page_index"":0,""viewing_time"":1668},{""page_index"":1,""viewing_time"":1402},{""page_index"":2,""viewing_time"":1802},{""page_index"":3,""viewing_time"":1131}]","6003","","","","","","","","","","","","","","","","","","","",""
"","comprehension_check","","survey-multi-choice","8","85945","0.0-1.0-0.2-1.2","0","0","81438","","21171","{""Q0"":""True"",""Q1"":""D"",""Q2"":""Only while the second image is shown"",""Q3"":""Green mark"",""Q4"":""either D or K""}","1","","","","","","","","","","","","","","","","","",""
"","missed_instruction_checkup","","html-keyboard-response","9","89082","0.0-1.0-0.2-2.2-0.2","0","1","81438","","3136","","","32","","","","","","","","","","","","","","","","",""
"","instructions","","instructions","10","95209","0.0-1.0-0.3-0.3","0","0","81438","[{""page_index"":0,""viewing_time"":2210},{""page_index"":1,""viewing_time"":1029},{""page_index"":2,""viewing_time"":1149},{""page_index"":3,""viewing_time"":1736}]","6124","","","","","","","","","","","","","","","","","","","",""
"","comprehension_check","","survey-multi-choice","11","114775","0.0-1.0-0.3-1.3","0","0","81438","","19563","{""Q0"":""True"",""Q1"":""K"",""Q2"":""Only when the screen 'MAKE A CHOICE' is shown"",""Q3"":""Red cross"",""Q4"":""Use a mouse""}","1","","","","","","","","","","","","","","","","","",""
"","missed_instruction_checkup","","html-keyboard-response","12","116027","0.0-1.0-0.3-2.3-0.3","0","1","81438","","1250","","","32","","","","","","","","","","","","","","","","",""
"","instructions","","instructions","13","125502","0.0-1.0-0.4-0.4","0","0","81438","[{""page_index"":0,""viewing_time"":2151},{""page_index"":1,""viewing_time"":3629},{""page_index"":2,""viewing_time"":2276},{""page_index"":3,""viewing_time"":1417}]","9473","","","","","","","","","","","","","","","","","","","",""
"","comprehension_check","","survey-multi-choice","14","139850","0.0-1.0-0.4-1.4","0","0","81438","","14343","{""Q0"":""False"",""Q1"":""K"",""Q2"":""Once the second image appears and while the screen 'MAKE A CHOICE' is shown"",""Q3"":""Red cross"",""Q4"":""Use a mouse""}","1","","","","","","","","","","","","","","","","","",""
"","missed_instruction_checkup","","html-keyboard-response","15","142144","0.0-1.0-0.4-2.4-0.4","0","1","81438","","2293","","","32","","","","","","","","","","","","","","","","",""
"","instructions","","instructions","16","149084","0.0-1.0-0.5-0.5","0","0","81438","[{""page_index"":0,""viewing_time"":2074},{""page_index"":1,""viewing_time"":1700},{""page_index"":2,""viewing_time"":1924},{""page_index"":3,""viewing_time"":1241}]","6940","","","","","","","","","","","","","","","","","","","",""
"","comprehension_check","","survey-multi-choice","17","173390","0.0-1.0-0.5-1.5","0","0","81438","","24302","{""Q0"":""False"",""Q1"":""K"",""Q2"":""Only when the screen 'MAKE A CHOICE' is shown"",""Q3"":""Green mark"",""Q4"":""either D or K""}","1","","","","","","","","","","","","","","","","","",""
"","missed_instruction_checkup","","html-keyboard-response","18","175138","0.0-1.0-0.5-2.5-0.5","0","1","81438","","1746","","","32","","","","","","","","","","","","","","","","",""
"","instructions","","instructions","19","183022","0.0-1.0-0.6-0.6","0","0","81438","[{""page_index"":0,""viewing_time"":4029},{""page_index"":1,""viewing_time"":1630},{""page_index"":2,""viewing_time"":1180},{""page_index"":3,""viewing_time"":1044}]","7883","","","","","","","","","","","","","","","","","","","",""
"","comprehension_check","","survey-multi-choice","20","215570","0.0-1.0-0.6-1.6","0","0","81438","","32543","{""Q0"":""True"",""Q1"":""D"",""Q2"":""Once the second image appears and while the screen 'MAKE A CHOICE' is shown"",""Q3"":""Green mark"",""Q4"":""either D or K""}","0","","","","","","","","","","","","","","","","","",""
"","start_exp","","html-keyboard-response","21","217503","0.0-1.0-1.0","0","0","81438","","1931","","","32","","","","","","","","","","","","","","","","",""
"","S1","","html-keyboard-response","22","217756","0.0-1.0-2.0","0","0","81438","","null","","","null","0","","","","","","","","","","","","","","","",""
"","ISI","","html-keyboard-response","23","218258","0.0-1.0-3.0","0","0","81438","","null","","","null","0","NaN","","","","","","","","","","","","","","",""
"","S2","","html-keyboard-response","24","218510","0.0-1.0-4.0","0","0","81438","","null","","","null","0","","NaN","","","","","","","","","","","","","",""
"","response","","html-keyboard-response","25","220294","0.0-1.0-5.0-0.0","0","0","81438","","null","","","null","0","","","1","0","training","adjacent","DC","4","3","N.jpg","Q.jpg","NaN","0","0","",""
"","too_slow_prompt","","html-keyboard-response","26","221296","0.0-1.0-7.0-0.0","1","0","81438","","null","","","null","","","","","","","","","","","","","","","","",""
"","time_out","","html-keyboard-response","27","223298","0.0-1.0-8.0-0.0","0","0","81438","","null","","","null","0","","","","","","","","","","","","","","","",""
"","ITI","","html-keyboard-response","28","224305","0.0-1.0-9.0","0","0","81438","","null","","","null","0","","","","","","","","","","","","","","","NaN",""
"","S1","","html-keyboard-response","29","224557","0.0-1.0-11.0","0","0","81438","","null","","","null","1","","","","","","","","","","","","","","","",""
"","ISI","","html-keyboard-response","30","225059","0.0-1.0-12.0","0","0","81438","","418","","","68","1","d","","","","","","","","","","","","","","",""
"","S2","","html-keyboard-response","31","225063","0.0-1.0-13.0","0","0","81438","","2","","","75","1","","k","1","1","training","adjacent","CD","3","4","Q.jpg","N.jpg","0","1","0","",""
"","feedback","","html-keyboard-response","32","226065","0.0-1.0-15.0-0.0","0","0","81438","","null","","","null","1","","","","","","","","","","","","","","","",""
"","time_out","","html-keyboard-response","33","228067","0.0-1.0-17.0-0.0","0","0","81438","","null","","","null","1","","","","","","","","","","","","","","","",""
"","ITI","","html-keyboard-response","34","229070","0.0-1.0-18.0","0","0","81438","","216","","","68","1","","","","","","","","","","","","","","","d",""
"","S1","","html-keyboard-response","35","229325","0.0-1.0-20.0","0","0","81438","","null","","","null","2","","","","","","","","","","","","","","","",""
"","ISI","","html-keyboard-response","36","229826","0.0-1.0-21.0","0","0","81438","","321","","","68","2","d","","","","","","","","","","","","","","",""
"","S2","","html-keyboard-response","37","229925","0.0-1.0-22.0","0","0","81438","","97","","","68","2","","d","1","2","training","adjacent","CD","3","4","Q.jpg","N.jpg","1","1","1","",""
"","feedback","","html-keyboard-response","38","230926","0.0-1.0-24.0-0.0","0","0","81438","","null","","","null","2","","","","","","","","","","","","","","","",""
"","ITI","","html-keyboard-response","39","231928","0.0-1.0-27.0","0","0","81438","","50","","","75","2","","","","","","","","","","","","","","","k",""
"","S1","","html-keyboard-response","40","232181","0.0-1.0-29.0","0","0","81438","","null","","","null","3","","","","","","","","","","","","","","","",""
"","ISI","","html-keyboard-response","41","232683","0.0-1.0-30.0","0","0","81438","","163","","","68","3","d","","","","","","","","","","","","","","",""
"","S2","","html-keyboard-response","42","232762","0.0-1.0-31.0","0","0","81438","","77","","","75","3","","k","1","3","training","adjacent","DC","4","3","N.jpg","Q.jpg","0","0","1","",""
"","feedback","","html-keyboard-response","43","233764","0.0-1.0-33.0-0.0","0","0","81438","","null","","","null","3","","","","","","","","","","","","","","","",""
"","ITI","","html-keyboard-response","44","234766","0.0-1.0-36.0","0","0","81438","","470","","","68","3","","","","","","","","","","","","","","","d",""
"","S1","","html-keyboard-response","45","235019","0.0-1.0-38.0","0","0","81438","","null","","","null","4","","","","","","","","","","","","","","","",""
"","ISI","","html-keyboard-response","46","235521","0.0-1.0-39.0","0","0","81438","","59","","","75","4","k","","","","","","","","","","","","","","",""
"","S2","","html-keyboard-response","47","235552","0.0-1.0-40.0","0","0","81438","","29","","","68","4","","d","1","4","training","adjacent","EF","5","6","L.jpg","P.jpg","1","1","1","",""
"","feedback","","html-keyboard-response","48","236555","0.0-1.0-42.0-0.0","0","0","81438","","null","","","null","4","","","","","","","","","","","","","","","",""
"","ITI","","html-keyboard-response","49","237558","0.0-1.0-45.0","0","0","81438","","63","","","68","4","","","","","","","","","","","","","","","d",""
"","S1","","html-keyboard-response","50","237811","0.0-1.0-47.0","0","0","81438","","null","","","null","5","","","","","","","","","","","","","","","",""
"","ISI","","html-keyboard-response","51","238312","0.0-1.0-48.0","0","0","81438","","72","","","68","5","d","","","","","","","","","","","","","","",""
"","S2","","html-keyboard-response","52","238401","0.0-1.0-49.0","0","0","81438","","87","","","68","5","","d","1","5","training","adjacent","ED","5","4","L.jpg","N.jpg","1","0","0","",""
"","feedback","","html-keyboard-response","53","239404","0.0-1.0-51.0-0.0","0","0","81438","","null","","","null","5","","","","","","","","","","","","","","","",""
"","time_out","","html-keyboard-response","54","241405","0.0-1.0-53.0-0.0","0","0","81438","","null","","","null","5","","","","","","","","","","","","","","","",""
"","ITI","","html-keyboard-response","55","242407","0.0-1.0-54.0","0","0","81438","","122","","","75","5","","","","","","","","","","","","","","","k",""
"","S1","","html-keyboard-response","56","242659","0.0-1.0-56.0","0","0","81438","","null","","","null","6","","","","","","","","","","","","","","","",""
"","ISI","","html-keyboard-response","57","243191","0.0-1.0-57.0","0","0","81438","","152","","","68","6","d","","","","","","","","","","","","","","",""
"","S2","","html-keyboard-response","58","243204","0.0-1.0-58.0","0","0","81438","","13","","","68","6","","d","1","6","training","adjacent","GF","7","6","O.jpg","P.jpg","1","0","0","",""
"","feedback","","html-keyboard-response","59","244206","0.0-1.0-60.0-0.0","0","0","81438","","null","","","null","6","","","","","","","","","","","","","","","",""
"","time_out","","html-keyboard-response","60","246230","0.0-1.0-62.0-0.0","0","0","81438","","null","","","null","6","","","","","","","","","","","","","","","",""
"","ITI","","html-keyboard-response","61","247234","0.0-1.0-63.0","0","0","81438","","92","","","75","6","","","","","","","","","","","","","","","k",""
"","S1","","html-keyboard-response","62","247486","0.0-1.0-65.0","0","0","81438","","null","","","null","7","","","","","","","","","","","","","","","",""
"","ISI","","html-keyboard-response","63","247987","0.0-1.0-66.0","0","0","81438","","20","","","75","7","k","","","","","","","","","","","","","","",""
"","S2","","html-keyboard-response","64","248245","0.0-1.0-67.0","0","0","81438","","null","","","null","7","","NaN","","","","","","","","","","","","","",""
"","response","","html-keyboard-response","65","248648","0.0-1.0-68.0-0.0","0","0","81438","","401","","","68","7","","","1","7","training","adjacent","BC","2","3","M.jpg","Q.jpg","1","1","1","",""
"","feedback","","html-keyboard-response","66","249654","0.0-1.0-69.0-0.0","0","0","81438","","null","","","null","7","","","","","","","","","","","","","","","",""
"","ITI","","html-keyboard-response","67","250656","0.0-1.0-72.0","0","0","81438","","null","","","null","7","","","","","","","","","","","","","","","NaN",""
"","S1","","html-keyboard-response","68","250907","0.0-1.0-74.0","0","0","81438","","null","","","null","8","","","","","","","","","","","","","","","",""
"","ISI","","html-keyboard-response","69","251408","0.0-1.0-75.0","0","0","81438","","null","","","null","8","NaN","","","","","","","","","","","","","","",""
"","S2","","html-keyboard-response","70","251425","0.0-1.0-76.0","0","0","81438","","15","","","75","8","","k","1","8","training","adjacent","ED","5","4","L.jpg","N.jpg","0","0","1","",""
"","feedback","","html-keyboard-response","71","252428","0.0-1.0-78.0-0.0","0","0","81438","","null","","","null","8","","","","","","","","","","","","","","","",""
"","ITI","","html-keyboard-response","72","253430","0.0-1.0-81.0","0","0","81438","","null","","","null","8","","","","","","","","","","","","","","","NaN",""
"","S1","","html-keyboard-response","73","253682","0.0-1.0-83.0","0","0","81438","","null","","","null","9","","","","","","","","","","","","","","","",""
"","ISI","","html-keyboard-response","74","254184","0.0-1.0-84.0","0","0","81438","","123","","","75","9","k","","","","","","","","","","","","","","",""
"","S2","","html-keyboard-response","75","254270","0.0-1.0-85.0","0","0","81438","","85","","","68","9","","d","1","9","training","adjacent","CB","3","2","Q.jpg","M.jpg","1","0","0","",""
"","feedback","","html-keyboard-response","76","255274","0.0-1.0-87.0-0.0","0","0","81438","","null","","","null","9","","","","","","","","","","","","","","","",""
"","time_out","","html-keyboard-response","77","257277","0.0-1.0-89.0-0.0","0","0","81438","","null","","","null","9","","","","","","","","","","","","","","","",""
"","ITI","","html-keyboard-response","78","258279","0.0-1.0-90.0","0","0","81438","","75","","","68","9","","","","","","","","","","","","","","","d",""
"","S1","","html-keyboard-response","79","258531","0.0-1.0-92.0","0","0","81438","","null","","","null","10","","","","","","","","","","","","","","","",""
"","ISI","","html-keyboard-response","80","259033","0.0-1.0-93.0","0","0","81438","","144","","","68","10","d","","","","","","","","","","","","","","",""
"","S2","","html-keyboard-response","81","259188","0.0-1.0-94.0","0","0","81438","","153","","","68","10","","d","1","10","training","adjacent","FG","6","7","P.jpg","O.jpg","1","1","1","",""
"","feedback","","html-keyboard-response","82","260191","0.0-1.0-96.0-0.0","0","0","81438","","null","","","null","10","","","","","","","","","","","","","","","",""
"","ITI","","html-keyboard-response","83","261193","0.0-1.0-99.0","0","0","81438","","null","","","null","10","","","","","","","","","","","","","","","NaN",""
"","S1","","html-keyboard-response","84","261449","0.0-1.0-101.0","0","0","81438","","null","","","null","11","","","","","","","","","","","","","","","",""
"","ISI","","html-keyboard-response","85","261950","0.0-1.0-102.0","0","0","81438","","null","","","null","11","NaN","","","","","","","","","","","","","","",""
"","S2","","html-keyboard-response","86","262006","0.0-1.0-103.0","0","0","81438","","53","","","68","11","","d","1","11","training","adjacent","DE","4","5","N.jpg","L.jpg","1","1","1","",""
"","feedback","","html-keyboard-response","87","263007","0.0-1.0-105.0-0.0","0","0","81438","","null","","","null","11","","","","","","","","","","","","","","","",""
"","ITI","","html-keyboard-response","88","264010","0.0-1.0-108.0","0","0","81438","","32","","","75","11","","","","","","","","","","","","","","","k",""
"","S1","","html-keyboard-response","89","264261","0.0-1.0-110.0","0","0","81438","","null","","","null","12","","","","","","","","","","","","","","","",""
"","ISI","","html-keyboard-response","90","264763","0.0-1.0-111.0","0","0","81438","","428","","","68","12","d","","","","","","","","","","","","","","",""
"","S2","","html-keyboard-response","91","264898","0.0-1.0-112.0","0","0","81438","","133","","","75","12","","k","1","12","training","adjacent","FE","6","5","P.jpg","L.jpg","0","0","1","",""
"","feedback","","html-keyboard-response","92","265901","0.0-1.0-114.0-0.0","0","0","81438","","null","","","null","12","","","","","","","","","","","","","","","",""
"","ITI","","html-keyboard-response","93","266902","0.0-1.0-117.0","0","0","81438","","50","","","75","12","","","","","","","","","","","","","","","k",""
"","S1","","html-keyboard-response","94","267154","0.0-1.0-119.0","0","0","81438","","null","","","null","13","","","","","","","","","","","","","","","",""
"","ISI","","html-keyboard-response","95","267656","0.0-1.0-120.0","0","0","81438","","84","","","68","13","d","","","","","","","","","","","","","","",""
"","S2","","html-keyboard-response","96","267679","0.0-1.0-121.0","0","0","81438","","22","","","68","13","","d","1","13","training","adjacent","BC","2","3","M.jpg","Q.jpg","1","1","1","",""
"","feedback","","html-keyboard-response","97","268681","0.0-1.0-123.0-0.0","0","0","81438","","null","","","null","13","","","","","","","","","","","","","","","",""
"","ITI","","html-keyboard-response","98","269682","0.0-1.0-126.0","0","0","81438","","180","","","75","13","","","","","","","","","","","","","","","k",""
"","S1","","html-keyboard-response","99","269935","0.0-1.0-128.0","0","0","81438","","null","","","null","14","","","","","","","","","","","","","","","",""
"","ISI","","html-keyboard-response","100","270437","0.0-1.0-129.0","0","0","81438","","177","","","68","14","d","","","","","","","","","","","","","","",""
"","S2","","html-keyboard-response","101","270469","0.0-1.0-130.0","0","0","81438","","31","","","68","14","","d","1","14","training","adjacent","BA","2","1","M.jpg","R.jpg","1","0","0","",""
"","feedback","","html-keyboard-response","102","271471","0.0-1.0-132.0-0.0","0","0","81438","","null","","","null","14","","","","","","","","","","","","","","","",""
"","time_out","","html-keyboard-response","103","273473","0.0-1.0-134.0-0.0","0","0","81438","","null","","","null","14","","","","","","","","","","","","","","","",""
"","ITI","","html-keyboard-response","104","275435","0.0-1.0-135.0","0","0","81438","","null","","","null","14","","","","","","","","","","","","","","","NaN",""
"","S1","","html-keyboard-response","105","276145","0.0-1.0-137.0","0","0","81438","","null","","","null","15","","","","","","","","","","","","","","","",""
"","ISI","","html-keyboard-response","106","276650","0.0-1.0-138.0","0","0","81438","","null","","","null","15","NaN","","","","","","","","","","","","","","",""
"","S2","","html-keyboard-response","107","276901","0.0-1.0-139.0","0","0","81438","","null","","","null","15","","NaN","","","","","","","","","","","","","",""
"","response","","html-keyboard-response","108","278548","0.0-1.0-140.0-0.0","0","0","81438","","1645","","","68","15","","","1","15","training","adjacent","AB","1","2","R.jpg","M.jpg","1","1","1","",""
"","feedback","","html-keyboard-response","109","279551","0.0-1.0-141.0-0.0","0","0","81438","","null","","","null","15","","","","","","","","","","","","","","","",""
"","ITI","","html-keyboard-response","110","280553","0.0-1.0-144.0","0","0","81438","","755","","","68","15","","","","","","","","","","","","","","","d",""
"","S1","","html-keyboard-response","111","280804","0.0-1.0-146.0","0","0","81438","","null","","","null","16","","","","","","","","","","","","","","","",""
"","ISI","","html-keyboard-response","112","281306","0.0-1.0-147.0","0","0","81438","","94","","","68","16","d","","","","","","","","","","","","","","",""
"","S2","","html-keyboard-response","113","281485","0.0-1.0-148.0","0","0","81438","","178","","","68","16","","d","1","16","training","adjacent","DC","4","3","N.jpg","Q.jpg","1","0","0","",""
"","feedback","","html-keyboard-response","114","282489","0.0-1.0-150.0-0.0","0","0","81438","","null","","","null","16","","","","","","","","","","","","","","","",""
"","time_out","","html-keyboard-response","115","284491","0.0-1.0-152.0-0.0","0","0","81438","","null","","","null","16","","","","","","","","","","","","","","","",""
"","ITI","","html-keyboard-response","116","285493","0.0-1.0-153.0","0","0","81438","","280","","","75","16","","","","","","","","","","","","","","","k",""
"","S1","","html-keyboard-response","117","285746","0.0-1.0-155.0","0","0","81438","","null","","","null","17","","","","","","","","","","","","","","","",""
"","ISI","","html-keyboard-response","118","286247","0.0-1.0-156.0","0","0","81438","","367","","","68","17","d","","","","","","","","","","","","","","",""
"","S2","","html-keyboard-response","119","286261","0.0-1.0-157.0","0","0","81438","","13","","","75","17","","k","1","17","training","adjacent","CD","3","4","Q.jpg","N.jpg","0","1","0","",""
"","feedback","","html-keyboard-response","120","287262","0.0-1.0-159.0-0.0","0","0","81438","","null","","","null","17","","","","","","","","","","","","","","","",""
"","time_out","","html-keyboard-response","121","289264","0.0-1.0-161.0-0.0","0","0","81438","","null","","","null","17","","","","","","","","","","","","","","","",""
"","ITI","","html-keyboard-response","122","290266","0.0-1.0-162.0","0","0","81438","","194","","","68","17","","","","","","","","","","","","","","","d",""
"","S1","","html-keyboard-response","123","290518","0.0-1.0-164.0","0","0","81438","","null","","","null","18","","","","","","","","","","","","","","","",""
"","ISI","","html-keyboard-response","124","291019","0.0-1.0-165.0","0","0","81438","","8","","","75","18","k","","","","","","","","","","","","","","",""
"","S2","","html-keyboard-response","125","291182","0.0-1.0-166.0","0","0","81438","","161","","","75","18","","k","1","18","training","adjacent","EF","5","6","L.jpg","P.jpg","0","1","0","",""
"","feedback","","html-keyboard-response","126","292185","0.0-1.0-168.0-0.0","0","0","81438","","null","","","null","18","","","","","","","","","","","","","","","",""
"","time_out","","html-keyboard-response","127","294189","0.0-1.0-170.0-0.0","0","0","81438","","null","","","null","18","","","","","","","","","","","","","","","",""
"","ITI","","html-keyboard-response","128","295191","0.0-1.0-171.0","0","0","81438","","null","","","null","18","","","","","","","","","","","","","","","NaN",""
"","S1","","html-keyboard-response","129","295443","0.0-1.0-173.0","0","0","81438","","null","","","null","19","","","","","","","","","","","","","","","",""
"","ISI","","html-keyboard-response","130","295946","0.0-1.0-174.0","0","0","81438","","361","","","75","19","k","","","","","","","","","","","","","","",""
"","S2","","html-keyboard-response","131","296199","0.0-1.0-175.0","0","0","81438","","null","","","null","19","","NaN","","","","","","","","","","","","","",""
"","response","","html-keyboard-response","132","296658","0.0-1.0-176.0-0.0","0","0","81438","","458","","","75","19","","","1","19","training","adjacent","AB","1","2","R.jpg","M.jpg","0","1","0","",""
"","feedback","","html-keyboard-response","133","297660","0.0-1.0-177.0-0.0","0","0","81438","","null","","","null","19","","","","","","","","","","","","","","","",""
"","time_out","","html-keyboard-response","134","299662","0.0-1.0-179.0-0.0","0","0","81438","","null","","","null","19","","","","","","","","","","","","","","","",""
"","ITI","","html-keyboard-response","135","300665","0.0-1.0-180.0","0","0","81438","","null","","","null","19","","","","","","","","","","","","","","","NaN",""
"","S1","","html-keyboard-response","136","300920","0.0-1.0-182.0","0","0","81438","","null","","","null","20","","","","","","","","","","","","","","","",""
"","ISI","","html-keyboard-response","137","301422","0.0-1.0-183.0","0","0","81438","","384","","","68","20","d","","","","","","","","","","","","","","",""
"","S2","","html-keyboard-response","138","301673","0.0-1.0-184.0","0","0","81438","","null","","","null","20","","NaN","","","","","","","","","","","","","",""
"","response","","html-keyboard-response","139","303331","0.0-1.0-185.0-0.0","0","0","81438","","1657","","","68","20","","","1","20","training","adjacent","CB","3","2","Q.jpg","M.jpg","1","0","0","",""
"","feedback","","html-keyboard-response","140","304332","0.0-1.0-186.0-0.0","0","0","81438","","null","","","null","20","","","","","","","","","","","","","","","",""
"","time_out","","html-keyboard-response","141","306334","0.0-1.0-188.0-0.0","0","0","81438","","null","","","null","20","","","","","","","","","","","","","","","",""
"","ITI","","html-keyboard-response","142","307336","0.0-1.0-189.0","0","0","81438","","80","","","75","20","","","","","","","","","","","","","","","k",""
"","S1","","html-keyboard-response","143","307588","0.0-1.0-191.0","0","0","81438","","null","","","null","21","","","","","","","","","","","","","","","",""
"","ISI","","html-keyboard-response","144","308091","0.0-1.0-192.0","0","0","81438","","259","","","68","21","d","","","","","","","","","","","","","","",""
"","S2","","html-keyboard-response","145","308129","0.0-1.0-193.0","0","0","81438","","37","","","75","21","","k","1","21","training","adjacent","FG","6","7","P.jpg","O.jpg","0","1","0","",""
"","feedback","","html-keyboard-response","146","309131","0.0-1.0-195.0-0.0","0","0","81438","","null","","","null","21","","","","","","","","","","","","","","","",""
"","time_out","","html-keyboard-response","147","311133","0.0-1.0-197.0-0.0","0","0","81438","","null","","","null","21","","","","","","","","","","","","","","","",""
"","ITI","","html-keyboard-response","148","312135","0.0-1.0-198.0","0","0","81438","","157","","","75","21","","","","","","","","","","","","","","","k",""
"","S1","","html-keyboard-response","149","312387","0.0-1.0-200.0","0","0","81438","","null","","","null","22","","","","","","","","","","","","","","","",""
"","ISI","","html-keyboard-response","150","312890","0.0-1.0-201.0","0","0","81438","","254","","","75","22","k","","","","","","","","","","","","","","",""
"","S2","","html-keyboard-response","151","313053","0.0-1.0-202.0","0","0","81438","","162","","","75","22","","k","1","22","training","adjacent","FG","6","7","P.jpg","O.jpg","0","1","0","",""
"","feedback","","html-keyboard-response","152","314055","0.0-1.0-204.0-0.0","0","0","81438","","null","","","null","22","","","","","","","","","","","","","","","",""
"","time_out","","html-keyboard-response","153","316056","0.0-1.0-206.0-0.0","0","0","81438","","null","","","null","22","","","","","","","","","","","","","","","",""
"","ITI","","html-keyboard-response","154","317059","0.0-1.0-207.0","0","0","81438","","776","","","75","22","","","","","","","","","","","","","","","k",""
"","S1","","html-keyboard-response","155","317324","0.0-1.0-209.0","0","0","81438","","null","","","null","23","","","","","","","","","","","","","","","",""
"","ISI","","html-keyboard-response","156","317827","0.0-1.0-210.0","0","0","81438","","null","","","null","23","NaN","","","","","","","","","","","","","","",""
"","S2","","html-keyboard-response","157","318080","0.0-1.0-211.0","0","0","81438","","null","","","null","23","","NaN","","","","","","","","","","","","","",""
"","response","","html-keyboard-response","158","318090","0.0-1.0-212.0-0.0","0","0","81438","","8","","","75","23","","","1","23","training","adjacent","ED","5","4","L.jpg","N.jpg","0","0","1","",""
"","feedback","","html-keyboard-response","159","319093","0.0-1.0-213.0-0.0","0","0","81438","","null","","","null","23","","","","","","","","","","","","","","","",""
"","ITI","","html-keyboard-response","160","320095","0.0-1.0-216.0","0","0","81438","","null","","","null","23","","","","","","","","","","","","","","","NaN",""
"","S1","","html-keyboard-response","161","320347","0.0-1.0-218.0","0","0","81438","","null","","","null","24","","","","","","","","","","","","","","","",""
"","ISI","","html-keyboard-response","162","320848","0.0-1.0-219.0","0","0","81438","","null","","","null","24","NaN","","","","","","","","","","","","","","",""
"","S2","","html-keyboard-response","163","321100","0.0-1.0-220.0","0","0","81438","","null","","","null","24","","NaN","","","","","","","","","","","","","",""
"","response","","html-keyboard-response","164","322852","0.0-1.0-221.0-0.0","0","0","81438","","null","","","null","24","","","1","24","training","adjacent","AB","1","2","R.jpg","M.jpg","NaN","1","0","",""
"","too_slow_prompt","","html-keyboard-response","165","323856","0.0-1.0-223.0-0.0","1","0","81438","","null","","","null","","","","","","","","","","","","","","","","",""
"","time_out","","html-keyboard-response","166","325858","0.0-1.0-224.0-0.0","0","0","81438","","null","","","null","24","","","","","","","","","","","","","","","",""
"","ITI","","html-keyboard-response","167","326859","0.0-1.0-225.0","0","0","81438","","115","","","68","24","","","","","","","","","","","","","","","d",""
"","S1","","html-keyboard-response","168","327110","0.0-1.0-227.0","0","0","81438","","null","","","null","25","","","","","","","","","","","","","","","",""
"","ISI","","html-keyboard-response","169","327612","0.0-1.0-228.0","0","0","81438","","319","","","68","25","d","","","","","","","","","","","","","","",""
"","S2","","html-keyboard-response","170","327863","0.0-1.0-229.0","0","0","81438","","null","","","null","25","","NaN","","","","","","","","","","","","","",""
"","response","","html-keyboard-response","171","328771","0.0-1.0-230.0-0.0","0","0","81438","","906","","","68","25","","","1","25","training","adjacent","ED","5","4","L.jpg","N.jpg","1","0","0","",""
"","feedback","","html-keyboard-response","172","329774","0.0-1.0-231.0-0.0","0","0","81438","","null","","","null","25","","","","","","","","","","","","","","","",""
"","time_out","","html-keyboard-response","173","331777","0.0-1.0-233.0-0.0","0","0","81438","","null","","","null","25","","","","","","","","","","","","","","","",""
"","ITI","","html-keyboard-response","174","332778","0.0-1.0-234.0","0","0","81438","","250","","","68","25","","","","","","","","","","","","","","","d",""
"","S1","","html-keyboard-response","175","333031","0.0-1.0-236.0","0","0","81438","","null","","","null","26","","","","","","","","","","","","","","","",""
"","ISI","","html-keyboard-response","176","333533","0.0-1.0-237.0","0","0","81438","","302","","","68","26","d","","","","","","","","","","","","","","",""
"","S2","","html-keyboard-response","177","333535","0.0-1.0-238.0","0","0","81438","","1","","","75","26","","k","1","26","training","adjacent","BA","2","1","M.jpg","R.jpg","0","0","1","",""
"","feedback","","html-keyboard-response","178","334536","0.0-1.0-240.0-0.0","0","0","81438","","null","","","null","26","","","","","","","","","","","","","","","",""
"","ITI","","html-keyboard-response","179","335538","0.0-1.0-243.0","0","0","81438","","884","","","68","26","","","","","","","","","","","","","","","d",""
"","S1","","html-keyboard-response","180","335790","0.0-1.0-245.0","0","0","81438","","null","","","null","27","","","","","","","","","","","","","","","",""
"","ISI","","html-keyboard-response","181","336292","0.0-1.0-246.0","0","0","81438","","null","","","null","27","NaN","","","","","","","","","","","","","","",""
"","S2","","html-keyboard-response","182","336572","0.0-1.0-247.0","0","0","81438","","null","","","null","27","","NaN","","","","","","","","","","","","","",""
"","response","","html-keyboard-response","183","338441","0.0-1.0-248.0-0.0","0","0","81438","","null","","","null","27","","","1","27","training","adjacent","CD","3","4","Q.jpg","N.jpg","NaN","1","0","",""
"","too_slow_prompt","","html-keyboard-response","184","340434","0.0-1.0-250.0-0.0","1","0","81438","","null","","","null","","","","","","","","","","","","","","","","",""
"","time_out","","html-keyboard-response","185","343436","0.0-1.0-251.0-0.0","0","0","81438","","null","","","null","27","","","","","","","","","","","","","","","",""
"","ITI","","html-keyboard-response","186","345450","0.0-1.0-252.0","0","0","81438","","null","","","null","27","","","","","","","","","","","","","","","NaN",""
"","S1","","html-keyboard-response","187","346435","0.0-1.0-254.0","0","0","81438","","null","","","null","28","","","","","","","","","","","","","","","",""
"","ISI","","html-keyboard-response","188","347435","0.0-1.0-255.0","0","0","81438","","null","","","null","28","NaN","","","","","","","","","","","","","","",""
"","S2","","html-keyboard-response","189","348436","0.0-1.0-256.0","0","0","81438","","null","","","null","28","","NaN","","","","","","","","","","","","","",""
"","response","","html-keyboard-response","190","350435","0.0-1.0-257.0-0.0","0","0","81438","","null","","","null","28","","","1","28","training","adjacent","FE","6","5","P.jpg","L.jpg","NaN","0","0","",""
"","too_slow_prompt","","html-keyboard-response","191","352450","0.0-1.0-259.0-0.0","1","0","81438","","null","","","null","","","","","","","","","","","","","","","","",""
"","time_out","","html-keyboard-response","192","355450","0.0-1.0-260.0-0.0","0","0","81438","","null","","","null","28","","","","","","","","","","","","","","","",""
"","ITI","","html-keyboard-response","193","356452","0.0-1.0-261.0","0","0","81438","","null","","","null","28","","","","","","","","","","","","","","","NaN",""
"","S1","","html-keyboard-response","194","356703","0.0-1.0-263.0","0","0","81438","","null","","","null","29","","","","","","","","","","","","","","","",""
"","ISI","","html-keyboard-response","195","357206","0.0-1.0-264.0","0","0","81438","","null","","","null","29","NaN","","","","","","","","","","","","","","",""
"","S2","","html-keyboard-response","196","357459","0.0-1.0-265.0","0","0","81438","","null","","","null","29","","NaN","","","","","","","","","","","","","",""
"","response","","html-keyboard-response","197","359449","0.0-1.0-266.0-0.0","0","0","81438","","null","","","null","29","","","1","29","training","adjacent","CB","3","2","Q.jpg","M.jpg","NaN","0","0","",""
"","too_slow_prompt","","html-keyboard-response","198","361473","0.0-1.0-268.0-0.0","1","0","81438","","null","","","null","","","","","","","","","","","","","","","","",""
"","time_out","","html-keyboard-response","199","364450","0.0-1.0-269.0-0.0","0","0","81438","","null","","","null","29","","","","","","","","","","","","","","","",""
"","ITI","","html-keyboard-response","200","366435","0.0-1.0-270.0","0","0","81438","","null","","","null","29","","","","","","","","","","","","","","","NaN",""
"","S1","","html-keyboard-response","201","367436","0.0-1.0-272.0","0","0","81438","","null","","","null","30","","","","","","","","","","","","","","","",""
"","ISI","","html-keyboard-response","202","368449","0.0-1.0-273.0","0","0","81438","","null","","","null","30","NaN","","","","","","","","","","","","","","",""
"","S2","","html-keyboard-response","203","369434","0.0-1.0-274.0","0","0","81438","","null","","","null","30","","NaN","","","","","","","","","","","","","",""
"","response","","html-keyboard-response","204","371435","0.0-1.0-275.0-0.0","0","0","81438","","null","","","null","30","","","1","30","training","adjacent","FE","6","5","P.jpg","L.jpg","NaN","0","0","",""
"","too_slow_prompt","","html-keyboard-response","205","373445","0.0-1.0-277.0-0.0","1","0","81438","","null","","","null","","","","","","","","","","","","","","","","",""
"","time_out","","html-keyboard-response","206","376434","0.0-1.0-278.0-0.0","0","0","81438","","null","","","null","30","","","","","","","","","","","","","","","",""
"","ITI","","html-keyboard-response","207","378436","0.0-1.0-279.0","0","0","81438","","null","","","null","30","","","","","","","","","","","","","","","NaN",""
"","S1","","html-keyboard-response","208","379434","0.0-1.0-281.0","0","0","81438","","null","","","null","31","","","","","","","","","","","","","","","",""
"","ISI","","html-keyboard-response","209","380447","0.0-1.0-282.0","0","0","81438","","null","","","null","31","NaN","","","","","","","","","","","","","","",""
"","S2","","html-keyboard-response","210","381435","0.0-1.0-283.0","0","0","81438","","null","","","null","31","","NaN","","","","","","","","","","","","","",""
"","response","","html-keyboard-response","211","383434","0.0-1.0-284.0-0.0","0","0","81438","","null","","","null","31","","","1","31","training","adjacent","GF","7","6","O.jpg","P.jpg","NaN","0","0","",""
"","too_slow_prompt","","html-keyboard-response","212","385435","0.0-1.0-286.0-0.0","1","0","81438","","null","","","null","","","","","","","","","","","","","","","","",""
"","time_out","","html-keyboard-response","213","388452","0.0-1.0-287.0-0.0","0","0","81438","","null","","","null","31","","","","","","","","","","","","","","","",""
"","ITI","","html-keyboard-response","214","390450","0.0-1.0-288.0","0","0","81438","","null","","","null","31","","","","","","","","","","","","","","","NaN",""
"","S1","","html-keyboard-response","215","391124","0.0-1.0-290.0","0","0","81438","","null","","","null","32","","","","","","","","","","","","","","","",""
"","ISI","","html-keyboard-response","216","391625","0.0-1.0-291.0","0","0","81438","","null","","","null","32","NaN","","","","","","","","","","","","","","",""
"","S2","","html-keyboard-response","217","391877","0.0-1.0-292.0","0","0","81438","","null","","","null","32","","NaN","","","","","","","","","","","","","",""
"","response","","html-keyboard-response","218","393057","0.0-1.0-293.0-0.0","0","0","81438","","1177","","","68","32","","","1","32","training","adjacent","EF","5","6","L.jpg","P.jpg","1","1","1","",""
"","feedback","","html-keyboard-response","219","394061","0.0-1.0-294.0-0.0","0","0","81438","","null","","","null","32","","","","","","","","","","","","","","","",""
"","ITI","","html-keyboard-response","220","395063","0.0-1.0-297.0","0","0","81438","","61","","","68","32","","","","","","","","","","","","","","","d",""
"","S1","","html-keyboard-response","221","395327","0.0-1.0-299.0","0","0","81438","","null","","","null","33","","","","","","","","","","","","","","","",""
"","ISI","","html-keyboard-response","222","395828","0.0-1.0-300.0","0","0","81438","","415","","","68","33","d","","","","","","","","","","","","","","",""
"","S2","","html-keyboard-response","223","395901","0.0-1.0-301.0","0","0","81438","","71","","","75","33","","k","1","33","training","adjacent","BA","2","1","M.jpg","R.jpg","0","0","1","",""
"","feedback","","html-keyboard-response","224","396902","0.0-1.0-303.0-0.0","0","0","81438","","null","","","null","33","","","","","","","","","","","","","","","",""
"","ITI","","html-keyboard-response","225","397904","0.0-1.0-306.0","0","0","81438","","176","","","68","33","","","","","","","","","","","","","","","d",""
"","S1","","html-keyboard-response","226","398157","0.0-1.0-308.0","0","0","81438","","null","","","null","34","","","","","","","","","","","","","","","",""
"","ISI","","html-keyboard-response","227","398665","0.0-1.0-309.0","0","0","81438","","306","","","75","34","k","","","","","","","","","","","","","","",""
"","S2","","html-keyboard-response","228","398917","0.0-1.0-310.0","0","0","81438","","null","","","null","34","","NaN","","","","","","","","","","","","","",""
"","response","","html-keyboard-response","229","398972","0.0-1.0-311.0-0.0","0","0","81438","","53","","","75","34","","","1","34","training","adjacent","DE","4","5","N.jpg","L.jpg","0","1","0","",""
"","feedback","","html-keyboard-response","230","399974","0.0-1.0-312.0-0.0","0","0","81438","","null","","","null","34","","","","","","","","","","","","","","","",""
"","time_out","","html-keyboard-response","231","401975","0.0-1.0-314.0-0.0","0","0","81438","","null","","","null","34","","","","","","","","","","","","","","","",""
"","ITI","","html-keyboard-response","232","402977","0.0-1.0-315.0","0","0","81438","","36","","","68","34","","","","","","","","","","","","","","","d",""
"","S1","","html-keyboard-response","233","403230","0.0-1.0-317.0","0","0","81438","","null","","","null","35","","","","","","","","","","","","","","","",""
"","ISI","","html-keyboard-response","234","403731","0.0-1.0-318.0","0","0","81438","","250","","","75","35","k","","","","","","","","","","","","","","",""
"","S2","","html-keyboard-response","235","403913","0.0-1.0-319.0","0","0","81438","","181","","","75","35","","k","1","35","training","adjacent","GF","7","6","O.jpg","P.jpg","0","0","1","",""
"","feedback","","html-keyboard-response","236","404916","0.0-1.0-321.0-0.0","0","0","81438","","null","","","null","35","","","","","","","","","","","","","","","",""
"","ITI","","html-keyboard-response","237","405918","0.0-1.0-324.0","0","0","81438","","null","","","null","35","","","","","","","","","","","","","","","NaN",""
"","S1","","html-keyboard-response","238","406169","0.0-1.0-326.0","0","0","81438","","null","","","null","36","","","","","","","","","","","","","","","",""
"","ISI","","html-keyboard-response","239","406670","0.0-1.0-327.0","0","0","81438","","null","","","null","36","NaN","","","","","","","","","","","","","","",""
"","S2","","html-keyboard-response","240","406923","0.0-1.0-328.0","0","0","81438","","null","","","null","36","","NaN","","","","","","","","","","","","","",""
"","response","","html-keyboard-response","241","407403","0.0-1.0-329.0-0.0","0","0","81438","","479","","","68","36","","","1","36","training","adjacent","FE","6","5","P.jpg","L.jpg","1","0","0","",""
"","feedback","","html-keyboard-response","242","408405","0.0-1.0-330.0-0.0","0","0","81438","","null","","","null","36","","","","","","","","","","","","","","","",""
"","time_out","","html-keyboard-response","243","410408","0.0-1.0-332.0-0.0","0","0","81438","","null","","","null","36","","","","","","","","","","","","","","","",""
"","ITI","","html-keyboard-response","244","411412","0.0-1.0-333.0","0","0","81438","","26","","","68","36","","","","","","","","","","","","","","","d",""
"","S1","","html-keyboard-response","245","411664","0.0-1.0-335.0","0","0","81438","","null","","","null","37","","","","","","","","","","","","","","","",""
"","ISI","","html-keyboard-response","246","412166","0.0-1.0-336.0","0","0","81438","","53","","","68","37","d","","","","","","","","","","","","","","",""
"","S2","","html-keyboard-response","247","412419","0.0-1.0-337.0","0","0","81438","","null","","","null","37","","NaN","","","","","","","","","","","","","",""
"","response","","html-keyboard-response","248","412424","0.0-1.0-338.0-0.0","0","0","81438","","4","","","75","37","","","1","37","training","adjacent","DE","4","5","N.jpg","L.jpg","0","1","0","",""
"","feedback","","html-keyboard-response","249","413427","0.0-1.0-339.0-0.0","0","0","81438","","null","","","null","37","","","","","","","","","","","","","","","",""
"","time_out","","html-keyboard-response","250","415429","0.0-1.0-341.0-0.0","0","0","81438","","null","","","null","37","","","","","","","","","","","","","","","",""
"","ITI","","html-keyboard-response","251","416431","0.0-1.0-342.0","0","0","81438","","35","","","75","37","","","","","","","","","","","","","","","k",""
"","S1","","html-keyboard-response","252","416682","0.0-1.0-344.0","0","0","81438","","null","","","null","38","","","","","","","","","","","","","","","",""
"","ISI","","html-keyboard-response","253","417184","0.0-1.0-345.0","0","0","81438","","null","","","null","38","NaN","","","","","","","","","","","","","","",""
"","S2","","html-keyboard-response","254","417286","0.0-1.0-346.0","0","0","81438","","101","","","68","38","","d","1","38","training","adjacent","DC","4","3","N.jpg","Q.jpg","1","0","0","",""
"","feedback","","html-keyboard-response","255","418288","0.0-1.0-348.0-0.0","0","0","81438","","null","","","null","38","","","","","","","","","","","","","","","",""
"","time_out","","html-keyboard-response","256","420289","0.0-1.0-350.0-0.0","0","0","81438","","null","","","null","38","","","","","","","","","","","","","","","",""
"","ITI","","html-keyboard-response","257","421291","0.0-1.0-351.0","0","0","81438","","158","","","68","38","","","","","","","","","","","","","","","d",""
"","S1","","html-keyboard-response","258","421543","0.0-1.0-353.0","0","0","81438","","null","","","null","39","","","","","","","","","","","","","","","",""
"","ISI","","html-keyboard-response","259","422044","0.0-1.0-354.0","0","0","81438","","null","","","null","39","NaN","","","","","","","","","","","","","","",""
"","S2","","html-keyboard-response","260","422297","0.0-1.0-355.0","0","0","81438","","null","","","null","39","","NaN","","","","","","","","","","","","","",""
"","response","","html-keyboard-response","261","424050","0.0-1.0-356.0-0.0","0","0","81438","","null","","","null","39","","","1","39","training","adjacent","BC","2","3","M.jpg","Q.jpg","NaN","1","0","",""
"","too_slow_prompt","","html-keyboard-response","262","425051","0.0-1.0-358.0-0.0","1","0","81438","","null","","","null","","","","","","","","","","","","","","","","",""
"","time_out","","html-keyboard-response","263","427052","0.0-1.0-359.0-0.0","0","0","81438","","null","","","null","39","","","","","","","","","","","","","","","",""
"","ITI","","html-keyboard-response","264","428055","0.0-1.0-360.0","0","0","81438","","381","","","68","39","","","","","","","","","","","","","","","d",""
"","S1","","html-keyboard-response","265","428340","0.0-1.0-362.0","0","0","81438","","null","","","null","40","","","","","","","","","","","","","","","",""
"","ISI","","html-keyboard-response","266","428844","0.0-1.0-363.0","0","0","81438","","203","","","68","40","d","","","","","","","","","","","","","","",""
"","S2","","html-keyboard-response","267","429098","0.0-1.0-364.0","0","0","81438","","null","","","null","40","","NaN","","","","","","","","","","","","","",""
"","response","","html-keyboard-response","268","429521","0.0-1.0-365.0-0.0","0","0","81438","","421","","","75","40","","","1","40","training","adjacent","CB","3","2","Q.jpg","M.jpg","0","0","1","",""
"","feedback","","html-keyboard-response","269","430522","0.0-1.0-366.0-0.0","0","0","81438","","null","","","null","40","","","","","","","","","","","","","","","",""
"","ITI","","html-keyboard-response","270","431524","0.0-1.0-369.0","0","0","81438","","186","","","75","40","","","","","","","","","","","","","","","k",""
"","S1","","html-keyboard-response","271","431783","0.0-1.0-371.0","0","0","81438","","null","","","null","41","","","","","","","","","","","","","","","",""
"","ISI","","html-keyboard-response","272","432291","0.0-1.0-372.0","0","0","81438","","null","","","null","41","NaN","","","","","","","","","","","","","","",""
"","S2","","html-keyboard-response","273","432543","0.0-1.0-373.0","0","0","81438","","null","","","null","41","","NaN","","","","","","","","","","","","","",""
"","response","","html-keyboard-response","274","434071","0.0-1.0-374.0-0.0","0","0","81438","","1526","","","68","41","","","1","41","training","adjacent","BA","2","1","M.jpg","R.jpg","1","0","0","",""
"","feedback","","html-keyboard-response","275","435075","0.0-1.0-375.0-0.0","0","0","81438","","null","","","null","41","","","","","","","","","","","","","","","",""
"","time_out","","html-keyboard-response","276","437434","0.0-1.0-377.0-0.0","0","0","81438","","null","","","null","41","","","","","","","","","","","","","","","",""
"","ITI","","html-keyboard-response","277","439356","0.0-1.0-378.0","0","0","81438","","null","","","null","41","","","","","","","","","","","","","","","NaN",""
"","S1","","html-keyboard-response","278","439610","0.0-1.0-380.0","0","0","81438","","null","","","null","42","","","","","","","","","","","","","","","",""
"","ISI","","html-keyboard-response","279","440112","0.0-1.0-381.0","0","0","81438","","null","","","null","42","NaN","","","","","","","","","","","","","","",""
"","S2","","html-keyboard-response","280","440363","0.0-1.0-382.0","0","0","81438","","null","","","null","42","","NaN","","","","","","","","","","","","","",""
"","response","","html-keyboard-response","281","440923","0.0-1.0-383.0-0.0","0","0","81438","","558","","","68","42","","","1","42","training","adjacent","GF","7","6","O.jpg","P.jpg","1","0","0","",""
"","feedback","","html-keyboard-response","282","441926","0.0-1.0-384.0-0.0","0","0","81438","","null","","","null","42","","","","","","","","","","","","","","","",""
"","time_out","","html-keyboard-response","283","443930","0.0-1.0-386.0-0.0","0","0","81438","","null","","","null","42","","","","","","","","","","","","","","","",""
"","ITI","","html-keyboard-response","284","444932","0.0-1.0-387.0","0","0","81438","","null","","","null","42","","","","","","","","","","","","","","","NaN",""
"","S1","","html-keyboard-response","285","445187","0.0-1.0-389.0","0","0","81438","","null","","","null","43","","","","","","","","","","","","","","","",""
"","ISI","","html-keyboard-response","286","445691","0.0-1.0-390.0","0","0","81438","","null","","","null","43","NaN","","","","","","","","","","","","","","",""
"","S2","","html-keyboard-response","287","445944","0.0-1.0-391.0","0","0","81438","","null","","","null","43","","NaN","","","","","","","","","","","","","",""
"","response","","html-keyboard-response","288","446234","0.0-1.0-392.0-0.0","0","0","81438","","288","","","68","43","","","1","43","training","adjacent","AB","1","2","R.jpg","M.jpg","1","1","1","",""
"","feedback","","html-keyboard-response","289","447235","0.0-1.0-393.0-0.0","0","0","81438","","null","","","null","43","","","","","","","","","","","","","","","",""
"","ITI","","html-keyboard-response","290","448238","0.0-1.0-396.0","0","0","81438","","null","","","null","43","","","","","","","","","","","","","","","NaN",""
"","S1","","html-keyboard-response","291","448490","0.0-1.0-398.0","0","0","81438","","null","","","null","44","","","","","","","","","","","","","","","",""
"","ISI","","html-keyboard-response","292","449014","0.0-1.0-399.0","0","0","81438","","null","","","null","44","NaN","","","","","","","","","","","","","","",""
"","S2","","html-keyboard-response","293","449265","0.0-1.0-400.0","0","0","81438","","null","","","null","44","","NaN","","","","","","","","","","","","","",""
"","response","","html-keyboard-response","294","451016","0.0-1.0-401.0-0.0","0","0","81438","","null","","","null","44","","","1","44","training","adjacent","FG","6","7","P.jpg","O.jpg","NaN","1","0","",""
"","too_slow_prompt","","html-keyboard-response","295","452018","0.0-1.0-403.0-0.0","1","0","81438","","null","","","null","","","","","","","","","","","","","","","","",""
"","time_out","","html-keyboard-response","296","454020","0.0-1.0-404.0-0.0","0","0","81438","","null","","","null","44","","","","","","","","","","","","","","","",""
"","ITI","","html-keyboard-response","297","455023","0.0-1.0-405.0","0","0","81438","","624","","","68","44","","","","","","","","","","","","","","","d",""
"","S1","","html-keyboard-response","298","455278","0.0-1.0-407.0","0","0","81438","","null","","","null","45","","","","","","","","","","","","","","","",""
"","ISI","","html-keyboard-response","299","455779","0.0-1.0-408.0","0","0","81438","","261","","","68","45","d","","","","","","","","","","","","","","",""
"","S2","","html-keyboard-response","300","455883","0.0-1.0-409.0","0","0","81438","","101","","","75","45","","k","1","45","training","adjacent","BC","2","3","M.jpg","Q.jpg","0","1","0","",""
"","feedback","","html-keyboard-response","301","456886","0.0-1.0-411.0-0.0","0","0","81438","","null","","","null","45","","","","","","","","","","","","","","","",""
"","time_out","","html-keyboard-response","302","458887","0.0-1.0-413.0-0.0","0","0","81438","","null","","","null","45","","","","","","","","","","","","","","","",""
"","ITI","","html-keyboard-response","303","459890","0.0-1.0-414.0","0","0","81438","","125","","","75","45","","","","","","","","","","","","","","","k",""
"","S1","","html-keyboard-response","304","460141","0.0-1.0-416.0","0","0","81438","","null","","","null","46","","","","","","","","","","","","","","","",""
"","ISI","","html-keyboard-response","305","460643","0.0-1.0-417.0","0","0","81438","","null","","","null","46","NaN","","","","","","","","","","","","","","",""
"","S2","","html-keyboard-response","306","460896","0.0-1.0-418.0","0","0","81438","","null","","","null","46","","NaN","","","","","","","","","","","","","",""
"","response","","html-keyboard-response","307","461154","0.0-1.0-419.0-0.0","0","0","81438","","256","","","68","46","","","1","46","training","adjacent","EF","5","6","L.jpg","P.jpg","1","1","1","",""
"","feedback","","html-keyboard-response","308","462155","0.0-1.0-420.0-0.0","0","0","81438","","null","","","null","46","","","","","","","","","","","","","","","",""
"","ITI","","html-keyboard-response","309","463157","0.0-1.0-423.0","0","0","81438","","582","","","68","46","","","","","","","","","","","","","","","d",""
"","S1","","html-keyboard-response","310","463410","0.0-1.0-425.0","0","0","81438","","null","","","null","47","","","","","","","","","","","","","","","",""
"","ISI","","html-keyboard-response","311","463912","0.0-1.0-426.0","0","0","81438","","null","","","null","47","NaN","","","","","","","","","","","","","","",""
"","S2","","html-keyboard-response","312","463942","0.0-1.0-427.0","0","0","81438","","29","","","68","47","","d","1","47","training","adjacent","DE","4","5","N.jpg","L.jpg","1","1","1","",""
"","feedback","","html-keyboard-response","313","464943","0.0-1.0-429.0-0.0","0","0","81438","","null","","","null","47","","","","","","","","","","","","","","","",""
"","ITI","","html-keyboard-response","314","465944","0.0-1.0-432.0","0","0","81438","","687","","","68","47","","","","","","","","","","","","","","","d",""
"","block_over","","html-keyboard-response","315","471325","0.0-1.0-433.0-0.0","0","0","81438","","5366","","","32","47","","","","","","","","","","","","","","","",""
"","S1","","html-keyboard-response","316","471577","0.0-1.0-434.0","0","0","81438","","null","","","null","48","","","","","","","","","","","","","","","",""
"","ISI","","html-keyboard-response","317","472080","0.0-1.0-435.0","0","0","81438","","null","","","null","48","NaN","","","","","","","","","","","","","","",""
"","S2","","html-keyboard-response","318","472333","0.0-1.0-436.0","0","0","81438","","null","","","null","48","","NaN","","","","","","","","","","","","","",""
"","response","","html-keyboard-response","319","472411","0.0-1.0-437.0-0.0","0","0","81438","","76","","","68","48","","","2","48","training","adjacent","CB","3","2","Q.jpg","M.jpg","1","0","0","",""
"","feedback","","html-keyboard-response","320","473415","0.0-1.0-438.0-0.0","0","0","81438","","null","","","null","48","","","","","","","","","","","","","","","",""
"","time_out","","html-keyboard-response","321","475417","0.0-1.0-440.0-0.0","0","0","81438","","null","","","null","48","","","","","","","","","","","","","","","",""
"","ITI","","html-keyboard-response","322","476420","0.0-1.0-441.0","0","0","81438","","325","","","68","48","","","","","","","","","","","","","","","d",""
"","S1","","html-keyboard-response","323","476672","0.0-1.0-443.0","0","0","81438","","null","","","null","49","","","","","","","","","","","","","","","",""
"","ISI","","html-keyboard-response","324","477186","0.0-1.0-444.0","0","0","81438","","28","","","68","49","d","","","","","","","","","","","","","","",""
"","S2","","html-keyboard-response","325","477437","0.0-1.0-445.0","0","0","81438","","null","","","null","49","","NaN","","","","","","","","","","","","","",""
"","response","","html-keyboard-response","326","477481","0.0-1.0-446.0-0.0","0","0","81438","","43","","","68","49","","","2","49","training","adjacent","CB","3","2","Q.jpg","M.jpg","1","0","0","",""
"","feedback","","html-keyboard-response","327","478484","0.0-1.0-447.0-0.0","0","0","81438","","null","","","null","49","","","","","","","","","","","","","","","",""
"","time_out","","html-keyboard-response","328","481434","0.0-1.0-449.0-0.0","0","0","81438","","null","","","null","49","","","","","","","","","","","","","","","",""
"","ITI","","html-keyboard-response","329","483435","0.0-1.0-450.0","0","0","81438","","null","","","null","49","","","","","","","","","","","","","","","NaN",""
"","S1","","html-keyboard-response","330","483952","0.0-1.0-452.0","0","0","81438","","null","","","null","50","","","","","","","","","","","","","","","",""
"","ISI","","html-keyboard-response","331","484453","0.0-1.0-453.0","0","0","81438","","null","","","null","50","NaN","","","","","","","","","","","","","","",""
"","S2","","html-keyboard-response","332","484706","0.0-1.0-454.0","0","0","81438","","null","","","null","50","","NaN","","","","","","","","","","","","","",""
"","response","","html-keyboard-response","333","485039","0.0-1.0-455.0-0.0","0","0","81438","","332","","","68","50","","","2","50","training","adjacent","CD","3","4","Q.jpg","N.jpg","1","1","1","",""
"","feedback","","html-keyboard-response","334","486041","0.0-1.0-456.0-0.0","0","0","81438","","null","","","null","50","","","","","","","","","","","","","","","",""
"","ITI","","html-keyboard-response","335","487043","0.0-1.0-459.0","0","0","81438","","151","","","75","50","","","","","","","","","","","","","","","k",""
"","S1","","html-keyboard-response","336","487295","0.0-1.0-461.0","0","0","81438","","null","","","null","51","","","","","","","","","","","","","","","",""
"","ISI","","html-keyboard-response","337","487797","0.0-1.0-462.0","0","0","81438","","null","","","null","51","NaN","","","","","","","","","","","","","","",""
"","S2","","html-keyboard-response","338","487832","0.0-1.0-463.0","0","0","81438","","33","","","68","51","","d","2","51","training","adjacent","BC","2","3","M.jpg","Q.jpg","1","1","1","",""
"","feedback","","html-keyboard-response","339","488838","0.0-1.0-465.0-0.0","0","0","81438","","null","","","null","51","","","","","","","","","","","","","","","",""
"","ITI","","html-keyboard-response","340","489838","0.0-1.0-468.0","0","0","81438","","200","","","75","51","","","","","","","","","","","","","","","k",""
"","S1","","html-keyboard-response","341","490094","0.0-1.0-470.0","0","0","81438","","null","","","null","52","","","","","","","","","","","","","","","",""
"","ISI","","html-keyboard-response","342","490595","0.0-1.0-471.0","0","0","81438","","null","","","null","52","NaN","","","","","","","","","","","","","","",""
"","S2","","html-keyboard-response","343","490847","0.0-1.0-472.0","0","0","81438","","null","","","null","52","","NaN","","","","","","","","","","","","","",""
"","response","","html-keyboard-response","344","490934","0.0-1.0-473.0-0.0","0","0","81438","","86","","","68","52","","","2","52","training","adjacent","BC","2","3","M.jpg","Q.jpg","1","1","1","",""
"","feedback","","html-keyboard-response","345","491936","0.0-1.0-474.0-0.0","0","0","81438","","null","","","null","52","","","","","","","","","","","","","","","",""
"","ITI","","html-keyboard-response","346","492939","0.0-1.0-477.0","0","0","81438","","320","","","68","52","","","","","","","","","","","","","","","d",""
"","S1","","html-keyboard-response","347","493191","0.0-1.0-479.0","0","0","81438","","null","","","null","53","","","","","","","","","","","","","","","",""
"","ISI","","html-keyboard-response","348","493693","0.0-1.0-480.0","0","0","81438","","12","","","75","53","k","","","","","","","","","","","","","","",""
"","S2","","html-keyboard-response","349","493862","0.0-1.0-481.0","0","0","81438","","168","","","75","53","","k","2","53","training","adjacent","DC","4","3","N.jpg","Q.jpg","0","0","1","",""
"","feedback","","html-keyboard-response","350","494865","0.0-1.0-483.0-0.0","0","0","81438","","null","","","null","53","","","","","","","","","","","","","","","",""
"","ITI","","html-keyboard-response","351","495867","0.0-1.0-486.0","0","0","81438","","315","","","68","53","","","","","","","","","","","","","","","d",""
"","S1","","html-keyboard-response","352","496119","0.0-1.0-488.0","0","0","81438","","null","","","null","54","","","","","","","","","","","","","","","",""
"","ISI","","html-keyboard-response","353","496620","0.0-1.0-489.0","0","0","81438","","86","","","75","54","k","","","","","","","","","","","","","","",""
"","S2","","html-keyboard-response","354","496661","0.0-1.0-490.0","0","0","81438","","39","","","68","54","","d","2","54","training","adjacent","GF","7","6","O.jpg","P.jpg","1","0","0","",""
"","feedback","","html-keyboard-response","355","497746","0.0-1.0-492.0-0.0","0","0","81438","","null","","","null","54","","","","","","","","","","","","","","","",""
"","time_out","","html-keyboard-response","356","499748","0.0-1.0-494.0-0.0","0","0","81438","","null","","","null","54","","","","","","","","","","","","","","","",""
"","ITI","","html-keyboard-response","357","500750","0.0-1.0-495.0","0","0","81438","","142","","","75","54","","","","","","","","","","","","","","","k",""
"","S1","","html-keyboard-response","358","501002","0.0-1.0-497.0","0","0","81438","","null","","","null","55","","","","","","","","","","","","","","","",""
"","ISI","","html-keyboard-response","359","501504","0.0-1.0-498.0","0","0","81438","","null","","","null","55","NaN","","","","","","","","","","","","","","",""
"","S2","","html-keyboard-response","360","501553","0.0-1.0-499.0","0","0","81438","","47","","","68","55","","d","2","55","training","adjacent","DE","4","5","N.jpg","L.jpg","1","1","1","",""
"","feedback","","html-keyboard-response","361","502557","0.0-1.0-501.0-0.0","0","0","81438","","null","","","null","55","","","","","","","","","","","","","","","",""
"","ITI","","html-keyboard-response","362","503558","0.0-1.0-504.0","0","0","81438","","146","","","68","55","","","","","","","","","","","","","","","d",""
"","S1","","html-keyboard-response","363","503811","0.0-1.0-506.0","0","0","81438","","null","","","null","56","","","","","","","","","","","","","","","",""
"","ISI","","html-keyboard-response","364","504312","0.0-1.0-507.0","0","0","81438","","273","","","75","56","k","","","","","","","","","","","","","","",""
"","S2","","html-keyboard-response","365","504405","0.0-1.0-508.0","0","0","81438","","91","","","68","56","","d","2","56","training","adjacent","FE","6","5","P.jpg","L.jpg","1","0","0","",""
"","feedback","","html-keyboard-response","366","505410","0.0-1.0-510.0-0.0","0","0","81438","","null","","","null","56","","","","","","","","","","","","","","","",""
"","time_out","","html-keyboard-response","367","507413","0.0-1.0-512.0-0.0","0","0","81438","","null","","","null","56","","","","","","","","","","","","","","","",""
"","ITI","","html-keyboard-response","368","508414","0.0-1.0-513.0","0","0","81438","","null","","","null","56","","","","","","","","","","","","","","","NaN",""
"","S1","","html-keyboard-response","369","508665","0.0-1.0-515.0","0","0","81438","","null","","","null","57","","","","","","","","","","","","","","","",""
"","ISI","","html-keyboard-response","370","509171","0.0-1.0-516.0","0","0","81438","","50","","","75","57","k","","","","","","","","","","","","","","",""
"","S2","","html-keyboard-response","371","509204","0.0-1.0-517.0","0","0","81438","","31","","","68","57","","d","2","57","training","adjacent","BA","2","1","M.jpg","R.jpg","1","0","0","",""
"","feedback","","html-keyboard-response","372","510206","0.0-1.0-519.0-0.0","0","0","81438","","null","","","null","57","","","","","","","","","","","","","","","",""
"","time_out","","html-keyboard-response","373","512209","0.0-1.0-521.0-0.0","0","0","81438","","null","","","null","57","","","","","","","","","","","","","","","",""
"","ITI","","html-keyboard-response","374","513210","0.0-1.0-522.0","0","0","81438","","439","","","68","57","","","","","","","","","","","","","","","d",""
"","S1","","html-keyboard-response","375","513463","0.0-1.0-524.0","0","0","81438","","null","","","null","58","","","","","","","","","","","","","","","",""
"","ISI","","html-keyboard-response","376","513964","0.0-1.0-525.0","0","0","81438","","114","","","75","58","k","","","","","","","","","","","","","","",""
"","S2","","html-keyboard-response","377","514217","0.0-1.0-526.0","0","0","81438","","null","","","null","58","","NaN","","","","","","","","","","","","","",""
"","response","","html-keyboard-response","378","514272","0.0-1.0-527.0-0.0","0","0","81438","","53","","","75","58","","","2","58","training","adjacent","FE","6","5","P.jpg","L.jpg","0","0","1","",""
"","feedback","","html-keyboard-response","379","515287","0.0-1.0-528.0-0.0","0","0","81438","","null","","","null","58","","","","","","","","","","","","","","","",""
"","ITI","","html-keyboard-response","380","516290","0.0-1.0-531.0","0","0","81438","","6","","","68","58","","","","","","","","","","","","","","","d",""
"","S1","","html-keyboard-response","381","516542","0.0-1.0-533.0","0","0","81438","","null","","","null","59","","","","","","","","","","","","","","","",""
"","ISI","","html-keyboard-response","382","517046","0.0-1.0-534.0","0","0","81438","","162","","","68","59","d","","","","","","","","","","","","","","",""
"","S2","","html-keyboard-response","383","517299","0.0-1.0-535.0","0","0","81438","","null","","","null","59","","NaN","","","","","","","","","","","","","",""
"","response","","html-keyboard-response","384","517471","0.0-1.0-536.0-0.0","0","0","81438","","171","","","75","59","","","2","59","training","adjacent","GF","7","6","O.jpg","P.jpg","0","0","1","",""
"","feedback","","html-keyboard-response","385","518473","0.0-1.0-537.0-0.0","0","0","81438","","null","","","null","59","","","","","","","","","","","","","","","",""
"","ITI","","html-keyboard-response","386","519474","0.0-1.0-540.0","0","0","81438","","649","","","68","59","","","","","","","","","","","","","","","d",""
"","S1","","html-keyboard-response","387","519726","0.0-1.0-542.0","0","0","81438","","null","","","null","60","","","","","","","","","","","","","","","",""
"","ISI","","html-keyboard-response","388","520227","0.0-1.0-543.0","0","0","81438","","383","","","68","60","d","","","","","","","","","","","","","","",""
"","S2","","html-keyboard-response","389","520413","0.0-1.0-544.0","0","0","81438","","184","","","75","60","","k","2","60","training","adjacent","ED","5","4","L.jpg","N.jpg","0","0","1","",""
"","feedback","","html-keyboard-response","390","521415","0.0-1.0-546.0-0.0","0","0","81438","","null","","","null","60","","","","","","","","","","","","","","","",""
"","ITI","","html-keyboard-response","391","522417","0.0-1.0-549.0","0","0","81438","","77","","","75","60","","","","","","","","","","","","","","","k",""
"","S1","","html-keyboard-response","392","522670","0.0-1.0-551.0","0","0","81438","","null","","","null","61","","","","","","","","","","","","","","","",""
"","ISI","","html-keyboard-response","393","523174","0.0-1.0-552.0","0","0","81438","","184","","","75","61","k","","","","","","","","","","","","","","",""
"","S2","","html-keyboard-response","394","523427","0.0-1.0-553.0","0","0","81438","","null","","","null","61","","NaN","","","","","","","","","","","","","",""
"","response","","html-keyboard-response","395","523698","0.0-1.0-554.0-0.0","0","0","81438","","270","","","68","61","","","2","61","training","adjacent","DE","4","5","N.jpg","L.jpg","1","1","1","",""
"","feedback","","html-keyboard-response","396","524702","0.0-1.0-555.0-0.0","0","0","81438","","null","","","null","61","","","","","","","","","","","","","","","",""
"","ITI","","html-keyboard-response","397","525704","0.0-1.0-558.0","0","0","81438","","240","","","75","61","","","","","","","","","","","","","","","k",""
"","S1","","html-keyboard-response","398","525956","0.0-1.0-560.0","0","0","81438","","null","","","null","62","","","","","","","","","","","","","","","",""
"","ISI","","html-keyboard-response","399","526458","0.0-1.0-561.0","0","0","81438","","153","","","68","62","d","","","","","","","","","","","","","","",""
"","S2","","html-keyboard-response","400","526710","0.0-1.0-562.0","0","0","81438","","null","","","null","62","","NaN","","","","","","","","","","","","","",""
"","response","","html-keyboard-response","401","526862","0.0-1.0-563.0-0.0","0","0","81438","","150","","","75","62","","","2","62","training","adjacent","CD","3","4","Q.jpg","N.jpg","0","1","0","",""
"","feedback","","html-keyboard-response","402","527865","0.0-1.0-564.0-0.0","0","0","81438","","null","","","null","62","","","","","","","","","","","","","","","",""
"","time_out","","html-keyboard-response","403","529868","0.0-1.0-566.0-0.0","0","0","81438","","null","","","null","62","","","","","","","","","","","","","","","",""
"","ITI","","html-keyboard-response","404","530869","0.0-1.0-567.0","0","0","81438","","null","","","null","62","","","","","","","","","","","","","","","NaN",""
"","S1","","html-keyboard-response","405","531120","0.0-1.0-569.0","0","0","81438","","null","","","null","63","","","","","","","","","","","","","","","",""
"","ISI","","html-keyboard-response","406","531622","0.0-1.0-570.0","0","0","81438","","null","","","null","63","NaN","","","","","","","","","","","","","","",""
"","S2","","html-keyboard-response","407","531874","0.0-1.0-571.0","0","0","81438","","null","","","null","63","","NaN","","","","","","","","","","","","","",""
"","response","","html-keyboard-response","408","532217","0.0-1.0-572.0-0.0","0","0","81438","","339","","","68","63","","","2","63","training","adjacent","AB","1","2","R.jpg","M.jpg","1","1","1","",""
"","feedback","","html-keyboard-response","409","533220","0.0-1.0-573.0-0.0","0","0","81438","","null","","","null","63","","","","","","","","","","","","","","","",""
"","ITI","","html-keyboard-response","410","534224","0.0-1.0-576.0","0","0","81438","","318","","","68","63","","","","","","","","","","","","","","","d",""
"","S1","","html-keyboard-response","411","534476","0.0-1.0-578.0","0","0","81438","","null","","","null","64","","","","","","","","","","","","","","","",""
"","ISI","","html-keyboard-response","412","534977","0.0-1.0-579.0","0","0","81438","","null","","","null","64","NaN","","","","","","","","","","","","","","",""
"","S2","","html-keyboard-response","413","535229","0.0-1.0-580.0","0","0","81438","","null","","","null","64","","NaN","","","","","","","","","","","","","",""
"","response","","html-keyboard-response","414","535711","0.0-1.0-581.0-0.0","0","0","81438","","480","","","68","64","","","2","64","training","adjacent","CD","3","4","Q.jpg","N.jpg","1","1","1","",""
"","feedback","","html-keyboard-response","415","536714","0.0-1.0-582.0-0.0","0","0","81438","","null","","","null","64","","","","","","","","","","","","","","","",""
"","ITI","","html-keyboard-response","416","537715","0.0-1.0-585.0","0","0","81438","","null","","","null","64","","","","","","","","","","","","","","","NaN",""
"","S1","","html-keyboard-response","417","537978","0.0-1.0-587.0","0","0","81438","","null","","","null","65","","","","","","","","","","","","","","","",""
"","ISI","","html-keyboard-response","418","538478","0.0-1.0-588.0","0","0","81438","","null","","","null","65","NaN","","","","","","","","","","","","","","",""
"","S2","","html-keyboard-response","419","538731","0.0-1.0-589.0","0","0","81438","","null","","","null","65","","NaN","","","","","","","","","","","","","",""
"","response","","html-keyboard-response","420","541441","0.0-1.0-590.0-0.0","0","0","81438","","null","","","null","65","","","2","65","training","adjacent","CB","3","2","Q.jpg","M.jpg","NaN","0","0","",""
"","too_slow_prompt","","html-keyboard-response","421","543435","0.0-1.0-592.0-0.0","1","0","81438","","null","","","null","","","","","","","","","","","","","","","","",""
"","time_out","","html-keyboard-response","422","546435","0.0-1.0-593.0-0.0","0","0","81438","","null","","","null","65","","","","","","","","","","","","","","","",""
"","ITI","","html-keyboard-response","423","548454","0.0-1.0-594.0","0","0","81438","","null","","","null","65","","","","","","","","","","","","","","","NaN",""
"","S1","","html-keyboard-response","424","549438","0.0-1.0-596.0","0","0","81438","","null","","","null","66","","","","","","","","","","","","","","","",""
"","ISI","","html-keyboard-response","425","550458","0.0-1.0-597.0","0","0","81438","","null","","","null","66","NaN","","","","","","","","","","","","","","",""
"","S2","","html-keyboard-response","426","551435","0.0-1.0-598.0","0","0","81438","","null","","","null","66","","NaN","","","","","","","","","","","","","",""
"","response","","html-keyboard-response","427","553508","0.0-1.0-599.0-0.0","0","0","81438","","null","","","null","66","","","2","66","training","adjacent","BA","2","1","M.jpg","R.jpg","NaN","0","0","",""
"","too_slow_prompt","","html-keyboard-response","428","555450","0.0-1.0-601.0-0.0","1","0","81438","","null","","","null","","","","","","","","","","","","","","","","",""
"","time_out","","html-keyboard-response","429","558436","0.0-1.0-602.0-0.0","0","0","81438","","null","","","null","66","","","","","","","","","","","","","","","",""
"","ITI","","html-keyboard-response","430","560499","0.0-1.0-603.0","0","0","81438","","null","","","null","66","","","","","","","","","","","","","","","NaN",""
"","S1","","html-keyboard-response","431","561442","0.0-1.0-605.0","0","0","81438","","null","","","null","67","","","","","","","","","","","","","","","",""
"","ISI","","html-keyboard-response","432","562436","0.0-1.0-606.0","0","0","81438","","null","","","null","67","NaN","","","","","","","","","","","","","","",""
"","S2","","html-keyboard-response","433","563436","0.0-1.0-607.0","0","0","81438","","null","","","null","67","","NaN","","","","","","","","","","","","","",""
"","response","","html-keyboard-response","434","565438","0.0-1.0-608.0-0.0","0","0","81438","","null","","","null","67","","","2","67","training","adjacent","BA","2","1","M.jpg","R.jpg","NaN","0","0","",""
"","too_slow_prompt","","html-keyboard-response","435","567452","0.0-1.0-610.0-0.0","1","0","81438","","null","","","null","","","","","","","","","","","","","","","","",""
"","time_out","","html-keyboard-response","436","570434","0.0-1.0-611.0-0.0","0","0","81438","","null","","","null","67","","","","","","","","","","","","","","","",""
"","ITI","","html-keyboard-response","437","572450","0.0-1.0-612.0","0","0","81438","","null","","","null","67","","","","","","","","","","","","","","","NaN",""
"","S1","","html-keyboard-response","438","573435","0.0-1.0-614.0","0","0","81438","","null","","","null","68","","","","","","","","","","","","","","","",""
"","ISI","","html-keyboard-response","439","574451","0.0-1.0-615.0","0","0","81438","","null","","","null","68","NaN","","","","","","","","","","","","","","",""
"","S2","","html-keyboard-response","440","575446","0.0-1.0-616.0","0","0","81438","","null","","","null","68","","NaN","","","","","","","","","","","","","",""
"","response","","html-keyboard-response","441","577478","0.0-1.0-617.0-0.0","0","0","81438","","null","","","null","68","","","2","68","training","adjacent","BA","2","1","M.jpg","R.jpg","NaN","0","0","",""
"","too_slow_prompt","","html-keyboard-response","442","579443","0.0-1.0-619.0-0.0","1","0","81438","","null","","","null","","","","","","","","","","","","","","","","",""
"","time_out","","html-keyboard-response","443","582435","0.0-1.0-620.0-0.0","0","0","81438","","null","","","null","68","","","","","","","","","","","","","","","",""
"","ITI","","html-keyboard-response","444","584435","0.0-1.0-621.0","0","0","81438","","null","","","null","68","","","","","","","","","","","","","","","NaN",""
"","S1","","html-keyboard-response","445","585434","0.0-1.0-623.0","0","0","81438","","null","","","null","69","","","","","","","","","","","","","","","",""
"","ISI","","html-keyboard-response","446","586439","0.0-1.0-624.0","0","0","81438","","null","","","null","69","NaN","","","","","","","","","","","","","","",""
"","S2","","html-keyboard-response","447","587436","0.0-1.0-625.0","0","0","81438","","null","","","null","69","","NaN","","","","","","","","","","","","","",""
"","response","","html-keyboard-response","448","589435","0.0-1.0-626.0-0.0","0","0","81438","","null","","","null","69","","","2","69","training","adjacent","FE","6","5","P.jpg","L.jpg","NaN","0","0","",""
"","too_slow_prompt","","html-keyboard-response","449","591454","0.0-1.0-628.0-0.0","1","0","81438","","null","","","null","","","","","","","","","","","","","","","","",""
"","time_out","","html-keyboard-response","450","593455","0.0-1.0-629.0-0.0","0","0","81438","","null","","","null","69","","","","","","","","","","","","","","","",""
"","ITI","","html-keyboard-response","451","594456","0.0-1.0-630.0","0","0","81438","","null","","","null","69","","","","","","","","","","","","","","","NaN",""
"","S1","","html-keyboard-response","452","594708","0.0-1.0-632.0","0","0","81438","","null","","","null","70","","","","","","","","","","","","","","","",""
"","ISI","","html-keyboard-response","453","595210","0.0-1.0-633.0","0","0","81438","","344","","","68","70","d","","","","","","","","","","","","","","",""
"","S2","","html-keyboard-response","454","595461","0.0-1.0-634.0","0","0","81438","","null","","","null","70","","NaN","","","","","","","","","","","","","",""
"","response","","html-keyboard-response","455","595485","0.0-1.0-635.0-0.0","0","0","81438","","22","","","75","70","","","2","70","training","adjacent","DC","4","3","N.jpg","Q.jpg","0","0","1","",""
"","feedback","","html-keyboard-response","456","596489","0.0-1.0-636.0-0.0","0","0","81438","","null","","","null","70","","","","","","","","","","","","","","","",""
"","ITI","","html-keyboard-response","457","597491","0.0-1.0-639.0","0","0","81438","","92","","","68","70","","","","","","","","","","","","","","","d",""
"","S1","","html-keyboard-response","458","597744","0.0-1.0-641.0","0","0","81438","","null","","","null","71","","","","","","","","","","","","","","","",""
"","ISI","","html-keyboard-response","459","598246","0.0-1.0-642.0","0","0","81438","","276","","","75","71","k","","","","","","","","","","","","","","",""
"","S2","","html-keyboard-response","460","598493","0.0-1.0-643.0","0","0","81438","","246","","","75","71","","k","2","71","training","adjacent","GF","7","6","O.jpg","P.jpg","0","0","1","",""
"","feedback","","html-keyboard-response","461","599496","0.0-1.0-645.0-0.0","0","0","81438","","null","","","null","71","","","","","","","","","","","","","","","",""
"","ITI","","html-keyboard-response","462","600498","0.0-1.0-648.0","0","0","81438","","546","","","75","71","","","","","","","","","","","","","","","k",""
"","S1","","html-keyboard-response","463","600750","0.0-1.0-650.0","0","0","81438","","null","","","null","72","","","","","","","","","","","","","","","",""
"","ISI","","html-keyboard-response","464","601253","0.0-1.0-651.0","0","0","81438","","null","","","null","72","NaN","","","","","","","","","","","","","","",""
"","S2","","html-keyboard-response","465","601393","0.0-1.0-652.0","0","0","81438","","137","","","68","72","","d","2","72","training","adjacent","CB","3","2","Q.jpg","M.jpg","1","0","0","",""
"","feedback","","html-keyboard-response","466","602394","0.0-1.0-654.0-0.0","0","0","81438","","null","","","null","72","","","","","","","","","","","","","","","",""
"","time_out","","html-keyboard-response","467","604396","0.0-1.0-656.0-0.0","0","0","81438","","null","","","null","72","","","","","","","","","","","","","","","",""
"","ITI","","html-keyboard-response","468","605398","0.0-1.0-657.0","0","0","81438","","520","","","68","72","","","","","","","","","","","","","","","d",""
"","S1","","html-keyboard-response","469","605650","0.0-1.0-659.0","0","0","81438","","null","","","null","73","","","","","","","","","","","","","","","",""
"","ISI","","html-keyboard-response","470","606151","0.0-1.0-660.0","0","0","81438","","358","","","68","73","d","","","","","","","","","","","","","","",""
"","S2","","html-keyboard-response","471","606298","0.0-1.0-661.0","0","0","81438","","145","","","75","73","","k","2","73","training","adjacent","DC","4","3","N.jpg","Q.jpg","0","0","1","",""
"","feedback","","html-keyboard-response","472","607301","0.0-1.0-663.0-0.0","0","0","81438","","null","","","null","73","","","","","","","","","","","","","","","",""
"","ITI","","html-keyboard-response","473","608304","0.0-1.0-666.0","0","0","81438","","610","","","68","73","","","","","","","","","","","","","","","d",""
"","S1","","html-keyboard-response","474","608556","0.0-1.0-668.0","0","0","81438","","null","","","null","74","","","","","","","","","","","","","","","",""
"","ISI","","html-keyboard-response","475","609058","0.0-1.0-669.0","0","0","81438","","413","","","68","74","d","","","","","","","","","","","","","","",""
"","S2","","html-keyboard-response","476","609193","0.0-1.0-670.0","0","0","81438","","133","","","75","74","","k","2","74","training","adjacent","FG","6","7","P.jpg","O.jpg","0","1","0","",""
"","feedback","","html-keyboard-response","477","610195","0.0-1.0-672.0-0.0","0","0","81438","","null","","","null","74","","","","","","","","","","","","","","","",""
"","time_out","","html-keyboard-response","478","612200","0.0-1.0-674.0-0.0","0","0","81438","","null","","","null","74","","","","","","","","","","","","","","","",""
"","ITI","","html-keyboard-response","479","613210","0.0-1.0-675.0","0","0","81438","","291","","","68","74","","","","","","","","","","","","","","","d",""
"","S1","","html-keyboard-response","480","613463","0.0-1.0-677.0","0","0","81438","","null","","","null","75","","","","","","","","","","","","","","","",""
"","ISI","","html-keyboard-response","481","613963","0.0-1.0-678.0","0","0","81438","","422","","","68","75","d","","","","","","","","","","","","","","",""
"","S2","","html-keyboard-response","482","614149","0.0-1.0-679.0","0","0","81438","","184","","","75","75","","k","2","75","training","adjacent","DC","4","3","N.jpg","Q.jpg","0","0","1","",""
"","feedback","","html-keyboard-response","483","615152","0.0-1.0-681.0-0.0","0","0","81438","","null","","","null","75","","","","","","","","","","","","","","","",""
"","ITI","","html-keyboard-response","484","616155","0.0-1.0-684.0","0","0","81438","","null","","","null","75","","","","","","","","","","","","","","","NaN",""
"","S1","","html-keyboard-response","485","616407","0.0-1.0-686.0","0","0","81438","","null","","","null","76","","","","","","","","","","","","","","","",""
"","ISI","","html-keyboard-response","486","616909","0.0-1.0-687.0","0","0","81438","","409","","","68","76","d","","","","","","","","","","","","","","",""
"","S2","","html-keyboard-response","487","616956","0.0-1.0-688.0","0","0","81438","","45","","","75","76","","k","2","76","training","adjacent","AB","1","2","R.jpg","M.jpg","0","1","0","",""
"","feedback","","html-keyboard-response","488","617967","0.0-1.0-690.0-0.0","0","0","81438","","null","","","null","76","","","","","","","","","","","","","","","",""
"","time_out","","html-keyboard-response","489","619970","0.0-1.0-692.0-0.0","0","0","81438","","null","","","null","76","","","","","","","","","","","","","","","",""
"","ITI","","html-keyboard-response","490","620972","0.0-1.0-693.0","0","0","81438","","null","","","null","76","","","","","","","","","","","","","","","NaN",""
"","S1","","html-keyboard-response","491","621225","0.0-1.0-695.0","0","0","81438","","null","","","null","77","","","","","","","","","","","","","","","",""
"","ISI","","html-keyboard-response","492","621726","0.0-1.0-696.0","0","0","81438","","393","","","68","77","d","","","","","","","","","","","","","","",""
"","S2","","html-keyboard-response","493","621929","0.0-1.0-697.0","0","0","81438","","200","","","75","77","","k","2","77","training","adjacent","GF","7","6","O.jpg","P.jpg","0","0","1","",""
"","feedback","","html-keyboard-response","494","622931","0.0-1.0-699.0-0.0","0","0","81438","","null","","","null","77","","","","","","","","","","","","","","","",""
"","ITI","","html-keyboard-response","495","623934","0.0-1.0-702.0","0","0","81438","","null","","","null","77","","","","","","","","","","","","","","","NaN",""
"","S1","","html-keyboard-response","496","624188","0.0-1.0-704.0","0","0","81438","","null","","","null","78","","","","","","","","","","","","","","","",""
"","ISI","","html-keyboard-response","497","624690","0.0-1.0-705.0","0","0","81438","","88","","","75","78","k","","","","","","","","","","","","","","",""
"","S2","","html-keyboard-response","498","624942","0.0-1.0-706.0","0","0","81438","","null","","","null","78","","NaN","","","","","","","","","","","","","",""
"","response","","html-keyboard-response","499","625059","0.0-1.0-707.0-0.0","0","0","81438","","115","","","68","78","","","2","78","training","adjacent","AB","1","2","R.jpg","M.jpg","1","1","1","",""
"","feedback","","html-keyboard-response","500","626063","0.0-1.0-708.0-0.0","0","0","81438","","null","","","null","78","","","","","","","","","","","","","","","",""
"","ITI","","html-keyboard-response","501","627079","0.0-1.0-711.0","0","0","81438","","294","","","68","78","","","","","","","","","","","","","","","d",""
"","S1","","html-keyboard-response","502","627331","0.0-1.0-713.0","0","0","81438","","null","","","null","79","","","","","","","","","","","","","","","",""
"","ISI","","html-keyboard-response","503","627833","0.0-1.0-714.0","0","0","81438","","267","","","68","79","d","","","","","","","","","","","","","","",""
"","S2","","html-keyboard-response","504","627996","0.0-1.0-715.0","0","0","81438","","160","","","75","79","","k","2","79","training","adjacent","BC","2","3","M.jpg","Q.jpg","0","1","0","",""
"","feedback","","html-keyboard-response","505","629002","0.0-1.0-717.0-0.0","0","0","81438","","null","","","null","79","","","","","","","","","","","","","","","",""
"","time_out","","html-keyboard-response","506","631004","0.0-1.0-719.0-0.0","0","0","81438","","null","","","null","79","","","","","","","","","","","","","","","",""
"","ITI","","html-keyboard-response","507","632006","0.0-1.0-720.0","0","0","81438","","628","","","75","79","","","","","","","","","","","","","","","k",""
"","S1","","html-keyboard-response","508","632258","0.0-1.0-722.0","0","0","81438","","null","","","null","80","","","","","","","","","","","","","","","",""
"","ISI","","html-keyboard-response","509","632759","0.0-1.0-723.0","0","0","81438","","383","","","75","80","k","","","","","","","","","","","","","","",""
"","S2","","html-keyboard-response","510","632897","0.0-1.0-724.0","0","0","81438","","136","","","68","80","","d","2","80","training","adjacent","BC","2","3","M.jpg","Q.jpg","1","1","1","",""
"","feedback","","html-keyboard-response","511","633901","0.0-1.0-726.0-0.0","0","0","81438","","null","","","null","80","","","","","","","","","","","","","","","",""
"","ITI","","html-keyboard-response","512","634903","0.0-1.0-729.0","0","0","81438","","280","","","68","80","","","","","","","","","","","","","","","d",""
"","S1","","html-keyboard-response","513","635156","0.0-1.0-731.0","0","0","81438","","null","","","null","81","","","","","","","","","","","","","","","",""
"","ISI","","html-keyboard-response","514","635658","0.0-1.0-732.0","0","0","81438","","224","","","68","81","d","","","","","","","","","","","","","","",""
"","S2","","html-keyboard-response","515","635858","0.0-1.0-733.0","0","0","81438","","194","","","75","81","","k","2","81","training","adjacent","EF","5","6","L.jpg","P.jpg","0","1","0","",""
"","feedback","","html-keyboard-response","516","636861","0.0-1.0-735.0-0.0","0","0","81438","","null","","","null","81","","","","","","","","","","","","","","","",""
"","time_out","","html-keyboard-response","517","638862","0.0-1.0-737.0-0.0","0","0","81438","","null","","","null","81","","","","","","","","","","","","","","","",""
"","ITI","","html-keyboard-response","518","639866","0.0-1.0-738.0","0","0","81438","","472","","","68","81","","","","","","","","","","","","","","","d",""
"","S1","","html-keyboard-response","519","640118","0.0-1.0-740.0","0","0","81438","","null","","","null","82","","","","","","","","","","","","","","","",""
"","ISI","","html-keyboard-response","520","640621","0.0-1.0-741.0","0","0","81438","","null","","","null","82","NaN","","","","","","","","","","","","","","",""
"","S2","","html-keyboard-response","521","640873","0.0-1.0-742.0","0","0","81438","","null","","","null","82","","NaN","","","","","","","","","","","","","",""
"","response","","html-keyboard-response","522","641346","0.0-1.0-743.0-0.0","0","0","81438","","471","","","68","82","","","2","82","training","adjacent","ED","5","4","L.jpg","N.jpg","1","0","0","",""
"","feedback","","html-keyboard-response","523","642348","0.0-1.0-744.0-0.0","0","0","81438","","null","","","null","82","","","","","","","","","","","","","","","",""
"","time_out","","html-keyboard-response","524","644356","0.0-1.0-746.0-0.0","0","0","81438","","null","","","null","82","","","","","","","","","","","","","","","",""
"","ITI","","html-keyboard-response","525","645358","0.0-1.0-747.0","0","0","81438","","null","","","null","82","","","","","","","","","","","","","","","NaN",""
"","S1","","html-keyboard-response","526","645611","0.0-1.0-749.0","0","0","81438","","null","","","null","83","","","","","","","","","","","","","","","",""
"","ISI","","html-keyboard-response","527","646113","0.0-1.0-750.0","0","0","81438","","null","","","null","83","NaN","","","","","","","","","","","","","","",""
"","S2","","html-keyboard-response","528","646130","0.0-1.0-751.0","0","0","81438","","16","","","68","83","","d","2","83","training","adjacent","FG","6","7","P.jpg","O.jpg","1","1","1","",""
"","feedback","","html-keyboard-response","529","647133","0.0-1.0-753.0-0.0","0","0","81438","","null","","","null","83","","","","","","","","","","","","","","","",""
"","ITI","","html-keyboard-response","530","648135","0.0-1.0-756.0","0","0","81438","","null","","","null","83","","","","","","","","","","","","","","","NaN",""
"","S1","","html-keyboard-response","531","648386","0.0-1.0-758.0","0","0","81438","","null","","","null","84","","","","","","","","","","","","","","","",""
"","ISI","","html-keyboard-response","532","648888","0.0-1.0-759.0","0","0","81438","","248","","","75","84","k","","","","","","","","","","","","","","",""
"","S2","","html-keyboard-response","533","649140","0.0-1.0-760.0","0","0","81438","","null","","","null","84","","NaN","","","","","","","","","","","","","",""
"","response","","html-keyboard-response","534","649858","0.0-1.0-761.0-0.0","0","0","81438","","716","","","75","84","","","2","84","training","adjacent","ED","5","4","L.jpg","N.jpg","0","0","1","",""
"","feedback","","html-keyboard-response","535","650862","0.0-1.0-762.0-0.0","0","0","81438","","null","","","null","84","","","","","","","","","","","","","","","",""
"","ITI","","html-keyboard-response","536","651865","0.0-1.0-765.0","0","0","81438","","17","","","68","84","","","","","","","","","","","","","","","d",""
"","S1","","html-keyboard-response","537","652116","0.0-1.0-767.0","0","0","81438","","null","","","null","85","","","","","","","","","","","","","","","",""
"","ISI","","html-keyboard-response","538","652619","0.0-1.0-768.0","0","0","81438","","null","","","null","85","NaN","","","","","","","","","","","","","","",""
"","S2","","html-keyboard-response","539","652872","0.0-1.0-769.0","0","0","81438","","null","","","null","85","","NaN","","","","","","","","","","","","","",""
"","response","","html-keyboard-response","540","652889","0.0-1.0-770.0-0.0","0","0","81438","","16","","","68","85","","","2","85","training","adjacent","EF","5","6","L.jpg","P.jpg","1","1","1","",""
"","feedback","","html-keyboard-response","541","653891","0.0-1.0-771.0-0.0","0","0","81438","","null","","","null","85","","","","","","","","","","","","","","","",""
"","ITI","","html-keyboard-response","542","654894","0.0-1.0-774.0","0","0","81438","","127","","","75","85","","","","","","","","","","","","","","","k",""
"","S1","","html-keyboard-response","543","655146","0.0-1.0-776.0","0","0","81438","","null","","","null","86","","","","","","","","","","","","","","","",""
"","ISI","","html-keyboard-response","544","655648","0.0-1.0-777.0","0","0","81438","","396","","","75","86","k","","","","","","","","","","","","","","",""
"","S2","","html-keyboard-response","545","655765","0.0-1.0-778.0","0","0","81438","","114","","","68","86","","d","2","86","training","adjacent","FG","6","7","P.jpg","O.jpg","1","1","1","",""
"","feedback","","html-keyboard-response","546","656768","0.0-1.0-780.0-0.0","0","0","81438","","null","","","null","86","","","","","","","","","","","","","","","",""
"","ITI","","html-keyboard-response","547","657771","0.0-1.0-783.0","0","0","81438","","551","","","68","86","","","","","","","","","","","","","","","d",""
"","S1","","html-keyboard-response","548","658023","0.0-1.0-785.0","0","0","81438","","null","","","null","87","","","","","","","","","","","","","","","",""
"","ISI","","html-keyboard-response","549","658527","0.0-1.0-786.0","0","0","81438","","41","","","68","87","d","","","","","","","","","","","","","","",""
"","S2","","html-keyboard-response","550","658750","0.0-1.0-787.0","0","0","81438","","220","","","68","87","","d","2","87","training","adjacent","CD","3","4","Q.jpg","N.jpg","1","1","1","",""
"","feedback","","html-keyboard-response","551","659752","0.0-1.0-789.0-0.0","0","0","81438","","null","","","null","87","","","","","","","","","","","","","","","",""
"","ITI","","html-keyboard-response","552","660755","0.0-1.0-792.0","0","0","81438","","681","","","75","87","","","","","","","","","","","","","","","k",""
"","S1","","html-keyboard-response","553","661012","0.0-1.0-794.0","0","0","81438","","null","","","null","88","","","","","","","","","","","","","","","",""
"","ISI","","html-keyboard-response","554","661514","0.0-1.0-795.0","0","0","81438","","497","","","75","88","k","","","","","","","","","","","","","","",""
"","S2","","html-keyboard-response","555","661688","0.0-1.0-796.0","0","0","81438","","174","","","68","88","","d","2","88","training","adjacent","ED","5","4","L.jpg","N.jpg","1","0","0","",""
"","feedback","","html-keyboard-response","556","662691","0.0-1.0-798.0-0.0","0","0","81438","","null","","","null","88","","","","","","","","","","","","","","","",""
"","time_out","","html-keyboard-response","557","664697","0.0-1.0-800.0-0.0","0","0","81438","","null","","","null","88","","","","","","","","","","","","","","","",""
"","ITI","","html-keyboard-response","558","665700","0.0-1.0-801.0","0","0","81438","","null","","","null","88","","","","","","","","","","","","","","","NaN",""
"","S1","","html-keyboard-response","559","666434","0.0-1.0-803.0","0","0","81438","","null","","","null","89","","","","","","","","","","","","","","","",""
"","ISI","","html-keyboard-response","560","667435","0.0-1.0-804.0","0","0","81438","","null","","","null","89","NaN","","","","","","","","","","","","","","",""
"","S2","","html-keyboard-response","561","667686","0.0-1.0-805.0","0","0","81438","","null","","","null","89","","NaN","","","","","","","","","","","","","",""
"","response","","html-keyboard-response","562","669270","0.0-1.0-806.0-0.0","0","0","81438","","1581","","","68","89","","","2","89","training","adjacent","FE","6","5","P.jpg","L.jpg","1","0","0","",""
"","feedback","","html-keyboard-response","563","670273","0.0-1.0-807.0-0.0","0","0","81438","","null","","","null","89","","","","","","","","","","","","","","","",""
"","time_out","","html-keyboard-response","564","672274","0.0-1.0-809.0-0.0","0","0","81438","","null","","","null","89","","","","","","","","","","","","","","","",""
"","ITI","","html-keyboard-response","565","673277","0.0-1.0-810.0","0","0","81438","","111","","","75","89","","","","","","","","","","","","","","","k",""
"","S1","","html-keyboard-response","566","673531","0.0-1.0-812.0","0","0","81438","","null","","","null","90","","","","","","","","","","","","","","","",""
"","ISI","","html-keyboard-response","567","674033","0.0-1.0-813.0","0","0","81438","","98","","","75","90","k","","","","","","","","","","","","","","",""
"","S2","","html-keyboard-response","568","674146","0.0-1.0-814.0","0","0","81438","","111","","","68","90","","d","2","90","training","adjacent","AB","1","2","R.jpg","M.jpg","1","1","1","",""
"","feedback","","html-keyboard-response","569","675148","0.0-1.0-816.0-0.0","0","0","81438","","null","","","null","90","","","","","","","","","","","","","","","",""
"","ITI","","html-keyboard-response","570","676149","0.0-1.0-819.0","0","0","81438","","null","","","null","90","","","","","","","","","","","","","","","NaN",""
"","S1","","html-keyboard-response","571","676401","0.0-1.0-821.0","0","0","81438","","null","","","null","91","","","","","","","","","","","","","","","",""
"","ISI","","html-keyboard-response","572","676903","0.0-1.0-822.0","0","0","81438","","390","","","68","91","d","","","","","","","","","","","","","","",""
"","S2","","html-keyboard-response","573","677105","0.0-1.0-823.0","0","0","81438","","200","","","75","91","","k","2","91","training","adjacent","FG","6","7","P.jpg","O.jpg","0","1","0","",""
"","feedback","","html-keyboard-response","574","678106","0.0-1.0-825.0-0.0","0","0","81438","","null","","","null","91","","","","","","","","","","","","","","","",""
"","time_out","","html-keyboard-response","575","680109","0.0-1.0-827.0-0.0","0","0","81438","","null","","","null","91","","","","","","","","","","","","","","","",""
