"success","ttype","start_time","trial_type","trial_index","time_elapsed","internal_node_id","warning","missed_checkup","PID","view_history","rt","responses","repeat_instructions","key_press","index","keypress_isi","keypress_S2","block","trial_num","phase","group_type","pair_type","S1_stim","S2_stim","S1_img","S2_img","S1_chosen","S1_higher","accuracy","keypress_iti","total_bonus_tally"
"true","full_screen","d03072023hr1748","fullscreen","0","10143","0.0-0.0","0","0","53548","","","","","","","","","","","","","","","","","","","","","",""
"","instructions","","instructions","1","102351","0.0-1.0-0.0-0.0","0","0","53548","[{""page_index"":0,""viewing_time"":7729},{""page_index"":1,""viewing_time"":54408},{""page_index"":2,""viewing_time"":26478},{""page_index"":3,""viewing_time"":3586}]","92202","","","","","","","","","","","","","","","","","","","",""
"","comprehension_check","","survey-multi-choice","2","174040","0.0-1.0-0.0-1.0","0","0","53548","","71666","{""Q0"":""False"",""Q1"":""D"",""Q2"":""Once the second image appears and while the screen 'MAKE A CHOICE' is shown"",""Q3"":""Green mark"",""Q4"":""either D or K""}","1","","","","","","","","","","","","","","","","","",""
"","missed_instruction_checkup","","html-keyboard-response","3","178448","0.0-1.0-0.0-2.0-0.0","0","1","53548","","4404","","","32","","","","","","","","","","","","","","","","",""
"","instructions","","instructions","4","198707","0.0-1.0-0.1-0.1","0","0","53548","[{""page_index"":0,""viewing_time"":10479},{""page_index"":1,""viewing_time"":6158},{""page_index"":2,""viewing_time"":2298},{""page_index"":3,""viewing_time"":1316}]","20251","","","","","","","","","","","","","","","","","","","",""
"","comprehension_check","","survey-multi-choice","5","211709","0.0-1.0-0.1-1.1","0","0","53548","","12982","{""Q0"":""True"",""Q1"":"""",""Q2"":""Once the second image appears and while the screen 'MAKE A CHOICE' is shown"",""Q3"":""Green mark"",""Q4"":""either D or K""}","1","","","","","","","","","","","","","","","","","",""
"","missed_instruction_checkup","","html-keyboard-response","6","214342","0.0-1.0-0.1-2.1-0.1","0","1","53548","","2625","","","32","","","","","","","","","","","","","","","","",""
"","instructions","","instructions","7","251709","0.0-1.0-0.2-0.2","0","0","53548","[{""page_index"":0,""viewing_time"":7221},{""page_index"":1,""viewing_time"":19217},{""page_index"":2,""viewing_time"":9722},{""page_index"":3,""viewing_time"":1200}]","37361","","","","","","","","","","","","","","","","","","","",""
"","comprehension_check","","survey-multi-choice","8","339248","0.0-1.0-0.2-1.2","0","0","53548","","87523","{""Q0"":""True"",""Q1"":""D"",""Q2"":""Once the second image appears and while the screen 'MAKE A CHOICE' is shown"",""Q3"":""Green mark"",""Q4"":""either D or K""}","0","","","","","","","","","","","","","","","","","",""
"","start_exp","","html-keyboard-response","9","342392","0.0-1.0-1.0","0","0","53548","","3136","","","32","","","","","","","","","","","","","","","","",""
"","S1","","html-keyboard-response","10","342671","0.0-1.0-2.0","0","0","53548","","null","","","null","0","","","","","","","","","","","","","","","",""
"","ISI","","html-keyboard-response","11","343688","0.0-1.0-3.0","0","0","53548","","null","","","null","0","NaN","","","","","","","","","","","","","","",""
"","S2","","html-keyboard-response","12","343954","0.0-1.0-4.0","0","0","53548","","null","","","null","0","","NaN","","","","","","","","","","","","","",""
"","response","","html-keyboard-response","13","345724","0.0-1.0-5.0-0.0","0","0","53548","","null","","","null","0","","","1","0","training","adjacent","GF","7","6","P.jpg","R.jpg","NaN","0","0","",""
"","too_slow_prompt","","html-keyboard-response","14","346734","0.0-1.0-7.0-0.0","1","0","53548","","null","","","null","","","","","","","","","","","","","","","","",""
"","time_out","","html-keyboard-response","15","348741","0.0-1.0-8.0-0.0","0","0","53548","","null","","","null","0","","","","","","","","","","","","","","","",""
"","ITI","","html-keyboard-response","16","349755","0.0-1.0-9.0","0","0","53548","","null","","","null","0","","","","","","","","","","","","","","","NaN",""
"","S1","","html-keyboard-response","17","350018","0.0-1.0-11.0","0","0","53548","","null","","","null","1","","","","","","","","","","","","","","","",""
"","ISI","","html-keyboard-response","18","351033","0.0-1.0-12.0","0","0","53548","","null","","","null","1","NaN","","","","","","","","","","","","","","",""
"","S2","","html-keyboard-response","19","351299","0.0-1.0-13.0","0","0","53548","","null","","","null","1","","NaN","","","","","","","","","","","","","",""
"","response","","html-keyboard-response","20","351882","0.0-1.0-14.0-0.0","0","0","53548","","579","","","68","1","","","1","1","training","adjacent","BA","2","1","O.jpg","L.jpg","1","0","0","",""
"","feedback","","html-keyboard-response","21","352889","0.0-1.0-15.0-0.0","0","0","53548","","null","","","null","1","","","","","","","","","","","","","","","",""
"","time_out","","html-keyboard-response","22","354900","0.0-1.0-17.0-0.0","0","0","53548","","null","","","null","1","","","","","","","","","","","","","","","",""
"","ITI","","html-keyboard-response","23","355919","0.0-1.0-18.0","0","0","53548","","null","","","null","1","","","","","","","","","","","","","","","NaN",""
"","S1","","html-keyboard-response","24","356186","0.0-1.0-20.0","0","0","53548","","null","","","null","2","","","","","","","","","","","","","","","",""
"","ISI","","html-keyboard-response","25","357207","0.0-1.0-21.0","0","0","53548","","null","","","null","2","NaN","","","","","","","","","","","","","","",""
"","S2","","html-keyboard-response","26","357469","0.0-1.0-22.0","0","0","53548","","null","","","null","2","","NaN","","","","","","","","","","","","","",""
"","response","","html-keyboard-response","27","357881","0.0-1.0-23.0-0.0","0","0","53548","","408","","","75","2","","","1","2","training","adjacent","FE","6","5","R.jpg","Q.jpg","0","0","1","",""
"","feedback","","html-keyboard-response","28","358899","0.0-1.0-24.0-0.0","0","0","53548","","null","","","null","2","","","","","","","","","","","","","","","",""
"","ITI","","html-keyboard-response","29","359911","0.0-1.0-27.0","0","0","53548","","null","","","null","2","","","","","","","","","","","","","","","NaN",""
"","S1","","html-keyboard-response","30","360175","0.0-1.0-29.0","0","0","53548","","null","","","null","3","","","","","","","","","","","","","","","",""
"","ISI","","html-keyboard-response","31","361194","0.0-1.0-30.0","0","0","53548","","null","","","null","3","NaN","","","","","","","","","","","","","","",""
"","S2","","html-keyboard-response","32","361246","0.0-1.0-31.0","0","0","53548","","42","","","75","3","","k","1","3","training","adjacent","DC","4","3","N.jpg","M.jpg","0","0","1","",""
"","feedback","","html-keyboard-response","33","362265","0.0-1.0-33.0-0.0","0","0","53548","","null","","","null","3","","","","","","","","","","","","","","","",""
"","ITI","","html-keyboard-response","34","363280","0.0-1.0-36.0","0","0","53548","","null","","","null","3","","","","","","","","","","","","","","","NaN",""
"","S1","","html-keyboard-response","35","363545","0.0-1.0-38.0","0","0","53548","","null","","","null","4","","","","","","","","","","","","","","","",""
"","ISI","","html-keyboard-response","36","364553","0.0-1.0-39.0","0","0","53548","","null","","","null","4","NaN","","","","","","","","","","","","","","",""
"","S2","","html-keyboard-response","37","364817","0.0-1.0-40.0","0","0","53548","","null","","","null","4","","NaN","","","","","","","","","","","","","",""
"","response","","html-keyboard-response","38","365173","0.0-1.0-41.0-0.0","0","0","53548","","352","","","75","4","","","1","4","training","adjacent","ED","5","4","Q.jpg","N.jpg","0","0","1","",""
"","feedback","","html-keyboard-response","39","366184","0.0-1.0-42.0-0.0","0","0","53548","","null","","","null","4","","","","","","","","","","","","","","","",""
"","ITI","","html-keyboard-response","40","367198","0.0-1.0-45.0","0","0","53548","","null","","","null","4","","","","","","","","","","","","","","","NaN",""
"","S1","","html-keyboard-response","41","367460","0.0-1.0-47.0","0","0","53548","","null","","","null","5","","","","","","","","","","","","","","","",""
"","ISI","","html-keyboard-response","42","368466","0.0-1.0-48.0","0","0","53548","","null","","","null","5","NaN","","","","","","","","","","","","","","",""
"","S2","","html-keyboard-response","43","368730","0.0-1.0-49.0","0","0","53548","","null","","","null","5","","NaN","","","","","","","","","","","","","",""
"","response","","html-keyboard-response","44","369945","0.0-1.0-50.0-0.0","0","0","53548","","1210","","","75","5","","","1","5","training","adjacent","FG","6","7","R.jpg","P.jpg","0","1","0","",""
"","feedback","","html-keyboard-response","45","370964","0.0-1.0-51.0-0.0","0","0","53548","","null","","","null","5","","","","","","","","","","","","","","","",""
"","time_out","","html-keyboard-response","46","372978","0.0-1.0-53.0-0.0","0","0","53548","","null","","","null","5","","","","","","","","","","","","","","","",""
"","ITI","","html-keyboard-response","47","373994","0.0-1.0-54.0","0","0","53548","","null","","","null","5","","","","","","","","","","","","","","","NaN",""
"","S1","","html-keyboard-response","48","374259","0.0-1.0-56.0","0","0","53548","","null","","","null","6","","","","","","","","","","","","","","","",""
"","ISI","","html-keyboard-response","49","375283","0.0-1.0-57.0","0","0","53548","","null","","","null","6","NaN","","","","","","","","","","","","","","",""
"","S2","","html-keyboard-response","50","375543","0.0-1.0-58.0","0","0","53548","","null","","","null","6","","NaN","","","","","","","","","","","","","",""
"","response","","html-keyboard-response","51","377302","0.0-1.0-59.0-0.0","0","0","53548","","null","","","null","6","","","1","6","training","adjacent","FE","6","5","R.jpg","Q.jpg","NaN","0","0","",""
"","too_slow_prompt","","html-keyboard-response","52","378311","0.0-1.0-61.0-0.0","1","0","53548","","null","","","null","","","","","","","","","","","","","","","","",""
"","time_out","","html-keyboard-response","53","380321","0.0-1.0-62.0-0.0","0","0","53548","","null","","","null","6","","","","","","","","","","","","","","","",""
"","ITI","","html-keyboard-response","54","381335","0.0-1.0-63.0","0","0","53548","","429","","","68","6","","","","","","","","","","","","","","","d",""
"","S1","","html-keyboard-response","55","381596","0.0-1.0-65.0","0","0","53548","","null","","","null","7","","","","","","","","","","","","","","","",""
"","ISI","","html-keyboard-response","56","382612","0.0-1.0-66.0","0","0","53548","","null","","","null","7","NaN","","","","","","","","","","","","","","",""
"","S2","","html-keyboard-response","57","382872","0.0-1.0-67.0","0","0","53548","","null","","","null","7","","NaN","","","","","","","","","","","","","",""
"","response","","html-keyboard-response","58","384556","0.0-1.0-68.0-0.0","0","0","53548","","1681","","","75","7","","","1","7","training","adjacent","FG","6","7","R.jpg","P.jpg","0","1","0","",""
"","feedback","","html-keyboard-response","59","385568","0.0-1.0-69.0-0.0","0","0","53548","","null","","","null","7","","","","","","","","","","","","","","","",""
"","time_out","","html-keyboard-response","60","387583","0.0-1.0-71.0-0.0","0","0","53548","","null","","","null","7","","","","","","","","","","","","","","","",""
"","ITI","","html-keyboard-response","61","388595","0.0-1.0-72.0","0","0","53548","","null","","","null","7","","","","","","","","","","","","","","","NaN",""
"","S1","","html-keyboard-response","62","388858","0.0-1.0-74.0","0","0","53548","","null","","","null","8","","","","","","","","","","","","","","","",""
"","ISI","","html-keyboard-response","63","389876","0.0-1.0-75.0","0","0","53548","","null","","","null","8","NaN","","","","","","","","","","","","","","",""
"","S2","","html-keyboard-response","64","390140","0.0-1.0-76.0","0","0","53548","","null","","","null","8","","NaN","","","","","","","","","","","","","",""
"","response","","html-keyboard-response","65","391064","0.0-1.0-77.0-0.0","0","0","53548","","919","","","68","8","","","1","8","training","adjacent","FG","6","7","R.jpg","P.jpg","1","1","1","",""
"","feedback","","html-keyboard-response","66","392071","0.0-1.0-78.0-0.0","0","0","53548","","null","","","null","8","","","","","","","","","","","","","","","",""
"","ITI","","html-keyboard-response","67","393088","0.0-1.0-81.0","0","0","53548","","null","","","null","8","","","","","","","","","","","","","","","NaN",""
"","S1","","html-keyboard-response","68","393354","0.0-1.0-83.0","0","0","53548","","null","","","null","9","","","","","","","","","","","","","","","",""
"","ISI","","html-keyboard-response","69","394367","0.0-1.0-84.0","0","0","53548","","null","","","null","9","NaN","","","","","","","","","","","","","","",""
"","S2","","html-keyboard-response","70","394630","0.0-1.0-85.0","0","0","53548","","null","","","null","9","","NaN","","","","","","","","","","","","","",""
"","response","","html-keyboard-response","71","395527","0.0-1.0-86.0-0.0","0","0","53548","","894","","","75","9","","","1","9","training","adjacent","DC","4","3","N.jpg","M.jpg","0","0","1","",""
"","feedback","","html-keyboard-response","72","396533","0.0-1.0-87.0-0.0","0","0","53548","","null","","","null","9","","","","","","","","","","","","","","","",""
"","ITI","","html-keyboard-response","73","397551","0.0-1.0-90.0","0","0","53548","","null","","","null","9","","","","","","","","","","","","","","","NaN",""
"","S1","","html-keyboard-response","74","397810","0.0-1.0-92.0","0","0","53548","","null","","","null","10","","","","","","","","","","","","","","","",""
"","ISI","","html-keyboard-response","75","398827","0.0-1.0-93.0","0","0","53548","","null","","","null","10","NaN","","","","","","","","","","","","","","",""
"","S2","","html-keyboard-response","76","399091","0.0-1.0-94.0","0","0","53548","","null","","","null","10","","NaN","","","","","","","","","","","","","",""
"","response","","html-keyboard-response","77","400254","0.0-1.0-95.0-0.0","0","0","53548","","1161","","","68","10","","","1","10","training","adjacent","ED","5","4","Q.jpg","N.jpg","1","0","0","",""
"","feedback","","html-keyboard-response","78","401260","0.0-1.0-96.0-0.0","0","0","53548","","null","","","null","10","","","","","","","","","","","","","","","",""
"","time_out","","html-keyboard-response","79","403279","0.0-1.0-98.0-0.0","0","0","53548","","null","","","null","10","","","","","","","","","","","","","","","",""
"","ITI","","html-keyboard-response","80","404284","0.0-1.0-99.0","0","0","53548","","null","","","null","10","","","","","","","","","","","","","","","NaN",""
"","S1","","html-keyboard-response","81","404544","0.0-1.0-101.0","0","0","53548","","null","","","null","11","","","","","","","","","","","","","","","",""
"","ISI","","html-keyboard-response","82","405554","0.0-1.0-102.0","0","0","53548","","null","","","null","11","NaN","","","","","","","","","","","","","","",""
"","S2","","html-keyboard-response","83","405819","0.0-1.0-103.0","0","0","53548","","null","","","null","11","","NaN","","","","","","","","","","","","","",""
"","response","","html-keyboard-response","84","406389","0.0-1.0-104.0-0.0","0","0","53548","","567","","","75","11","","","1","11","training","adjacent","BA","2","1","O.jpg","L.jpg","0","0","1","",""
"","feedback","","html-keyboard-response","85","407407","0.0-1.0-105.0-0.0","0","0","53548","","null","","","null","11","","","","","","","","","","","","","","","",""
"","ITI","","html-keyboard-response","86","408425","0.0-1.0-108.0","0","0","53548","","null","","","null","11","","","","","","","","","","","","","","","NaN",""
"","S1","","html-keyboard-response","87","408687","0.0-1.0-110.0","0","0","53548","","null","","","null","12","","","","","","","","","","","","","","","",""
"","ISI","","html-keyboard-response","88","409702","0.0-1.0-111.0","0","0","53548","","null","","","null","12","NaN","","","","","","","","","","","","","","",""
"","S2","","html-keyboard-response","89","409967","0.0-1.0-112.0","0","0","53548","","null","","","null","12","","NaN","","","","","","","","","","","","","",""
"","response","","html-keyboard-response","90","410429","0.0-1.0-113.0-0.0","0","0","53548","","456","","","75","12","","","1","12","training","adjacent","DC","4","3","N.jpg","M.jpg","0","0","1","",""
"","feedback","","html-keyboard-response","91","411436","0.0-1.0-114.0-0.0","0","0","53548","","null","","","null","12","","","","","","","","","","","","","","","",""
"","ITI","","html-keyboard-response","92","412448","0.0-1.0-117.0","0","0","53548","","null","","","null","12","","","","","","","","","","","","","","","NaN",""
"","S1","","html-keyboard-response","93","412710","0.0-1.0-119.0","0","0","53548","","null","","","null","13","","","","","","","","","","","","","","","",""
"","ISI","","html-keyboard-response","94","413727","0.0-1.0-120.0","0","0","53548","","null","","","null","13","NaN","","","","","","","","","","","","","","",""
"","S2","","html-keyboard-response","95","413993","0.0-1.0-121.0","0","0","53548","","null","","","null","13","","NaN","","","","","","","","","","","","","",""
"","response","","html-keyboard-response","96","414737","0.0-1.0-122.0-0.0","0","0","53548","","741","","","75","13","","","1","13","training","adjacent","BC","2","3","O.jpg","M.jpg","0","1","0","",""
"","feedback","","html-keyboard-response","97","415748","0.0-1.0-123.0-0.0","0","0","53548","","null","","","null","13","","","","","","","","","","","","","","","",""
"","time_out","","html-keyboard-response","98","417761","0.0-1.0-125.0-0.0","0","0","53548","","null","","","null","13","","","","","","","","","","","","","","","",""
"","ITI","","html-keyboard-response","99","418765","0.0-1.0-126.0","0","0","53548","","null","","","null","13","","","","","","","","","","","","","","","NaN",""
"","S1","","html-keyboard-response","100","419032","0.0-1.0-128.0","0","0","53548","","null","","","null","14","","","","","","","","","","","","","","","",""
"","ISI","","html-keyboard-response","101","420042","0.0-1.0-129.0","0","0","53548","","null","","","null","14","NaN","","","","","","","","","","","","","","",""
"","S2","","html-keyboard-response","102","420306","0.0-1.0-130.0","0","0","53548","","null","","","null","14","","NaN","","","","","","","","","","","","","",""
"","response","","html-keyboard-response","103","420786","0.0-1.0-131.0-0.0","0","0","53548","","477","","","68","14","","","1","14","training","adjacent","GF","7","6","P.jpg","R.jpg","1","0","0","",""
"","feedback","","html-keyboard-response","104","421805","0.0-1.0-132.0-0.0","0","0","53548","","null","","","null","14","","","","","","","","","","","","","","","",""
"","time_out","","html-keyboard-response","105","423819","0.0-1.0-134.0-0.0","0","0","53548","","null","","","null","14","","","","","","","","","","","","","","","",""
"","ITI","","html-keyboard-response","106","424833","0.0-1.0-135.0","0","0","53548","","null","","","null","14","","","","","","","","","","","","","","","NaN",""
"","S1","","html-keyboard-response","107","425096","0.0-1.0-137.0","0","0","53548","","null","","","null","15","","","","","","","","","","","","","","","",""
"","ISI","","html-keyboard-response","108","426114","0.0-1.0-138.0","0","0","53548","","null","","","null","15","NaN","","","","","","","","","","","","","","",""
"","S2","","html-keyboard-response","109","426382","0.0-1.0-139.0","0","0","53548","","null","","","null","15","","NaN","","","","","","","","","","","","","",""
"","response","","html-keyboard-response","110","427016","0.0-1.0-140.0-0.0","0","0","53548","","630","","","75","15","","","1","15","training","adjacent","BC","2","3","O.jpg","M.jpg","0","1","0","",""
"","feedback","","html-keyboard-response","111","428036","0.0-1.0-141.0-0.0","0","0","53548","","null","","","null","15","","","","","","","","","","","","","","","",""
"","time_out","","html-keyboard-response","112","430053","0.0-1.0-143.0-0.0","0","0","53548","","null","","","null","15","","","","","","","","","","","","","","","",""
"","ITI","","html-keyboard-response","113","431065","0.0-1.0-144.0","0","0","53548","","null","","","null","15","","","","","","","","","","","","","","","NaN",""
"","S1","","html-keyboard-response","114","431331","0.0-1.0-146.0","0","0","53548","","null","","","null","16","","","","","","","","","","","","","","","",""
"","ISI","","html-keyboard-response","115","432341","0.0-1.0-147.0","0","0","53548","","null","","","null","16","NaN","","","","","","","","","","","","","","",""
"","S2","","html-keyboard-response","116","432605","0.0-1.0-148.0","0","0","53548","","null","","","null","16","","NaN","","","","","","","","","","","","","",""
"","response","","html-keyboard-response","117","433579","0.0-1.0-149.0-0.0","0","0","53548","","970","","","68","16","","","1","16","training","adjacent","ED","5","4","Q.jpg","N.jpg","1","0","0","",""
"","feedback","","html-keyboard-response","118","434586","0.0-1.0-150.0-0.0","0","0","53548","","null","","","null","16","","","","","","","","","","","","","","","",""
"","time_out","","html-keyboard-response","119","436595","0.0-1.0-152.0-0.0","0","0","53548","","null","","","null","16","","","","","","","","","","","","","","","",""
"","ITI","","html-keyboard-response","120","437613","0.0-1.0-153.0","0","0","53548","","null","","","null","16","","","","","","","","","","","","","","","NaN",""
"","S1","","html-keyboard-response","121","437880","0.0-1.0-155.0","0","0","53548","","null","","","null","17","","","","","","","","","","","","","","","",""
"","ISI","","html-keyboard-response","122","438894","0.0-1.0-156.0","0","0","53548","","653","","","75","17","k","","","","","","","","","","","","","","",""
"","S2","","html-keyboard-response","123","439157","0.0-1.0-157.0","0","0","53548","","null","","","null","17","","NaN","","","","","","","","","","","","","",""
"","response","","html-keyboard-response","124","439710","0.0-1.0-158.0-0.0","0","0","53548","","550","","","75","17","","","1","17","training","adjacent","FE","6","5","R.jpg","Q.jpg","0","0","1","",""
"","feedback","","html-keyboard-response","125","440720","0.0-1.0-159.0-0.0","0","0","53548","","null","","","null","17","","","","","","","","","","","","","","","",""
"","ITI","","html-keyboard-response","126","441735","0.0-1.0-162.0","0","0","53548","","null","","","null","17","","","","","","","","","","","","","","","NaN",""
"","S1","","html-keyboard-response","127","442000","0.0-1.0-164.0","0","0","53548","","null","","","null","18","","","","","","","","","","","","","","","",""
"","ISI","","html-keyboard-response","128","443017","0.0-1.0-165.0","0","0","53548","","null","","","null","18","NaN","","","","","","","","","","","","","","",""
"","S2","","html-keyboard-response","129","443283","0.0-1.0-166.0","0","0","53548","","null","","","null","18","","NaN","","","","","","","","","","","","","",""
"","response","","html-keyboard-response","130","443880","0.0-1.0-167.0-0.0","0","0","53548","","593","","","68","18","","","1","18","training","adjacent","GF","7","6","P.jpg","R.jpg","1","0","0","",""
"","feedback","","html-keyboard-response","131","444885","0.0-1.0-168.0-0.0","0","0","53548","","null","","","null","18","","","","","","","","","","","","","","","",""
"","time_out","","html-keyboard-response","132","446905","0.0-1.0-170.0-0.0","0","0","53548","","null","","","null","18","","","","","","","","","","","","","","","",""
"","ITI","","html-keyboard-response","133","447920","0.0-1.0-171.0","0","0","53548","","null","","","null","18","","","","","","","","","","","","","","","NaN",""
"","S1","","html-keyboard-response","134","448184","0.0-1.0-173.0","0","0","53548","","null","","","null","19","","","","","","","","","","","","","","","",""
"","ISI","","html-keyboard-response","135","449199","0.0-1.0-174.0","0","0","53548","","null","","","null","19","NaN","","","","","","","","","","","","","","",""
"","S2","","html-keyboard-response","136","449460","0.0-1.0-175.0","0","0","53548","","null","","","null","19","","NaN","","","","","","","","","","","","","",""
"","response","","html-keyboard-response","137","450559","0.0-1.0-176.0-0.0","0","0","53548","","1096","","","68","19","","","1","19","training","adjacent","AB","1","2","L.jpg","O.jpg","1","1","1","",""
"","feedback","","html-keyboard-response","138","451575","0.0-1.0-177.0-0.0","0","0","53548","","null","","","null","19","","","","","","","","","","","","","","","",""
"","ITI","","html-keyboard-response","139","452596","0.0-1.0-180.0","0","0","53548","","null","","","null","19","","","","","","","","","","","","","","","NaN",""
"","S1","","html-keyboard-response","140","452861","0.0-1.0-182.0","0","0","53548","","null","","","null","20","","","","","","","","","","","","","","","",""
"","ISI","","html-keyboard-response","141","453877","0.0-1.0-183.0","0","0","53548","","null","","","null","20","NaN","","","","","","","","","","","","","","",""
"","S2","","html-keyboard-response","142","454139","0.0-1.0-184.0","0","0","53548","","null","","","null","20","","NaN","","","","","","","","","","","","","",""
"","response","","html-keyboard-response","143","454787","0.0-1.0-185.0-0.0","0","0","53548","","644","","","68","20","","","1","20","training","adjacent","AB","1","2","L.jpg","O.jpg","1","1","1","",""
"","feedback","","html-keyboard-response","144","455800","0.0-1.0-186.0-0.0","0","0","53548","","null","","","null","20","","","","","","","","","","","","","","","",""
"","ITI","","html-keyboard-response","145","456814","0.0-1.0-189.0","0","0","53548","","938","","","68","20","","","","","","","","","","","","","","","d",""
"","S1","","html-keyboard-response","146","457076","0.0-1.0-191.0","0","0","53548","","null","","","null","21","","","","","","","","","","","","","","","",""
"","ISI","","html-keyboard-response","147","458091","0.0-1.0-192.0","0","0","53548","","null","","","null","21","NaN","","","","","","","","","","","","","","",""
"","S2","","html-keyboard-response","148","458356","0.0-1.0-193.0","0","0","53548","","null","","","null","21","","NaN","","","","","","","","","","","","","",""
"","response","","html-keyboard-response","149","458884","0.0-1.0-194.0-0.0","0","0","53548","","524","","","75","21","","","1","21","training","adjacent","EF","5","6","Q.jpg","R.jpg","0","1","0","",""
"","feedback","","html-keyboard-response","150","459903","0.0-1.0-195.0-0.0","0","0","53548","","null","","","null","21","","","","","","","","","","","","","","","",""
"","time_out","","html-keyboard-response","151","461918","0.0-1.0-197.0-0.0","0","0","53548","","null","","","null","21","","","","","","","","","","","","","","","",""
"","ITI","","html-keyboard-response","152","462934","0.0-1.0-198.0","0","0","53548","","null","","","null","21","","","","","","","","","","","","","","","NaN",""
"","S1","","html-keyboard-response","153","463195","0.0-1.0-200.0","0","0","53548","","null","","","null","22","","","","","","","","","","","","","","","",""
"","ISI","","html-keyboard-response","154","464214","0.0-1.0-201.0","0","0","53548","","null","","","null","22","NaN","","","","","","","","","","","","","","",""
"","S2","","html-keyboard-response","155","464481","0.0-1.0-202.0","0","0","53548","","null","","","null","22","","NaN","","","","","","","","","","","","","",""
"","response","","html-keyboard-response","156","465153","0.0-1.0-203.0-0.0","0","0","53548","","669","","","75","22","","","1","22","training","adjacent","CB","3","2","M.jpg","O.jpg","0","0","1","",""
"","feedback","","html-keyboard-response","157","466166","0.0-1.0-204.0-0.0","0","0","53548","","null","","","null","22","","","","","","","","","","","","","","","",""
"","ITI","","html-keyboard-response","158","467180","0.0-1.0-207.0","0","0","53548","","null","","","null","22","","","","","","","","","","","","","","","NaN",""
"","S1","","html-keyboard-response","159","467440","0.0-1.0-209.0","0","0","53548","","null","","","null","23","","","","","","","","","","","","","","","",""
"","ISI","","html-keyboard-response","160","468446","0.0-1.0-210.0","0","0","53548","","null","","","null","23","NaN","","","","","","","","","","","","","","",""
"","S2","","html-keyboard-response","161","468713","0.0-1.0-211.0","0","0","53548","","null","","","null","23","","NaN","","","","","","","","","","","","","",""
"","response","","html-keyboard-response","162","469032","0.0-1.0-212.0-0.0","0","0","53548","","315","","","68","23","","","1","23","training","adjacent","CD","3","4","M.jpg","N.jpg","1","1","1","",""
"","feedback","","html-keyboard-response","163","470049","0.0-1.0-213.0-0.0","0","0","53548","","null","","","null","23","","","","","","","","","","","","","","","",""
"","ITI","","html-keyboard-response","164","471060","0.0-1.0-216.0","0","0","53548","","null","","","null","23","","","","","","","","","","","","","","","NaN",""
"","S1","","html-keyboard-response","165","471324","0.0-1.0-218.0","0","0","53548","","null","","","null","24","","","","","","","","","","","","","","","",""
"","ISI","","html-keyboard-response","166","472336","0.0-1.0-219.0","0","0","53548","","null","","","null","24","NaN","","","","","","","","","","","","","","",""
"","S2","","html-keyboard-response","167","472599","0.0-1.0-220.0","0","0","53548","","null","","","null","24","","NaN","","","","","","","","","","","","","",""
"","response","","html-keyboard-response","168","473166","0.0-1.0-221.0-0.0","0","0","53548","","563","","","68","24","","","1","24","training","adjacent","FG","6","7","R.jpg","P.jpg","1","1","1","",""
"","feedback","","html-keyboard-response","169","474173","0.0-1.0-222.0-0.0","0","0","53548","","null","","","null","24","","","","","","","","","","","","","","","",""
"","ITI","","html-keyboard-response","170","475189","0.0-1.0-225.0","0","0","53548","","null","","","null","24","","","","","","","","","","","","","","","NaN",""
"","S1","","html-keyboard-response","171","475451","0.0-1.0-227.0","0","0","53548","","null","","","null","25","","","","","","","","","","","","","","","",""
"","ISI","","html-keyboard-response","172","476463","0.0-1.0-228.0","0","0","53548","","null","","","null","25","NaN","","","","","","","","","","","","","","",""
"","S2","","html-keyboard-response","173","476725","0.0-1.0-229.0","0","0","53548","","null","","","null","25","","NaN","","","","","","","","","","","","","",""
"","response","","html-keyboard-response","174","477557","0.0-1.0-230.0-0.0","0","0","53548","","827","","","68","25","","","1","25","training","adjacent","CD","3","4","M.jpg","N.jpg","1","1","1","",""
"","feedback","","html-keyboard-response","175","478563","0.0-1.0-231.0-0.0","0","0","53548","","null","","","null","25","","","","","","","","","","","","","","","",""
"","ITI","","html-keyboard-response","176","479579","0.0-1.0-234.0","0","0","53548","","null","","","null","25","","","","","","","","","","","","","","","NaN",""
"","S1","","html-keyboard-response","177","479848","0.0-1.0-236.0","0","0","53548","","null","","","null","26","","","","","","","","","","","","","","","",""
"","ISI","","html-keyboard-response","178","480856","0.0-1.0-237.0","0","0","53548","","null","","","null","26","NaN","","","","","","","","","","","","","","",""
"","S2","","html-keyboard-response","179","481120","0.0-1.0-238.0","0","0","53548","","null","","","null","26","","NaN","","","","","","","","","","","","","",""
"","response","","html-keyboard-response","180","481605","0.0-1.0-239.0-0.0","0","0","53548","","474","","","75","26","","","1","26","training","adjacent","DE","4","5","N.jpg","Q.jpg","0","1","0","",""
"","feedback","","html-keyboard-response","181","482620","0.0-1.0-240.0-0.0","0","0","53548","","null","","","null","26","","","","","","","","","","","","","","","",""
"","time_out","","html-keyboard-response","182","484635","0.0-1.0-242.0-0.0","0","0","53548","","null","","","null","26","","","","","","","","","","","","","","","",""
"","ITI","","html-keyboard-response","183","485648","0.0-1.0-243.0","0","0","53548","","null","","","null","26","","","","","","","","","","","","","","","NaN",""
"","S1","","html-keyboard-response","184","485912","0.0-1.0-245.0","0","0","53548","","null","","","null","27","","","","","","","","","","","","","","","",""
"","ISI","","html-keyboard-response","185","486927","0.0-1.0-246.0","0","0","53548","","null","","","null","27","NaN","","","","","","","","","","","","","","",""
"","S2","","html-keyboard-response","186","487194","0.0-1.0-247.0","0","0","53548","","null","","","null","27","","NaN","","","","","","","","","","","","","",""
"","response","","html-keyboard-response","187","487278","0.0-1.0-248.0-0.0","0","0","53548","","79","","","68","27","","","1","27","training","adjacent","DE","4","5","N.jpg","Q.jpg","1","1","1","",""
"","feedback","","html-keyboard-response","188","488295","0.0-1.0-249.0-0.0","0","0","53548","","null","","","null","27","","","","","","","","","","","","","","","",""
"","ITI","","html-keyboard-response","189","489313","0.0-1.0-252.0","0","0","53548","","null","","","null","27","","","","","","","","","","","","","","","NaN",""
"","S1","","html-keyboard-response","190","489580","0.0-1.0-254.0","0","0","53548","","null","","","null","28","","","","","","","","","","","","","","","",""
"","ISI","","html-keyboard-response","191","490596","0.0-1.0-255.0","0","0","53548","","null","","","null","28","NaN","","","","","","","","","","","","","","",""
"","S2","","html-keyboard-response","192","490863","0.0-1.0-256.0","0","0","53548","","null","","","null","28","","NaN","","","","","","","","","","","","","",""
"","response","","html-keyboard-response","193","491998","0.0-1.0-257.0-0.0","0","0","53548","","1131","","","68","28","","","1","28","training","adjacent","EF","5","6","Q.jpg","R.jpg","1","1","1","",""
"","feedback","","html-keyboard-response","194","493016","0.0-1.0-258.0-0.0","0","0","53548","","null","","","null","28","","","","","","","","","","","","","","","",""
"","ITI","","html-keyboard-response","195","494031","0.0-1.0-261.0","0","0","53548","","null","","","null","28","","","","","","","","","","","","","","","NaN",""
"","S1","","html-keyboard-response","196","494297","0.0-1.0-263.0","0","0","53548","","null","","","null","29","","","","","","","","","","","","","","","",""
"","ISI","","html-keyboard-response","197","495319","0.0-1.0-264.0","0","0","53548","","null","","","null","29","NaN","","","","","","","","","","","","","","",""
"","S2","","html-keyboard-response","198","495577","0.0-1.0-265.0","0","0","53548","","null","","","null","29","","NaN","","","","","","","","","","","","","",""
"","response","","html-keyboard-response","199","495607","0.0-1.0-266.0-0.0","0","0","53548","","24","","","68","29","","","1","29","training","adjacent","BC","2","3","O.jpg","M.jpg","1","1","1","",""
"","feedback","","html-keyboard-response","200","496618","0.0-1.0-267.0-0.0","0","0","53548","","null","","","null","29","","","","","","","","","","","","","","","",""
"","ITI","","html-keyboard-response","201","497634","0.0-1.0-270.0","0","0","53548","","null","","","null","29","","","","","","","","","","","","","","","NaN",""
"","S1","","html-keyboard-response","202","497896","0.0-1.0-272.0","0","0","53548","","null","","","null","30","","","","","","","","","","","","","","","",""
"","ISI","","html-keyboard-response","203","498914","0.0-1.0-273.0","0","0","53548","","null","","","null","30","NaN","","","","","","","","","","","","","","",""
"","S2","","html-keyboard-response","204","499179","0.0-1.0-274.0","0","0","53548","","null","","","null","30","","NaN","","","","","","","","","","","","","",""
"","response","","html-keyboard-response","205","500941","0.0-1.0-275.0-0.0","0","0","53548","","null","","","null","30","","","1","30","training","adjacent","BA","2","1","O.jpg","L.jpg","NaN","0","0","",""
"","too_slow_prompt","","html-keyboard-response","206","501953","0.0-1.0-277.0-0.0","1","0","53548","","null","","","null","","","","","","","","","","","","","","","","",""
"","time_out","","html-keyboard-response","207","503963","0.0-1.0-278.0-0.0","0","0","53548","","null","","","null","30","","","","","","","","","","","","","","","",""
"","ITI","","html-keyboard-response","208","504980","0.0-1.0-279.0","0","0","53548","","933","","","68","30","","","","","","","","","","","","","","","d",""
"","S1","","html-keyboard-response","209","505251","0.0-1.0-281.0","0","0","53548","","null","","","null","31","","","","","","","","","","","","","","","",""
"","ISI","","html-keyboard-response","210","506266","0.0-1.0-282.0","0","0","53548","","null","","","null","31","NaN","","","","","","","","","","","","","","",""
"","S2","","html-keyboard-response","211","506527","0.0-1.0-283.0","0","0","53548","","null","","","null","31","","NaN","","","","","","","","","","","","","",""
"","response","","html-keyboard-response","212","508296","0.0-1.0-284.0-0.0","0","0","53548","","null","","","null","31","","","1","31","training","adjacent","DE","4","5","N.jpg","Q.jpg","NaN","1","0","",""
"","too_slow_prompt","","html-keyboard-response","213","509310","0.0-1.0-286.0-0.0","1","0","53548","","null","","","null","","","","","","","","","","","","","","","","",""
"","time_out","","html-keyboard-response","214","511321","0.0-1.0-287.0-0.0","0","0","53548","","null","","","null","31","","","","","","","","","","","","","","","",""
"","ITI","","html-keyboard-response","215","512338","0.0-1.0-288.0","0","0","53548","","null","","","null","31","","","","","","","","","","","","","","","NaN",""
"","S1","","html-keyboard-response","216","512602","0.0-1.0-290.0","0","0","53548","","null","","","null","32","","","","","","","","","","","","","","","",""
"","ISI","","html-keyboard-response","217","513615","0.0-1.0-291.0","0","0","53548","","null","","","null","32","NaN","","","","","","","","","","","","","","",""
"","S2","","html-keyboard-response","218","513884","0.0-1.0-292.0","0","0","53548","","null","","","null","32","","NaN","","","","","","","","","","","","","",""
"","response","","html-keyboard-response","219","515607","0.0-1.0-293.0-0.0","0","0","53548","","1722","","","68","32","","","1","32","training","adjacent","BC","2","3","O.jpg","M.jpg","1","1","1","",""
"","feedback","","html-keyboard-response","220","516620","0.0-1.0-294.0-0.0","0","0","53548","","null","","","null","32","","","","","","","","","","","","","","","",""
"","ITI","","html-keyboard-response","221","517624","0.0-1.0-297.0","0","0","53548","","null","","","null","32","","","","","","","","","","","","","","","NaN",""
"","S1","","html-keyboard-response","222","517894","0.0-1.0-299.0","0","0","53548","","null","","","null","33","","","","","","","","","","","","","","","",""
"","ISI","","html-keyboard-response","223","518905","0.0-1.0-300.0","0","0","53548","","null","","","null","33","NaN","","","","","","","","","","","","","","",""
"","S2","","html-keyboard-response","224","519163","0.0-1.0-301.0","0","0","53548","","null","","","null","33","","NaN","","","","","","","","","","","","","",""
"","response","","html-keyboard-response","225","520466","0.0-1.0-302.0-0.0","0","0","53548","","1299","","","75","33","","","1","33","training","adjacent","EF","5","6","Q.jpg","R.jpg","0","1","0","",""
"","feedback","","html-keyboard-response","226","521488","0.0-1.0-303.0-0.0","0","0","53548","","null","","","null","33","","","","","","","","","","","","","","","",""
"","time_out","","html-keyboard-response","227","523495","0.0-1.0-305.0-0.0","0","0","53548","","null","","","null","33","","","","","","","","","","","","","","","",""
"","ITI","","html-keyboard-response","228","524512","0.0-1.0-306.0","0","0","53548","","null","","","null","33","","","","","","","","","","","","","","","NaN",""
"","S1","","html-keyboard-response","229","524774","0.0-1.0-308.0","0","0","53548","","null","","","null","34","","","","","","","","","","","","","","","",""
"","ISI","","html-keyboard-response","230","525784","0.0-1.0-309.0","0","0","53548","","null","","","null","34","NaN","","","","","","","","","","","","","","",""
"","S2","","html-keyboard-response","231","526048","0.0-1.0-310.0","0","0","53548","","null","","","null","34","","NaN","","","","","","","","","","","","","",""
"","response","","html-keyboard-response","232","527813","0.0-1.0-311.0-0.0","0","0","53548","","null","","","null","34","","","1","34","training","adjacent","CB","3","2","M.jpg","O.jpg","NaN","0","0","",""
"","too_slow_prompt","","html-keyboard-response","233","528828","0.0-1.0-313.0-0.0","1","0","53548","","null","","","null","","","","","","","","","","","","","","","","",""
"","time_out","","html-keyboard-response","234","530838","0.0-1.0-314.0-0.0","0","0","53548","","null","","","null","34","","","","","","","","","","","","","","","",""
"","ITI","","html-keyboard-response","235","531855","0.0-1.0-315.0","0","0","53548","","null","","","null","34","","","","","","","","","","","","","","","NaN",""
"","S1","","html-keyboard-response","236","532120","0.0-1.0-317.0","0","0","53548","","null","","","null","35","","","","","","","","","","","","","","","",""
"","ISI","","html-keyboard-response","237","533137","0.0-1.0-318.0","0","0","53548","","null","","","null","35","NaN","","","","","","","","","","","","","","",""
"","S2","","html-keyboard-response","238","533401","0.0-1.0-319.0","0","0","53548","","null","","","null","35","","NaN","","","","","","","","","","","","","",""
"","response","","html-keyboard-response","239","535156","0.0-1.0-320.0-0.0","0","0","53548","","null","","","null","35","","","1","35","training","adjacent","CD","3","4","M.jpg","N.jpg","NaN","1","0","",""
"","too_slow_prompt","","html-keyboard-response","240","536172","0.0-1.0-322.0-0.0","1","0","53548","","null","","","null","","","","","","","","","","","","","","","","",""
"","time_out","","html-keyboard-response","241","538186","0.0-1.0-323.0-0.0","0","0","53548","","null","","","null","35","","","","","","","","","","","","","","","",""
"","ITI","","html-keyboard-response","242","539201","0.0-1.0-324.0","0","0","53548","","null","","","null","35","","","","","","","","","","","","","","","NaN",""
"","S1","","html-keyboard-response","243","539465","0.0-1.0-326.0","0","0","53548","","null","","","null","36","","","","","","","","","","","","","","","",""
"","ISI","","html-keyboard-response","244","540482","0.0-1.0-327.0","0","0","53548","","252","","","75","36","k","","","","","","","","","","","","","","",""
"","S2","","html-keyboard-response","245","540744","0.0-1.0-328.0","0","0","53548","","null","","","null","36","","NaN","","","","","","","","","","","","","",""
"","response","","html-keyboard-response","246","542506","0.0-1.0-329.0-0.0","0","0","53548","","null","","","null","36","","","1","36","training","adjacent","AB","1","2","L.jpg","O.jpg","NaN","1","0","",""
"","too_slow_prompt","","html-keyboard-response","247","543521","0.0-1.0-331.0-0.0","1","0","53548","","null","","","null","","","","","","","","","","","","","","","","",""
"","time_out","","html-keyboard-response","248","545535","0.0-1.0-332.0-0.0","0","0","53548","","null","","","null","36","","","","","","","","","","","","","","","",""
"","ITI","","html-keyboard-response","249","546548","0.0-1.0-333.0","0","0","53548","","null","","","null","36","","","","","","","","","","","","","","","NaN",""
"","S1","","html-keyboard-response","250","546813","0.0-1.0-335.0","0","0","53548","","null","","","null","37","","","","","","","","","","","","","","","",""
"","ISI","","html-keyboard-response","251","547826","0.0-1.0-336.0","0","0","53548","","null","","","null","37","NaN","","","","","","","","","","","","","","",""
"","S2","","html-keyboard-response","252","548093","0.0-1.0-337.0","0","0","53548","","null","","","null","37","","NaN","","","","","","","","","","","","","",""
"","response","","html-keyboard-response","253","548151","0.0-1.0-338.0-0.0","0","0","53548","","56","","","68","37","","","1","37","training","adjacent","DC","4","3","N.jpg","M.jpg","1","0","0","",""
"","feedback","","html-keyboard-response","254","549169","0.0-1.0-339.0-0.0","0","0","53548","","null","","","null","37","","","","","","","","","","","","","","","",""
"","time_out","","html-keyboard-response","255","551182","0.0-1.0-341.0-0.0","0","0","53548","","null","","","null","37","","","","","","","","","","","","","","","",""
"","ITI","","html-keyboard-response","256","552197","0.0-1.0-342.0","0","0","53548","","null","","","null","37","","","","","","","","","","","","","","","NaN",""
"","S1","","html-keyboard-response","257","552461","0.0-1.0-344.0","0","0","53548","","null","","","null","38","","","","","","","","","","","","","","","",""
"","ISI","","html-keyboard-response","258","553475","0.0-1.0-345.0","0","0","53548","","null","","","null","38","NaN","","","","","","","","","","","","","","",""
"","S2","","html-keyboard-response","259","553527","0.0-1.0-346.0","0","0","53548","","45","","","68","38","","d","1","38","training","adjacent","FE","6","5","R.jpg","Q.jpg","1","0","0","",""
"","feedback","","html-keyboard-response","260","554539","0.0-1.0-348.0-0.0","0","0","53548","","null","","","null","38","","","","","","","","","","","","","","","",""
"","time_out","","html-keyboard-response","261","556547","0.0-1.0-350.0-0.0","0","0","53548","","null","","","null","38","","","","","","","","","","","","","","","",""
"","ITI","","html-keyboard-response","262","557563","0.0-1.0-351.0","0","0","53548","","null","","","null","38","","","","","","","","","","","","","","","NaN",""
"","S1","","html-keyboard-response","263","557828","0.0-1.0-353.0","0","0","53548","","null","","","null","39","","","","","","","","","","","","","","","",""
"","ISI","","html-keyboard-response","264","558847","0.0-1.0-354.0","0","0","53548","","115","","","75","39","k","","","","","","","","","","","","","","",""
"","S2","","html-keyboard-response","265","559049","0.0-1.0-355.0","0","0","53548","","197","","","75","39","","k","1","39","training","adjacent","CB","3","2","M.jpg","O.jpg","0","0","1","",""
"","feedback","","html-keyboard-response","266","560061","0.0-1.0-357.0-0.0","0","0","53548","","null","","","null","39","","","","","","","","","","","","","","","",""
"","ITI","","html-keyboard-response","267","561072","0.0-1.0-360.0","0","0","53548","","14","","","75","39","","","","","","","","","","","","","","","k",""
"","S1","","html-keyboard-response","268","561335","0.0-1.0-362.0","0","0","53548","","null","","","null","40","","","","","","","","","","","","","","","",""
"","ISI","","html-keyboard-response","269","562351","0.0-1.0-363.0","0","0","53548","","null","","","null","40","NaN","","","","","","","","","","","","","","",""
"","S2","","html-keyboard-response","270","562611","0.0-1.0-364.0","0","0","53548","","null","","","null","40","","NaN","","","","","","","","","","","","","",""
"","response","","html-keyboard-response","271","562692","0.0-1.0-365.0-0.0","0","0","53548","","79","","","75","40","","","1","40","training","adjacent","BA","2","1","O.jpg","L.jpg","0","0","1","",""
"","feedback","","html-keyboard-response","272","563711","0.0-1.0-366.0-0.0","0","0","53548","","null","","","null","40","","","","","","","","","","","","","","","",""
"","ITI","","html-keyboard-response","273","564722","0.0-1.0-369.0","0","0","53548","","964","","","75","40","","","","","","","","","","","","","","","k",""
"","S1","","html-keyboard-response","274","564984","0.0-1.0-371.0","0","0","53548","","null","","","null","41","","","","","","","","","","","","","","","",""
"","ISI","","html-keyboard-response","275","566004","0.0-1.0-372.0","0","0","53548","","null","","","null","41","NaN","","","","","","","","","","","","","","",""
"","S2","","html-keyboard-response","276","566262","0.0-1.0-373.0","0","0","53548","","null","","","null","41","","NaN","","","","","","","","","","","","","",""
"","response","","html-keyboard-response","277","566316","0.0-1.0-374.0-0.0","0","0","53548","","49","","","75","41","","","1","41","training","adjacent","DE","4","5","N.jpg","Q.jpg","0","1","0","",""
"","feedback","","html-keyboard-response","278","567330","0.0-1.0-375.0-0.0","0","0","53548","","null","","","null","41","","","","","","","","","","","","","","","",""
"","time_out","","html-keyboard-response","279","569349","0.0-1.0-377.0-0.0","0","0","53548","","null","","","null","41","","","","","","","","","","","","","","","",""
"","ITI","","html-keyboard-response","280","570361","0.0-1.0-378.0","0","0","53548","","692","","","68","41","","","","","","","","","","","","","","","d",""
"","S1","","html-keyboard-response","281","570625","0.0-1.0-380.0","0","0","53548","","null","","","null","42","","","","","","","","","","","","","","","",""
"","ISI","","html-keyboard-response","282","571640","0.0-1.0-381.0","0","0","53548","","455","","","68","42","d","","","","","","","","","","","","","","",""
"","S2","","html-keyboard-response","283","571900","0.0-1.0-382.0","0","0","53548","","null","","","null","42","","NaN","","","","","","","","","","","","","",""
"","response","","html-keyboard-response","284","573661","0.0-1.0-383.0-0.0","0","0","53548","","null","","","null","42","","","1","42","training","adjacent","CD","3","4","M.jpg","N.jpg","NaN","1","0","",""
"","too_slow_prompt","","html-keyboard-response","285","574676","0.0-1.0-385.0-0.0","1","0","53548","","null","","","null","","","","","","","","","","","","","","","","",""
"","time_out","","html-keyboard-response","286","576687","0.0-1.0-386.0-0.0","0","0","53548","","null","","","null","42","","","","","","","","","","","","","","","",""
"","ITI","","html-keyboard-response","287","577701","0.0-1.0-387.0","0","0","53548","","101","","","75","42","","","","","","","","","","","","","","","k",""
"","S1","","html-keyboard-response","288","577960","0.0-1.0-389.0","0","0","53548","","null","","","null","43","","","","","","","","","","","","","","","",""
"","ISI","","html-keyboard-response","289","578976","0.0-1.0-390.0","0","0","53548","","8","","","75","43","k","","","","","","","","","","","","","","",""
"","S2","","html-keyboard-response","290","579242","0.0-1.0-391.0","0","0","53548","","null","","","null","43","","NaN","","","","","","","","","","","","","",""
"","response","","html-keyboard-response","291","579743","0.0-1.0-392.0-0.0","0","0","53548","","500","","","75","43","","","1","43","training","adjacent","GF","7","6","P.jpg","R.jpg","0","0","1","",""
"","feedback","","html-keyboard-response","292","580750","0.0-1.0-393.0-0.0","0","0","53548","","null","","","null","43","","","","","","","","","","","","","","","",""
"","ITI","","html-keyboard-response","293","581760","0.0-1.0-396.0","0","0","53548","","null","","","null","43","","","","","","","","","","","","","","","NaN",""
"","S1","","html-keyboard-response","294","582024","0.0-1.0-398.0","0","0","53548","","null","","","null","44","","","","","","","","","","","","","","","",""
"","ISI","","html-keyboard-response","295","583038","0.0-1.0-399.0","0","0","53548","","362","","","68","44","d","","","","","","","","","","","","","","",""
"","S2","","html-keyboard-response","296","583301","0.0-1.0-400.0","0","0","53548","","null","","","null","44","","NaN","","","","","","","","","","","","","",""
"","response","","html-keyboard-response","297","583410","0.0-1.0-401.0-0.0","0","0","53548","","106","","","68","44","","","1","44","training","adjacent","ED","5","4","Q.jpg","N.jpg","1","0","0","",""
"","feedback","","html-keyboard-response","298","584425","0.0-1.0-402.0-0.0","0","0","53548","","null","","","null","44","","","","","","","","","","","","","","","",""
"","time_out","","html-keyboard-response","299","586436","0.0-1.0-404.0-0.0","0","0","53548","","null","","","null","44","","","","","","","","","","","","","","","",""
"","ITI","","html-keyboard-response","300","587448","0.0-1.0-405.0","0","0","53548","","159","","","75","44","","","","","","","","","","","","","","","k",""
"","S1","","html-keyboard-response","301","587711","0.0-1.0-407.0","0","0","53548","","null","","","null","45","","","","","","","","","","","","","","","",""
"","ISI","","html-keyboard-response","302","588718","0.0-1.0-408.0","0","0","53548","","538","","","75","45","k","","","","","","","","","","","","","","",""
"","S2","","html-keyboard-response","303","588981","0.0-1.0-409.0","0","0","53548","","null","","","null","45","","NaN","","","","","","","","","","","","","",""
"","response","","html-keyboard-response","304","588989","0.0-1.0-410.0-0.0","0","0","53548","","6","","","75","45","","","1","45","training","adjacent","CB","3","2","M.jpg","O.jpg","0","0","1","",""
"","feedback","","html-keyboard-response","305","589995","0.0-1.0-411.0-0.0","0","0","53548","","null","","","null","45","","","","","","","","","","","","","","","",""
"","ITI","","html-keyboard-response","306","591006","0.0-1.0-414.0","0","0","53548","","null","","","null","45","","","","","","","","","","","","","","","NaN",""
"","S1","","html-keyboard-response","307","591268","0.0-1.0-416.0","0","0","53548","","null","","","null","46","","","","","","","","","","","","","","","",""
"","ISI","","html-keyboard-response","308","592283","0.0-1.0-417.0","0","0","53548","","null","","","null","46","NaN","","","","","","","","","","","","","","",""
"","S2","","html-keyboard-response","309","592549","0.0-1.0-418.0","0","0","53548","","null","","","null","46","","NaN","","","","","","","","","","","","","",""
"","response","","html-keyboard-response","310","594311","0.0-1.0-419.0-0.0","0","0","53548","","null","","","null","46","","","1","46","training","adjacent","AB","1","2","L.jpg","O.jpg","NaN","1","0","",""
"","too_slow_prompt","","html-keyboard-response","311","595326","0.0-1.0-421.0-0.0","1","0","53548","","null","","","null","","","","","","","","","","","","","","","","",""
"","time_out","","html-keyboard-response","312","597333","0.0-1.0-422.0-0.0","0","0","53548","","null","","","null","46","","","","","","","","","","","","","","","",""
"","ITI","","html-keyboard-response","313","598350","0.0-1.0-423.0","0","0","53548","","null","","","null","46","","","","","","","","","","","","","","","NaN",""
"","S1","","html-keyboard-response","314","598613","0.0-1.0-425.0","0","0","53548","","null","","","null","47","","","","","","","","","","","","","","","",""
"","ISI","","html-keyboard-response","315","599629","0.0-1.0-426.0","0","0","53548","","201","","","75","47","k","","","","","","","","","","","","","","",""
"","S2","","html-keyboard-response","316","599893","0.0-1.0-427.0","0","0","53548","","null","","","null","47","","NaN","","","","","","","","","","","","","",""
"","response","","html-keyboard-response","317","601659","0.0-1.0-428.0-0.0","0","0","53548","","null","","","null","47","","","1","47","training","adjacent","EF","5","6","Q.jpg","R.jpg","NaN","1","0","",""
"","too_slow_prompt","","html-keyboard-response","318","602675","0.0-1.0-430.0-0.0","1","0","53548","","null","","","null","","","","","","","","","","","","","","","","",""
"","time_out","","html-keyboard-response","319","604685","0.0-1.0-431.0-0.0","0","0","53548","","null","","","null","47","","","","","","","","","","","","","","","",""
"","ITI","","html-keyboard-response","320","605699","0.0-1.0-432.0","0","0","53548","","null","","","null","47","","","","","","","","","","","","","","","NaN",""
"","block_over","","html-keyboard-response","321","618545","0.0-1.0-433.0-0.0","0","0","53548","","12826","","","32","47","","","","","","","","","","","","","","","",""
"","S1","","html-keyboard-response","322","618799","0.0-1.0-434.0","0","0","53548","","null","","","null","48","","","","","","","","","","","","","","","",""
"","ISI","","html-keyboard-response","323","619817","0.0-1.0-435.0","0","0","53548","","671","","","76","48","l","","","","","","","","","","","","","","",""
"","S2","","html-keyboard-response","324","620081","0.0-1.0-436.0","0","0","53548","","null","","","null","48","","NaN","","","","","","","","","","","","","",""
"","response","","html-keyboard-response","325","620145","0.0-1.0-437.0-0.0","0","0","53548","","58","","","75","48","","","2","48","training","adjacent","ED","5","4","Q.jpg","N.jpg","0","0","1","",""
"","feedback","","html-keyboard-response","326","621159","0.0-1.0-438.0-0.0","0","0","53548","","null","","","null","48","","","","","","","","","","","","","","","",""
"","ITI","","html-keyboard-response","327","622168","0.0-1.0-441.0","0","0","53548","","null","","","null","48","","","","","","","","","","","","","","","NaN",""
"","S1","","html-keyboard-response","328","622433","0.0-1.0-443.0","0","0","53548","","null","","","null","49","","","","","","","","","","","","","","","",""
"","ISI","","html-keyboard-response","329","623445","0.0-1.0-444.0","0","0","53548","","null","","","null","49","NaN","","","","","","","","","","","","","","",""
"","S2","","html-keyboard-response","330","623712","0.0-1.0-445.0","0","0","53548","","null","","","null","49","","NaN","","","","","","","","","","","","","",""
"","response","","html-keyboard-response","331","623736","0.0-1.0-446.0-0.0","0","0","53548","","18","","","68","49","","","2","49","training","adjacent","FE","6","5","R.jpg","Q.jpg","1","0","0","",""
"","feedback","","html-keyboard-response","332","624748","0.0-1.0-447.0-0.0","0","0","53548","","null","","","null","49","","","","","","","","","","","","","","","",""
"","time_out","","html-keyboard-response","333","626760","0.0-1.0-449.0-0.0","0","0","53548","","null","","","null","49","","","","","","","","","","","","","","","",""
"","ITI","","html-keyboard-response","334","627778","0.0-1.0-450.0","0","0","53548","","null","","","null","49","","","","","","","","","","","","","","","NaN",""
"","S1","","html-keyboard-response","335","628039","0.0-1.0-452.0","0","0","53548","","null","","","null","50","","","","","","","","","","","","","","","",""
"","ISI","","html-keyboard-response","336","629053","0.0-1.0-453.0","0","0","53548","","61","","","75","50","k","","","","","","","","","","","","","","",""
"","S2","","html-keyboard-response","337","629093","0.0-1.0-454.0","0","0","53548","","32","","","75","50","","k","2","50","training","adjacent","AB","1","2","L.jpg","O.jpg","0","1","0","",""
"","feedback","","html-keyboard-response","338","630100","0.0-1.0-456.0-0.0","0","0","53548","","null","","","null","50","","","","","","","","","","","","","","","",""
"","time_out","","html-keyboard-response","339","632112","0.0-1.0-458.0-0.0","0","0","53548","","null","","","null","50","","","","","","","","","","","","","","","",""
"","ITI","","html-keyboard-response","340","633123","0.0-1.0-459.0","0","0","53548","","311","","","68","50","","","","","","","","","","","","","","","d",""
"","S1","","html-keyboard-response","341","633386","0.0-1.0-461.0","0","0","53548","","null","","","null","51","","","","","","","","","","","","","","","",""
"","ISI","","html-keyboard-response","342","634397","0.0-1.0-462.0","0","0","53548","","378","","","68","51","d","","","","","","","","","","","","","","",""
"","S2","","html-keyboard-response","343","634663","0.0-1.0-463.0","0","0","53548","","null","","","null","51","","NaN","","","","","","","","","","","","","",""
"","response","","html-keyboard-response","344","634669","0.0-1.0-464.0-0.0","0","0","53548","","1","","","68","51","","","2","51","training","adjacent","BA","2","1","O.jpg","L.jpg","1","0","0","",""
"","feedback","","html-keyboard-response","345","635678","0.0-1.0-465.0-0.0","0","0","53548","","null","","","null","51","","","","","","","","","","","","","","","",""
"","time_out","","html-keyboard-response","346","637688","0.0-1.0-467.0-0.0","0","0","53548","","null","","","null","51","","","","","","","","","","","","","","","",""
"","ITI","","html-keyboard-response","347","638704","0.0-1.0-468.0","0","0","53548","","null","","","null","51","","","","","","","","","","","","","","","NaN",""
"","S1","","html-keyboard-response","348","638972","0.0-1.0-470.0","0","0","53548","","null","","","null","52","","","","","","","","","","","","","","","",""
"","ISI","","html-keyboard-response","349","639989","0.0-1.0-471.0","0","0","53548","","418","","","68","52","d","","","","","","","","","","","","","","",""
"","S2","","html-keyboard-response","350","640252","0.0-1.0-472.0","0","0","53548","","null","","","null","52","","NaN","","","","","","","","","","","","","",""
"","response","","html-keyboard-response","351","640329","0.0-1.0-473.0-0.0","0","0","53548","","73","","","68","52","","","2","52","training","adjacent","EF","5","6","Q.jpg","R.jpg","1","1","1","",""
"","feedback","","html-keyboard-response","352","641346","0.0-1.0-474.0-0.0","0","0","53548","","null","","","null","52","","","","","","","","","","","","","","","",""
"","ITI","","html-keyboard-response","353","642360","0.0-1.0-477.0","0","0","53548","","null","","","null","52","","","","","","","","","","","","","","","NaN",""
"","S1","","html-keyboard-response","354","642627","0.0-1.0-479.0","0","0","53548","","null","","","null","53","","","","","","","","","","","","","","","",""
"","ISI","","html-keyboard-response","355","643635","0.0-1.0-480.0","0","0","53548","","null","","","null","53","NaN","","","","","","","","","","","","","","",""
"","S2","","html-keyboard-response","356","643900","0.0-1.0-481.0","0","0","53548","","null","","","null","53","","NaN","","","","","","","","","","","","","",""
"","response","","html-keyboard-response","357","644689","0.0-1.0-482.0-0.0","0","0","53548","","786","","","75","53","","","2","53","training","adjacent","DC","4","3","N.jpg","M.jpg","0","0","1","",""
"","feedback","","html-keyboard-response","358","645708","0.0-1.0-483.0-0.0","0","0","53548","","null","","","null","53","","","","","","","","","","","","","","","",""
"","ITI","","html-keyboard-response","359","646719","0.0-1.0-486.0","0","0","53548","","null","","","null","53","","","","","","","","","","","","","","","NaN",""
"","S1","","html-keyboard-response","360","646984","0.0-1.0-488.0","0","0","53548","","null","","","null","54","","","","","","","","","","","","","","","",""
"","ISI","","html-keyboard-response","361","647994","0.0-1.0-489.0","0","0","53548","","null","","","null","54","NaN","","","","","","","","","","","","","","",""
"","S2","","html-keyboard-response","362","648255","0.0-1.0-490.0","0","0","53548","","null","","","null","54","","NaN","","","","","","","","","","","","","",""
"","response","","html-keyboard-response","363","650021","0.0-1.0-491.0-0.0","0","0","53548","","null","","","null","54","","","2","54","training","adjacent","FE","6","5","R.jpg","Q.jpg","NaN","0","0","",""
"","too_slow_prompt","","html-keyboard-response","364","651032","0.0-1.0-493.0-0.0","1","0","53548","","null","","","null","","","","","","","","","","","","","","","","",""
"","time_out","","html-keyboard-response","365","653042","0.0-1.0-494.0-0.0","0","0","53548","","null","","","null","54","","","","","","","","","","","","","","","",""
"","ITI","","html-keyboard-response","366","654057","0.0-1.0-495.0","0","0","53548","","null","","","null","54","","","","","","","","","","","","","","","NaN",""
"","S1","","html-keyboard-response","367","654317","0.0-1.0-497.0","0","0","53548","","null","","","null","55","","","","","","","","","","","","","","","",""
"","ISI","","html-keyboard-response","368","655335","0.0-1.0-498.0","0","0","53548","","null","","","null","55","NaN","","","","","","","","","","","","","","",""
"","S2","","html-keyboard-response","369","655598","0.0-1.0-499.0","0","0","53548","","null","","","null","55","","NaN","","","","","","","","","","","","","",""
"","response","","html-keyboard-response","370","655648","0.0-1.0-500.0-0.0","0","0","53548","","47","","","68","55","","","2","55","training","adjacent","BC","2","3","O.jpg","M.jpg","1","1","1","",""
"","feedback","","html-keyboard-response","371","656654","0.0-1.0-501.0-0.0","0","0","53548","","null","","","null","55","","","","","","","","","","","","","","","",""
"","ITI","","html-keyboard-response","372","657667","0.0-1.0-504.0","0","0","53548","","null","","","null","55","","","","","","","","","","","","","","","NaN",""
"","S1","","html-keyboard-response","373","657935","0.0-1.0-506.0","0","0","53548","","null","","","null","56","","","","","","","","","","","","","","","",""
"","ISI","","html-keyboard-response","374","658949","0.0-1.0-507.0","0","0","53548","","null","","","null","56","NaN","","","","","","","","","","","","","","",""
"","S2","","html-keyboard-response","375","659212","0.0-1.0-508.0","0","0","53548","","null","","","null","56","","NaN","","","","","","","","","","","","","",""
"","response","","html-keyboard-response","376","660974","0.0-1.0-509.0-0.0","0","0","53548","","null","","","null","56","","","2","56","training","adjacent","CB","3","2","M.jpg","O.jpg","NaN","0","0","",""
"","too_slow_prompt","","html-keyboard-response","377","661993","0.0-1.0-511.0-0.0","1","0","53548","","null","","","null","","","","","","","","","","","","","","","","",""
"","time_out","","html-keyboard-response","378","664006","0.0-1.0-512.0-0.0","0","0","53548","","null","","","null","56","","","","","","","","","","","","","","","",""
"","ITI","","html-keyboard-response","379","665022","0.0-1.0-513.0","0","0","53548","","624","","","75","56","","","","","","","","","","","","","","","k",""
"","S1","","html-keyboard-response","380","665284","0.0-1.0-515.0","0","0","53548","","null","","","null","57","","","","","","","","","","","","","","","",""
"","ISI","","html-keyboard-response","381","666299","0.0-1.0-516.0","0","0","53548","","null","","","null","57","NaN","","","","","","","","","","","","","","",""
"","S2","","html-keyboard-response","382","666567","0.0-1.0-517.0","0","0","53548","","null","","","null","57","","NaN","","","","","","","","","","","","","",""
"","response","","html-keyboard-response","383","667018","0.0-1.0-518.0-0.0","0","0","53548","","448","","","75","57","","","2","57","training","adjacent","BA","2","1","O.jpg","L.jpg","0","0","1","",""
"","feedback","","html-keyboard-response","384","668032","0.0-1.0-519.0-0.0","0","0","53548","","null","","","null","57","","","","","","","","","","","","","","","",""
"","ITI","","html-keyboard-response","385","669037","0.0-1.0-522.0","0","0","53548","","null","","","null","57","","","","","","","","","","","","","","","NaN",""
"","S1","","html-keyboard-response","386","669300","0.0-1.0-524.0","0","0","53548","","null","","","null","58","","","","","","","","","","","","","","","",""
"","ISI","","html-keyboard-response","387","670316","0.0-1.0-525.0","0","0","53548","","null","","","null","58","NaN","","","","","","","","","","","","","","",""
"","S2","","html-keyboard-response","388","670580","0.0-1.0-526.0","0","0","53548","","null","","","null","58","","NaN","","","","","","","","","","","","","",""
"","response","","html-keyboard-response","389","672344","0.0-1.0-527.0-0.0","0","0","53548","","null","","","null","58","","","2","58","training","adjacent","CB","3","2","M.jpg","O.jpg","NaN","0","0","",""
"","too_slow_prompt","","html-keyboard-response","390","673361","0.0-1.0-529.0-0.0","1","0","53548","","null","","","null","","","","","","","","","","","","","","","","",""
"","time_out","","html-keyboard-response","391","675376","0.0-1.0-530.0-0.0","0","0","53548","","null","","","null","58","","","","","","","","","","","","","","","",""
"","ITI","","html-keyboard-response","392","676388","0.0-1.0-531.0","0","0","53548","","535","","","68","58","","","","","","","","","","","","","","","d",""
"","S1","","html-keyboard-response","393","676652","0.0-1.0-533.0","0","0","53548","","null","","","null","59","","","","","","","","","","","","","","","",""
"","ISI","","html-keyboard-response","394","677669","0.0-1.0-534.0","0","0","53548","","27","","","68","59","d","","","","","","","","","","","","","","",""
"","S2","","html-keyboard-response","395","677860","0.0-1.0-535.0","0","0","53548","","188","","","68","59","","d","2","59","training","adjacent","CB","3","2","M.jpg","O.jpg","1","0","0","",""
"","feedback","","html-keyboard-response","396","678874","0.0-1.0-537.0-0.0","0","0","53548","","null","","","null","59","","","","","","","","","","","","","","","",""
"","time_out","","html-keyboard-response","397","680888","0.0-1.0-539.0-0.0","0","0","53548","","null","","","null","59","","","","","","","","","","","","","","","",""
"","ITI","","html-keyboard-response","398","681906","0.0-1.0-540.0","0","0","53548","","621","","","75","59","","","","","","","","","","","","","","","k",""
"","S1","","html-keyboard-response","399","682171","0.0-1.0-542.0","0","0","53548","","null","","","null","60","","","","","","","","","","","","","","","",""
"","ISI","","html-keyboard-response","400","683184","0.0-1.0-543.0","0","0","53548","","624","","","75","60","k","","","","","","","","","","","","","","",""
"","S2","","html-keyboard-response","401","683447","0.0-1.0-544.0","0","0","53548","","null","","","null","60","","NaN","","","","","","","","","","","","","",""
"","response","","html-keyboard-response","402","685203","0.0-1.0-545.0-0.0","0","0","53548","","null","","","null","60","","","2","60","training","adjacent","DE","4","5","N.jpg","Q.jpg","NaN","1","0","",""
"","too_slow_prompt","","html-keyboard-response","403","686217","0.0-1.0-547.0-0.0","1","0","53548","","null","","","null","","","","","","","","","","","","","","","","",""
"","time_out","","html-keyboard-response","404","688222","0.0-1.0-548.0-0.0","0","0","53548","","null","","","null","60","","","","","","","","","","","","","","","",""
"","ITI","","html-keyboard-response","405","689235","0.0-1.0-549.0","0","0","53548","","null","","","null","60","","","","","","","","","","","","","","","NaN",""
"","S1","","html-keyboard-response","406","689501","0.0-1.0-551.0","0","0","53548","","null","","","null","61","","","","","","","","","","","","","","","",""
"","ISI","","html-keyboard-response","407","690515","0.0-1.0-552.0","0","0","53548","","583","","","27","61","esc","","","","","","","","","","","","","","",""
"","S2","","html-keyboard-response","408","690774","0.0-1.0-553.0","0","0","53548","","null","","","null","61","","NaN","","","","","","","","","","","","","",""
"","response","","html-keyboard-response","409","692349","0.0-1.0-554.0-0.0","0","0","53548","","1571","","","75","61","","","2","61","training","adjacent","DC","4","3","N.jpg","M.jpg","0","0","1","",""
"","feedback","","html-keyboard-response","410","693359","0.0-1.0-555.0-0.0","0","0","53548","","null","","","null","61","","","","","","","","","","","","","","","",""
"","ITI","","html-keyboard-response","411","694363","0.0-1.0-558.0","0","0","53548","","null","","","null","61","","","","","","","","","","","","","","","NaN",""
"","S1","","html-keyboard-response","412","694626","0.0-1.0-560.0","0","0","53548","","null","","","null","62","","","","","","","","","","","","","","","",""
"","ISI","","html-keyboard-response","413","695635","0.0-1.0-561.0","0","0","53548","","null","","","null","62","NaN","","","","","","","","","","","","","","",""
"","S2","","html-keyboard-response","414","695897","0.0-1.0-562.0","0","0","53548","","null","","","null","62","","NaN","","","","","","","","","","","","","",""
"","response","","html-keyboard-response","415","697668","0.0-1.0-563.0-0.0","0","0","53548","","null","","","null","62","","","2","62","training","adjacent","GF","7","6","P.jpg","R.jpg","NaN","0","0","",""
"","too_slow_prompt","","html-keyboard-response","416","698687","0.0-1.0-565.0-0.0","1","0","53548","","null","","","null","","","","","","","","","","","","","","","","",""
"","time_out","","html-keyboard-response","417","700706","0.0-1.0-566.0-0.0","0","0","53548","","null","","","null","62","","","","","","","","","","","","","","","",""
"","ITI","","html-keyboard-response","418","701715","0.0-1.0-567.0","0","0","53548","","null","","","null","62","","","","","","","","","","","","","","","NaN",""
"","S1","","html-keyboard-response","419","701978","0.0-1.0-569.0","0","0","53548","","null","","","null","63","","","","","","","","","","","","","","","",""
"","ISI","","html-keyboard-response","420","702988","0.0-1.0-570.0","0","0","53548","","null","","","null","63","NaN","","","","","","","","","","","","","","",""
"","S2","","html-keyboard-response","421","703251","0.0-1.0-571.0","0","0","53548","","null","","","null","63","","NaN","","","","","","","","","","","","","",""
"","response","","html-keyboard-response","422","705012","0.0-1.0-572.0-0.0","0","0","53548","","null","","","null","63","","","2","63","training","adjacent","FG","6","7","R.jpg","P.jpg","NaN","1","0","",""
"","too_slow_prompt","","html-keyboard-response","423","706027","0.0-1.0-574.0-0.0","1","0","53548","","null","","","null","","","","","","","","","","","","","","","","",""
"","time_out","","html-keyboard-response","424","708041","0.0-1.0-575.0-0.0","0","0","53548","","null","","","null","63","","","","","","","","","","","","","","","",""
"","ITI","","html-keyboard-response","425","709055","0.0-1.0-576.0","0","0","53548","","null","","","null","63","","","","","","","","","","","","","","","NaN",""
"","S1","","html-keyboard-response","426","709318","0.0-1.0-578.0","0","0","53548","","null","","","null","64","","","","","","","","","","","","","","","",""
"","ISI","","html-keyboard-response","427","710326","0.0-1.0-579.0","0","0","53548","","null","","","null","64","NaN","","","","","","","","","","","","","","",""
"","S2","","html-keyboard-response","428","710587","0.0-1.0-580.0","0","0","53548","","null","","","null","64","","NaN","","","","","","","","","","","","","",""
"","response","","html-keyboard-response","429","712348","0.0-1.0-581.0-0.0","0","0","53548","","null","","","null","64","","","2","64","training","adjacent","DC","4","3","N.jpg","M.jpg","NaN","0","0","",""
"","too_slow_prompt","","html-keyboard-response","430","713360","0.0-1.0-583.0-0.0","1","0","53548","","null","","","null","","","","","","","","","","","","","","","","",""
"","time_out","","html-keyboard-response","431","715366","0.0-1.0-584.0-0.0","0","0","53548","","null","","","null","64","","","","","","","","","","","","","","","",""
"","ITI","","html-keyboard-response","432","716378","0.0-1.0-585.0","0","0","53548","","null","","","null","64","","","","","","","","","","","","","","","NaN",""
"","S1","","html-keyboard-response","433","716639","0.0-1.0-587.0","0","0","53548","","null","","","null","65","","","","","","","","","","","","","","","",""
"","ISI","","html-keyboard-response","434","717654","0.0-1.0-588.0","0","0","53548","","null","","","null","65","NaN","","","","","","","","","","","","","","",""
"","S2","","html-keyboard-response","435","717807","0.0-1.0-589.0","0","0","53548","","149","","","75","65","","k","2","65","training","adjacent","BC","2","3","O.jpg","M.jpg","0","1","0","",""
"","feedback","","html-keyboard-response","436","718811","0.0-1.0-591.0-0.0","0","0","53548","","null","","","null","65","","","","","","","","","","","","","","","",""
"","time_out","","html-keyboard-response","437","720820","0.0-1.0-593.0-0.0","0","0","53548","","null","","","null","65","","","","","","","","","","","","","","","",""
"","ITI","","html-keyboard-response","438","721836","0.0-1.0-594.0","0","0","53548","","376","","","68","65","","","","","","","","","","","","","","","d",""
"","S1","","html-keyboard-response","439","722101","0.0-1.0-596.0","0","0","53548","","null","","","null","66","","","","","","","","","","","","","","","",""
"","ISI","","html-keyboard-response","440","723118","0.0-1.0-597.0","0","0","53548","","418","","","68","66","d","","","","","","","","","","","","","","",""
"","S2","","html-keyboard-response","441","723362","0.0-1.0-598.0","0","0","53548","","239","","","68","66","","d","2","66","training","adjacent","EF","5","6","Q.jpg","R.jpg","1","1","1","",""
"","feedback","","html-keyboard-response","442","724384","0.0-1.0-600.0-0.0","0","0","53548","","null","","","null","66","","","","","","","","","","","","","","","",""
"","ITI","","html-keyboard-response","443","725399","0.0-1.0-603.0","0","0","53548","","null","","","null","66","","","","","","","","","","","","","","","NaN",""
"","S1","","html-keyboard-response","444","725658","0.0-1.0-605.0","0","0","53548","","null","","","null","67","","","","","","","","","","","","","","","",""
"","ISI","","html-keyboard-response","445","726670","0.0-1.0-606.0","0","0","53548","","null","","","null","67","NaN","","","","","","","","","","","","","","",""
"","S2","","html-keyboard-response","446","726933","0.0-1.0-607.0","0","0","53548","","null","","","null","67","","NaN","","","","","","","","","","","","","",""
"","response","","html-keyboard-response","447","728700","0.0-1.0-608.0-0.0","0","0","53548","","null","","","null","67","","","2","67","training","adjacent","CD","3","4","M.jpg","N.jpg","NaN","1","0","",""
"","too_slow_prompt","","html-keyboard-response","448","729716","0.0-1.0-610.0-0.0","1","0","53548","","null","","","null","","","","","","","","","","","","","","","","",""
"","time_out","","html-keyboard-response","449","731722","0.0-1.0-611.0-0.0","0","0","53548","","null","","","null","67","","","","","","","","","","","","","","","",""
"","ITI","","html-keyboard-response","450","732737","0.0-1.0-612.0","0","0","53548","","null","","","null","67","","","","","","","","","","","","","","","NaN",""
"","S1","","html-keyboard-response","451","732999","0.0-1.0-614.0","0","0","53548","","null","","","null","68","","","","","","","","","","","","","","","",""
"","ISI","","html-keyboard-response","452","734009","0.0-1.0-615.0","0","0","53548","","null","","","null","68","NaN","","","","","","","","","","","","","","",""
"","S2","","html-keyboard-response","453","734273","0.0-1.0-616.0","0","0","53548","","null","","","null","68","","NaN","","","","","","","","","","","","","",""
"","response","","html-keyboard-response","454","736037","0.0-1.0-617.0-0.0","0","0","53548","","null","","","null","68","","","2","68","training","adjacent","FG","6","7","R.jpg","P.jpg","NaN","1","0","",""
"","too_slow_prompt","","html-keyboard-response","455","737937","0.0-1.0-619.0-0.0","1","0","53548","","null","","","null","","","","","","","","","","","","","","","","",""
"","time_out","","html-keyboard-response","456","739950","0.0-1.0-620.0-0.0","0","0","53548","","null","","","null","68","","","","","","","","","","","","","","","",""
"","ITI","","html-keyboard-response","457","740963","0.0-1.0-621.0","0","0","53548","","null","","","null","68","","","","","","","","","","","","","","","NaN",""
"","S1","","html-keyboard-response","458","741969","0.0-1.0-623.0","0","0","53548","","null","","","null","69","","","","","","","","","","","","","","","",""
"","ISI","","html-keyboard-response","459","742979","0.0-1.0-624.0","0","0","53548","","null","","","null","69","NaN","","","","","","","","","","","","","","",""
"","S2","","html-keyboard-response","460","743990","0.0-1.0-625.0","0","0","53548","","null","","","null","69","","NaN","","","","","","","","","","","","","",""
"","response","","html-keyboard-response","461","745758","0.0-1.0-626.0-0.0","0","0","53548","","null","","","null","69","","","2","69","training","adjacent","FG","6","7","R.jpg","P.jpg","NaN","1","0","",""
"","too_slow_prompt","","html-keyboard-response","462","746768","0.0-1.0-628.0-0.0","1","0","53548","","null","","","null","","","","","","","","","","","","","","","","",""
"","time_out","","html-keyboard-response","463","748777","0.0-1.0-629.0-0.0","0","0","53548","","null","","","null","69","","","","","","","","","","","","","","","",""
"","ITI","","html-keyboard-response","464","749791","0.0-1.0-630.0","0","0","53548","","null","","","null","69","","","","","","","","","","","","","","","NaN",""
"","S1","","html-keyboard-response","465","750795","0.0-1.0-632.0","0","0","53548","","null","","","null","70","","","","","","","","","","","","","","","",""
"","ISI","","html-keyboard-response","466","751811","0.0-1.0-633.0","0","0","53548","","null","","","null","70","NaN","","","","","","","","","","","","","","",""
"","S2","","html-keyboard-response","467","752826","0.0-1.0-634.0","0","0","53548","","null","","","null","70","","NaN","","","","","","","","","","","","","",""
"","response","","html-keyboard-response","468","754582","0.0-1.0-635.0-0.0","0","0","53548","","null","","","null","70","","","2","70","training","adjacent","CD","3","4","M.jpg","N.jpg","NaN","1","0","",""
"","too_slow_prompt","","html-keyboard-response","469","755596","0.0-1.0-637.0-0.0","1","0","53548","","null","","","null","","","","","","","","","","","","","","","","",""
"","time_out","","html-keyboard-response","470","757609","0.0-1.0-638.0-0.0","0","0","53548","","null","","","null","70","","","","","","","","","","","","","","","",""
"","ITI","","html-keyboard-response","471","758617","0.0-1.0-639.0","0","0","53548","","null","","","null","70","","","","","","","","","","","","","","","NaN",""
"","S1","","html-keyboard-response","472","758885","0.0-1.0-641.0","0","0","53548","","null","","","null","71","","","","","","","","","","","","","","","",""
"","ISI","","html-keyboard-response","473","759902","0.0-1.0-642.0","0","0","53548","","null","","","null","71","NaN","","","","","","","","","","","","","","",""
"","S2","","html-keyboard-response","474","760166","0.0-1.0-643.0","0","0","53548","","null","","","null","71","","NaN","","","","","","","","","","","","","",""
"","response","","html-keyboard-response","475","761927","0.0-1.0-644.0-0.0","0","0","53548","","null","","","null","71","","","2","71","training","adjacent","FE","6","5","R.jpg","Q.jpg","NaN","0","0","",""
"","too_slow_prompt","","html-keyboard-response","476","762937","0.0-1.0-646.0-0.0","1","0","53548","","null","","","null","","","","","","","","","","","","","","","","",""
"","time_out","","html-keyboard-response","477","764946","0.0-1.0-647.0-0.0","0","0","53548","","null","","","null","71","","","","","","","","","","","","","","","",""
"","ITI","","html-keyboard-response","478","765957","0.0-1.0-648.0","0","0","53548","","null","","","null","71","","","","","","","","","","","","","","","NaN",""
"","S1","","html-keyboard-response","479","766223","0.0-1.0-650.0","0","0","53548","","null","","","null","72","","","","","","","","","","","","","","","",""
"","ISI","","html-keyboard-response","480","767238","0.0-1.0-651.0","0","0","53548","","null","","","null","72","NaN","","","","","","","","","","","","","","",""
"","S2","","html-keyboard-response","481","767504","0.0-1.0-652.0","0","0","53548","","null","","","null","72","","NaN","","","","","","","","","","","","","",""
"","response","","html-keyboard-response","482","769273","0.0-1.0-653.0-0.0","0","0","53548","","null","","","null","72","","","2","72","training","adjacent","BC","2","3","O.jpg","M.jpg","NaN","1","0","",""
"","too_slow_prompt","","html-keyboard-response","483","770283","0.0-1.0-655.0-0.0","1","0","53548","","null","","","null","","","","","","","","","","","","","","","","",""
"","time_out","","html-keyboard-response","484","772293","0.0-1.0-656.0-0.0","0","0","53548","","null","","","null","72","","","","","","","","","","","","","","","",""
"","ITI","","html-keyboard-response","485","773310","0.0-1.0-657.0","0","0","53548","","null","","","null","72","","","","","","","","","","","","","","","NaN",""
"","S1","","html-keyboard-response","486","773572","0.0-1.0-659.0","0","0","53548","","null","","","null","73","","","","","","","","","","","","","","","",""
"","ISI","","html-keyboard-response","487","774583","0.0-1.0-660.0","0","0","53548","","null","","","null","73","NaN","","","","","","","","","","","","","","",""
"","S2","","html-keyboard-response","488","774847","0.0-1.0-661.0","0","0","53548","","null","","","null","73","","NaN","","","","","","","","","","","","","",""
"","response","","html-keyboard-response","489","774997","0.0-1.0-662.0-0.0","0","0","53548","","147","","","75","73","","","2","73","training","adjacent","ED","5","4","Q.jpg","N.jpg","0","0","1","",""
"","feedback","","html-keyboard-response","490","776012","0.0-1.0-663.0-0.0","0","0","53548","","null","","","null","73","","","","","","","","","","","","","","","",""
"","ITI","","html-keyboard-response","491","777023","0.0-1.0-666.0","0","0","53548","","null","","","null","73","","","","","","","","","","","","","","","NaN",""
"","S1","","html-keyboard-response","492","777282","0.0-1.0-668.0","0","0","53548","","null","","","null","74","","","","","","","","","","","","","","","",""
"","ISI","","html-keyboard-response","493","778293","0.0-1.0-669.0","0","0","53548","","null","","","null","74","NaN","","","","","","","","","","","","","","",""
"","S2","","html-keyboard-response","494","778561","0.0-1.0-670.0","0","0","53548","","null","","","null","74","","NaN","","","","","","","","","","","","","",""
"","response","","html-keyboard-response","495","780323","0.0-1.0-671.0-0.0","0","0","53548","","null","","","null","74","","","2","74","training","adjacent","FG","6","7","R.jpg","P.jpg","NaN","1","0","",""
"","too_slow_prompt","","html-keyboard-response","496","781336","0.0-1.0-673.0-0.0","1","0","53548","","null","","","null","","","","","","","","","","","","","","","","",""
"","time_out","","html-keyboard-response","497","783350","0.0-1.0-674.0-0.0","0","0","53548","","null","","","null","74","","","","","","","","","","","","","","","",""
"","ITI","","html-keyboard-response","498","784369","0.0-1.0-675.0","0","0","53548","","267","","","68","74","","","","","","","","","","","","","","","d",""
"","S1","","html-keyboard-response","499","784632","0.0-1.0-677.0","0","0","53548","","null","","","null","75","","","","","","","","","","","","","","","",""
"","ISI","","html-keyboard-response","500","785642","0.0-1.0-678.0","0","0","53548","","554","","","68","75","d","","","","","","","","","","","","","","",""
"","S2","","html-keyboard-response","501","785700","0.0-1.0-679.0","0","0","53548","","51","","","68","75","","d","2","75","training","adjacent","EF","5","6","Q.jpg","R.jpg","1","1","1","",""
"","feedback","","html-keyboard-response","502","786719","0.0-1.0-681.0-0.0","0","0","53548","","null","","","null","75","","","","","","","","","","","","","","","",""
"","ITI","","html-keyboard-response","503","787737","0.0-1.0-684.0","0","0","53548","","711","","","75","75","","","","","","","","","","","","","","","k",""
"","S1","","html-keyboard-response","504","787998","0.0-1.0-686.0","0","0","53548","","null","","","null","76","","","","","","","","","","","","","","","",""
"","ISI","","html-keyboard-response","505","789012","0.0-1.0-687.0","0","0","53548","","294","","","75","76","k","","","","","","","","","","","","","","",""
"","S2","","html-keyboard-response","506","789245","0.0-1.0-688.0","0","0","53548","","223","","","75","76","","k","2","76","training","adjacent","AB","1","2","L.jpg","O.jpg","0","1","0","",""
"","feedback","","html-keyboard-response","507","790260","0.0-1.0-690.0-0.0","0","0","53548","","null","","","null","76","","","","","","","","","","","","","","","",""
"","time_out","","html-keyboard-response","508","792276","0.0-1.0-692.0-0.0","0","0","53548","","null","","","null","76","","","","","","","","","","","","","","","",""
"","ITI","","html-keyboard-response","509","793290","0.0-1.0-693.0","0","0","53548","","null","","","null","76","","","","","","","","","","","","","","","NaN",""
"","S1","","html-keyboard-response","510","793554","0.0-1.0-695.0","0","0","53548","","null","","","null","77","","","","","","","","","","","","","","","",""
"","ISI","","html-keyboard-response","511","794560","0.0-1.0-696.0","0","0","53548","","null","","","null","77","NaN","","","","","","","","","","","","","","",""
"","S2","","html-keyboard-response","512","794823","0.0-1.0-697.0","0","0","53548","","null","","","null","77","","NaN","","","","","","","","","","","","","",""
"","response","","html-keyboard-response","513","796584","0.0-1.0-698.0-0.0","0","0","53548","","null","","","null","77","","","2","77","training","adjacent","FE","6","5","R.jpg","Q.jpg","NaN","0","0","",""
"","too_slow_prompt","","html-keyboard-response","514","797694","0.0-1.0-700.0-0.0","1","0","53548","","null","","","null","","","","","","","","","","","","","","","","",""
"","time_out","","html-keyboard-response","515","799705","0.0-1.0-701.0-0.0","0","0","53548","","null","","","null","77","","","","","","","","","","","","","","","",""
"","ITI","","html-keyboard-response","516","803834","0.0-1.0-702.0","0","0","53548","","null","","","null","77","","","","","","","","","","","","","","","NaN",""
"","S1","","html-keyboard-response","517","805866","0.0-1.0-704.0","0","0","53548","","null","","","null","78","","","","","","","","","","","","","","","",""
"","ISI","","html-keyboard-response","518","806880","0.0-1.0-705.0","0","0","53548","","null","","","null","78","NaN","","","","","","","","","","","","","","",""
"","S2","","html-keyboard-response","519","807886","0.0-1.0-706.0","0","0","53548","","null","","","null","78","","NaN","","","","","","","","","","","","","",""
"","response","","html-keyboard-response","520","809652","0.0-1.0-707.0-0.0","0","0","53548","","null","","","null","78","","","2","78","training","adjacent","AB","1","2","L.jpg","O.jpg","NaN","1","0","",""
"","too_slow_prompt","","html-keyboard-response","521","810665","0.0-1.0-709.0-0.0","1","0","53548","","null","","","null","","","","","","","","","","","","","","","","",""
"","time_out","","html-keyboard-response","522","812684","0.0-1.0-710.0-0.0","0","0","53548","","null","","","null","78","","","","","","","","","","","","","","","",""
"","ITI","","html-keyboard-response","523","813694","0.0-1.0-711.0","0","0","53548","","null","","","null","78","","","","","","","","","","","","","","","NaN",""
"","S1","","html-keyboard-response","524","814701","0.0-1.0-713.0","0","0","53548","","null","","","null","79","","","","","","","","","","","","","","","",""
"","ISI","","html-keyboard-response","525","815706","0.0-1.0-714.0","0","0","53548","","null","","","null","79","NaN","","","","","","","","","","","","","","",""
"","S2","","html-keyboard-response","526","816717","0.0-1.0-715.0","0","0","53548","","null","","","null","79","","NaN","","","","","","","","","","","","","",""
"","response","","html-keyboard-response","527","818483","0.0-1.0-716.0-0.0","0","0","53548","","null","","","null","79","","","2","79","training","adjacent","EF","5","6","Q.jpg","R.jpg","NaN","1","0","",""
"","too_slow_prompt","","html-keyboard-response","528","819494","0.0-1.0-718.0-0.0","1","0","53548","","null","","","null","","","","","","","","","","","","","","","","",""
"","time_out","","html-keyboard-response","529","821514","0.0-1.0-719.0-0.0","0","0","53548","","null","","","null","79","","","","","","","","","","","","","","","",""
"","ITI","","html-keyboard-response","530","822524","0.0-1.0-720.0","0","0","53548","","null","","","null","79","","","","","","","","","","","","","","","NaN",""
"","S1","","html-keyboard-response","531","823548","0.0-1.0-722.0","0","0","53548","","null","","","null","80","","","","","","","","","","","","","","","",""
"","ISI","","html-keyboard-response","532","824562","0.0-1.0-723.0","0","0","53548","","null","","","null","80","NaN","","","","","","","","","","","","","","",""
"","S2","","html-keyboard-response","533","825579","0.0-1.0-724.0","0","0","53548","","null","","","null","80","","NaN","","","","","","","","","","","","","",""
"","response","","html-keyboard-response","534","827338","0.0-1.0-725.0-0.0","0","0","53548","","null","","","null","80","","","2","80","training","adjacent","BA","2","1","O.jpg","L.jpg","NaN","0","0","",""
"","too_slow_prompt","","html-keyboard-response","535","828352","0.0-1.0-727.0-0.0","1","0","53548","","null","","","null","","","","","","","","","","","","","","","","",""
"","time_out","","html-keyboard-response","536","830357","0.0-1.0-728.0-0.0","0","0","53548","","null","","","null","80","","","","","","","","","","","","","","","",""
"","ITI","","html-keyboard-response","537","831372","0.0-1.0-729.0","0","0","53548","","null","","","null","80","","","","","","","","","","","","","","","NaN",""
"","S1","","html-keyboard-response","538","832387","0.0-1.0-731.0","0","0","53548","","null","","","null","81","","","","","","","","","","","","","","","",""
"","ISI","","html-keyboard-response","539","833404","0.0-1.0-732.0","0","0","53548","","null","","","null","81","NaN","","","","","","","","","","","","","","",""
"","S2","","html-keyboard-response","540","834413","0.0-1.0-733.0","0","0","53548","","null","","","null","81","","NaN","","","","","","","","","","","","","",""
"","response","","html-keyboard-response","541","836176","0.0-1.0-734.0-0.0","0","0","53548","","null","","","null","81","","","2","81","training","adjacent","BA","2","1","O.jpg","L.jpg","NaN","0","0","",""
"","too_slow_prompt","","html-keyboard-response","542","837191","0.0-1.0-736.0-0.0","1","0","53548","","null","","","null","","","","","","","","","","","","","","","","",""
"","time_out","","html-keyboard-response","543","839208","0.0-1.0-737.0-0.0","0","0","53548","","null","","","null","81","","","","","","","","","","","","","","","",""
"","ITI","","html-keyboard-response","544","840216","0.0-1.0-738.0","0","0","53548","","null","","","null","81","","","","","","","","","","","","","","","NaN",""
"","S1","","html-keyboard-response","545","841586","0.0-1.0-740.0","0","0","53548","","null","","","null","82","","","","","","","","","","","","","","","",""
"","ISI","","html-keyboard-response","546","861162","0.0-1.0-741.0","0","0","53548","","null","","","null","82","NaN","","","","","","","","","","","","","","",""
"","S2","","html-keyboard-response","547","866976","0.0-1.0-742.0","0","0","53548","","null","","","null","82","","NaN","","","","","","","","","","","","","",""
"","response","","html-keyboard-response","548","885449","0.0-1.0-743.0-0.0","0","0","53548","","null","","","null","82","","","2","82","training","adjacent","BC","2","3","O.jpg","M.jpg","NaN","1","0","",""
"","too_slow_prompt","","html-keyboard-response","549","901540","0.0-1.0-745.0-0.0","1","0","53548","","null","","","null","","","","","","","","","","","","","","","","",""
"","time_out","","html-keyboard-response","550","907458","0.0-1.0-746.0-0.0","0","0","53548","","null","","","null","82","","","","","","","","","","","","","","","",""
"","ITI","","html-keyboard-response","551","908477","0.0-1.0-747.0","0","0","53548","","null","","","null","82","","","","","","","","","","","","","","","NaN",""
"","S1","","html-keyboard-response","552","909495","0.0-1.0-749.0","0","0","53548","","null","","","null","83","","","","","","","","","","","","","","","",""
"","ISI","","html-keyboard-response","553","910501","0.0-1.0-750.0","0","0","53548","","null","","","null","83","NaN","","","","","","","","","","","","","","",""
"","S2","","html-keyboard-response","554","912029","0.0-1.0-751.0","0","0","53548","","null","","","null","83","","NaN","","","","","","","","","","","","","",""
"","response","","html-keyboard-response","555","928301","0.0-1.0-752.0-0.0","0","0","53548","","null","","","null","83","","","2","83","training","adjacent","DC","4","3","N.jpg","M.jpg","NaN","0","0","",""
"","too_slow_prompt","","html-keyboard-response","556","930324","0.0-1.0-754.0-0.0","1","0","53548","","null","","","null","","","","","","","","","","","","","","","","",""
"","time_out","","html-keyboard-response","557","932333","0.0-1.0-755.0-0.0","0","0","53548","","null","","","null","83","","","","","","","","","","","","","","","",""
"","ITI","","html-keyboard-response","558","933345","0.0-1.0-756.0","0","0","53548","","null","","","null","83","","","","","","","","","","","","","","","NaN",""
"","S1","","html-keyboard-response","559","934346","0.0-1.0-758.0","0","0","53548","","null","","","null","84","","","","","","","","","","","","","","","",""
"","ISI","","html-keyboard-response","560","935363","0.0-1.0-759.0","0","0","53548","","null","","","null","84","NaN","","","","","","","","","","","","","","",""
"","S2","","html-keyboard-response","561","936371","0.0-1.0-760.0","0","0","53548","","null","","","null","84","","NaN","","","","","","","","","","","","","",""
"","response","","html-keyboard-response","562","938139","0.0-1.0-761.0-0.0","0","0","53548","","null","","","null","84","","","2","84","training","adjacent","CD","3","4","M.jpg","N.jpg","NaN","1","0","",""
"","too_slow_prompt","","html-keyboard-response","563","939147","0.0-1.0-763.0-0.0","1","0","53548","","null","","","null","","","","","","","","","","","","","","","","",""
"","time_out","","html-keyboard-response","564","941168","0.0-1.0-764.0-0.0","0","0","53548","","null","","","null","84","","","","","","","","","","","","","","","",""
"","ITI","","html-keyboard-response","565","942177","0.0-1.0-765.0","0","0","53548","","null","","","null","84","","","","","","","","","","","","","","","NaN",""
"","S1","","html-keyboard-response","566","943187","0.0-1.0-767.0","0","0","53548","","null","","","null","85","","","","","","","","","","","","","","","",""
"","ISI","","html-keyboard-response","567","944198","0.0-1.0-768.0","0","0","53548","","null","","","null","85","NaN","","","","","","","","","","","","","","",""
"","S2","","html-keyboard-response","568","945212","0.0-1.0-769.0","0","0","53548","","null","","","null","85","","NaN","","","","","","","","","","","","","",""
"","response","","html-keyboard-response","569","946973","0.0-1.0-770.0-0.0","0","0","53548","","null","","","null","85","","","2","85","training","adjacent","DE","4","5","N.jpg","Q.jpg","NaN","1","0","",""
"","too_slow_prompt","","html-keyboard-response","570","947995","0.0-1.0-772.0-0.0","1","0","53548","","null","","","null","","","","","","","","","","","","","","","","",""
"","time_out","","html-keyboard-response","571","950002","0.0-1.0-773.0-0.0","0","0","53548","","null","","","null","85","","","","","","","","","","","","","","","",""
"","ITI","","html-keyboard-response","572","951013","0.0-1.0-774.0","0","0","53548","","null","","","null","85","","","","","","","","","","","","","","","NaN",""
"","S1","","html-keyboard-response","573","952028","0.0-1.0-776.0","0","0","53548","","null","","","null","86","","","","","","","","","","","","","","","",""
"","ISI","","html-keyboard-response","574","953040","0.0-1.0-777.0","0","0","53548","","null","","","null","86","NaN","","","","","","","","","","","","","","",""
"","S2","","html-keyboard-response","575","954051","0.0-1.0-778.0","0","0","53548","","null","","","null","86","","NaN","","","","","","","","","","","","","",""
"","response","","html-keyboard-response","576","955817","0.0-1.0-779.0-0.0","0","0","53548","","null","","","null","86","","","2","86","training","adjacent","GF","7","6","P.jpg","R.jpg","NaN","0","0","",""
"","too_slow_prompt","","html-keyboard-response","577","956831","0.0-1.0-781.0-0.0","1","0","53548","","null","","","null","","","","","","","","","","","","","","","","",""
