"success","ttype","start_time","trial_type","trial_index","time_elapsed","internal_node_id","warning","missed_checkup","PID","view_history","rt","responses","repeat_instructions","key_press","index","keypress_isi","keypress_S2","block","trial_num","phase","group_type","pair_type","S1_stim","S2_stim","S1_img","S2_img","S1_chosen","S1_higher","accuracy","keypress_iti","total_bonus_tally"
"true","full_screen","d03072023hr1844","fullscreen","0","13945","0.0-0.0","0","0","76028","","","","","","","","","","","","","","","","","","","","","",""
"","instructions","","instructions","1","39803","0.0-1.0-0.0-0.0","0","0","76028","[{""page_index"":0,""viewing_time"":4141},{""page_index"":1,""viewing_time"":11312},{""page_index"":2,""viewing_time"":8584},{""page_index"":3,""viewing_time"":1816}]","25854","","","","","","","","","","","","","","","","","","","",""
"","comprehension_check","","survey-multi-choice","2","53692","0.0-1.0-0.0-1.0","0","0","76028","","13881","{""Q0"":""True"",""Q1"":""D"",""Q2"":""Once the second image appears and while the screen 'MAKE A CHOICE' is shown"",""Q3"":""Green mark"",""Q4"":""either D or K""}","0","","","","","","","","","","","","","","","","","",""
"","start_exp","","html-keyboard-response","3","55836","0.0-1.0-1.0","0","0","76028","","2138","","","32","","","","","","","","","","","","","","","","",""
"","S1","","html-keyboard-response","4","56094","0.0-1.0-2.0","0","0","76028","","null","","","null","0","","","","","","","","","","","","","","","",""
"","ISI","","html-keyboard-response","5","57103","0.0-1.0-3.0","0","0","76028","","null","","","null","0","NaN","","","","","","","","","","","","","","",""
"","S2","","html-keyboard-response","6","57369","0.0-1.0-4.0","0","0","76028","","null","","","null","0","","NaN","","","","","","","","","","","","","",""
"","response","","html-keyboard-response","7","59134","0.0-1.0-5.0-0.0","0","0","76028","","null","","","null","0","","","1","0","training","adjacent","DE","4","5","R.jpg","L.jpg","NaN","1","0","",""
"","too_slow_prompt","","html-keyboard-response","8","60142","0.0-1.0-7.0-0.0","1","0","76028","","null","","","null","","","","","","","","","","","","","","","","",""
"","time_out","","html-keyboard-response","9","62153","0.0-1.0-8.0-0.0","0","0","76028","","null","","","null","0","","","","","","","","","","","","","","","",""
"","ITI","","html-keyboard-response","10","63166","0.0-1.0-9.0","0","0","76028","","null","","","null","0","","","","","","","","","","","","","","","NaN",""
"","S1","","html-keyboard-response","11","63433","0.0-1.0-11.0","0","0","76028","","null","","","null","1","","","","","","","","","","","","","","","",""
"","ISI","","html-keyboard-response","12","64446","0.0-1.0-12.0","0","0","76028","","null","","","null","1","NaN","","","","","","","","","","","","","","",""
"","S2","","html-keyboard-response","13","64712","0.0-1.0-13.0","0","0","76028","","null","","","null","1","","NaN","","","","","","","","","","","","","",""
"","response","","html-keyboard-response","14","64803","0.0-1.0-14.0-0.0","0","0","76028","","87","","","68","1","","","1","1","training","adjacent","BC","2","3","P.jpg","O.jpg","1","1","1","",""
"","feedback","","html-keyboard-response","15","65813","0.0-1.0-15.0-0.0","0","0","76028","","null","","","null","1","","","","","","","","","","","","","","","",""
"","ITI","","html-keyboard-response","16","66825","0.0-1.0-18.0","0","0","76028","","null","","","null","1","","","","","","","","","","","","","","","NaN",""
"","S1","","html-keyboard-response","17","67086","0.0-1.0-20.0","0","0","76028","","null","","","null","2","","","","","","","","","","","","","","","",""
"","ISI","","html-keyboard-response","18","68094","0.0-1.0-21.0","0","0","76028","","null","","","null","2","NaN","","","","","","","","","","","","","","",""
"","S2","","html-keyboard-response","19","68358","0.0-1.0-22.0","0","0","76028","","null","","","null","2","","NaN","","","","","","","","","","","","","",""
"","response","","html-keyboard-response","20","68642","0.0-1.0-23.0-0.0","0","0","76028","","281","","","68","2","","","1","2","training","adjacent","CD","3","4","O.jpg","R.jpg","1","1","1","",""
"","feedback","","html-keyboard-response","21","69656","0.0-1.0-24.0-0.0","0","0","76028","","null","","","null","2","","","","","","","","","","","","","","","",""
"","ITI","","html-keyboard-response","22","70670","0.0-1.0-27.0","0","0","76028","","null","","","null","2","","","","","","","","","","","","","","","NaN",""
"","S1","","html-keyboard-response","23","70936","0.0-1.0-29.0","0","0","76028","","null","","","null","3","","","","","","","","","","","","","","","",""
"","ISI","","html-keyboard-response","24","71949","0.0-1.0-30.0","0","0","76028","","null","","","null","3","NaN","","","","","","","","","","","","","","",""
"","S2","","html-keyboard-response","25","72216","0.0-1.0-31.0","0","0","76028","","null","","","null","3","","NaN","","","","","","","","","","","","","",""
"","response","","html-keyboard-response","26","72474","0.0-1.0-32.0-0.0","0","0","76028","","254","","","75","3","","","1","3","training","adjacent","DC","4","3","R.jpg","O.jpg","0","0","1","",""
"","feedback","","html-keyboard-response","27","73486","0.0-1.0-33.0-0.0","0","0","76028","","null","","","null","3","","","","","","","","","","","","","","","",""
"","ITI","","html-keyboard-response","28","74494","0.0-1.0-36.0","0","0","76028","","null","","","null","3","","","","","","","","","","","","","","","NaN",""
"","S1","","html-keyboard-response","29","74760","0.0-1.0-38.0","0","0","76028","","null","","","null","4","","","","","","","","","","","","","","","",""
"","ISI","","html-keyboard-response","30","75774","0.0-1.0-39.0","0","0","76028","","null","","","null","4","NaN","","","","","","","","","","","","","","",""
"","S2","","html-keyboard-response","31","76040","0.0-1.0-40.0","0","0","76028","","null","","","null","4","","NaN","","","","","","","","","","","","","",""
"","response","","html-keyboard-response","32","76355","0.0-1.0-41.0-0.0","0","0","76028","","311","","","75","4","","","1","4","training","adjacent","AB","1","2","Q.jpg","P.jpg","0","1","0","",""
"","feedback","","html-keyboard-response","33","77368","0.0-1.0-42.0-0.0","0","0","76028","","null","","","null","4","","","","","","","","","","","","","","","",""
"","time_out","","html-keyboard-response","34","79384","0.0-1.0-44.0-0.0","0","0","76028","","null","","","null","4","","","","","","","","","","","","","","","",""
"","ITI","","html-keyboard-response","35","80397","0.0-1.0-45.0","0","0","76028","","null","","","null","4","","","","","","","","","","","","","","","NaN",""
"","S1","","html-keyboard-response","36","80664","0.0-1.0-47.0","0","0","76028","","null","","","null","5","","","","","","","","","","","","","","","",""
"","ISI","","html-keyboard-response","37","81677","0.0-1.0-48.0","0","0","76028","","null","","","null","5","NaN","","","","","","","","","","","","","","",""
"","S2","","html-keyboard-response","38","81944","0.0-1.0-49.0","0","0","76028","","null","","","null","5","","NaN","","","","","","","","","","","","","",""
"","response","","html-keyboard-response","39","82242","0.0-1.0-50.0-0.0","0","0","76028","","294","","","75","5","","","1","5","training","adjacent","AB","1","2","Q.jpg","P.jpg","0","1","0","",""
"","feedback","","html-keyboard-response","40","83253","0.0-1.0-51.0-0.0","0","0","76028","","null","","","null","5","","","","","","","","","","","","","","","",""
"","time_out","","html-keyboard-response","41","85261","0.0-1.0-53.0-0.0","0","0","76028","","null","","","null","5","","","","","","","","","","","","","","","",""
"","ITI","","html-keyboard-response","42","86269","0.0-1.0-54.0","0","0","76028","","null","","","null","5","","","","","","","","","","","","","","","NaN",""
"","S1","","html-keyboard-response","43","86536","0.0-1.0-56.0","0","0","76028","","null","","","null","6","","","","","","","","","","","","","","","",""
"","ISI","","html-keyboard-response","44","87549","0.0-1.0-57.0","0","0","76028","","null","","","null","6","NaN","","","","","","","","","","","","","","",""
"","S2","","html-keyboard-response","45","87816","0.0-1.0-58.0","0","0","76028","","null","","","null","6","","NaN","","","","","","","","","","","","","",""
"","response","","html-keyboard-response","46","88187","0.0-1.0-59.0-0.0","0","0","76028","","366","","","68","6","","","1","6","training","adjacent","EF","5","6","L.jpg","N.jpg","1","1","1","",""
"","feedback","","html-keyboard-response","47","89194","0.0-1.0-60.0-0.0","0","0","76028","","null","","","null","6","","","","","","","","","","","","","","","",""
"","ITI","","html-keyboard-response","48","90205","0.0-1.0-63.0","0","0","76028","","null","","","null","6","","","","","","","","","","","","","","","NaN",""
"","S1","","html-keyboard-response","49","90472","0.0-1.0-65.0","0","0","76028","","null","","","null","7","","","","","","","","","","","","","","","",""
"","ISI","","html-keyboard-response","50","91482","0.0-1.0-66.0","0","0","76028","","null","","","null","7","NaN","","","","","","","","","","","","","","",""
"","S2","","html-keyboard-response","51","91741","0.0-1.0-67.0","0","0","76028","","null","","","null","7","","NaN","","","","","","","","","","","","","",""
"","response","","html-keyboard-response","52","92202","0.0-1.0-68.0-0.0","0","0","76028","","456","","","75","7","","","1","7","training","adjacent","FG","6","7","N.jpg","M.jpg","0","1","0","",""
"","feedback","","html-keyboard-response","53","93213","0.0-1.0-69.0-0.0","0","0","76028","","null","","","null","7","","","","","","","","","","","","","","","",""
"","time_out","","html-keyboard-response","54","95223","0.0-1.0-71.0-0.0","0","0","76028","","null","","","null","7","","","","","","","","","","","","","","","",""
"","ITI","","html-keyboard-response","55","96235","0.0-1.0-72.0","0","0","76028","","null","","","null","7","","","","","","","","","","","","","","","NaN",""
"","S1","","html-keyboard-response","56","96493","0.0-1.0-74.0","0","0","76028","","null","","","null","8","","","","","","","","","","","","","","","",""
"","ISI","","html-keyboard-response","57","97502","0.0-1.0-75.0","0","0","76028","","null","","","null","8","NaN","","","","","","","","","","","","","","",""
"","S2","","html-keyboard-response","58","97768","0.0-1.0-76.0","0","0","76028","","null","","","null","8","","NaN","","","","","","","","","","","","","",""
"","response","","html-keyboard-response","59","98026","0.0-1.0-77.0-0.0","0","0","76028","","254","","","68","8","","","1","8","training","adjacent","CD","3","4","O.jpg","R.jpg","1","1","1","",""
"","feedback","","html-keyboard-response","60","99037","0.0-1.0-78.0-0.0","0","0","76028","","null","","","null","8","","","","","","","","","","","","","","","",""
"","ITI","","html-keyboard-response","61","100044","0.0-1.0-81.0","0","0","76028","","null","","","null","8","","","","","","","","","","","","","","","NaN",""
"","S1","","html-keyboard-response","62","100312","0.0-1.0-83.0","0","0","76028","","null","","","null","9","","","","","","","","","","","","","","","",""
"","ISI","","html-keyboard-response","63","101325","0.0-1.0-84.0","0","0","76028","","null","","","null","9","NaN","","","","","","","","","","","","","","",""
"","S2","","html-keyboard-response","64","101592","0.0-1.0-85.0","0","0","76028","","null","","","null","9","","NaN","","","","","","","","","","","","","",""
"","response","","html-keyboard-response","65","102018","0.0-1.0-86.0-0.0","0","0","76028","","423","","","68","9","","","1","9","training","adjacent","EF","5","6","L.jpg","N.jpg","1","1","1","",""
"","feedback","","html-keyboard-response","66","103031","0.0-1.0-87.0-0.0","0","0","76028","","null","","","null","9","","","","","","","","","","","","","","","",""
"","ITI","","html-keyboard-response","67","104045","0.0-1.0-90.0","0","0","76028","","null","","","null","9","","","","","","","","","","","","","","","NaN",""
"","S1","","html-keyboard-response","68","104309","0.0-1.0-92.0","0","0","76028","","null","","","null","10","","","","","","","","","","","","","","","",""
"","ISI","","html-keyboard-response","69","105317","0.0-1.0-93.0","0","0","76028","","null","","","null","10","NaN","","","","","","","","","","","","","","",""
"","S2","","html-keyboard-response","70","105581","0.0-1.0-94.0","0","0","76028","","null","","","null","10","","NaN","","","","","","","","","","","","","",""
"","response","","html-keyboard-response","71","105784","0.0-1.0-95.0-0.0","0","0","76028","","199","","","68","10","","","1","10","training","adjacent","FE","6","5","N.jpg","L.jpg","1","0","0","",""
"","feedback","","html-keyboard-response","72","106797","0.0-1.0-96.0-0.0","0","0","76028","","null","","","null","10","","","","","","","","","","","","","","","",""
"","time_out","","html-keyboard-response","73","108807","0.0-1.0-98.0-0.0","0","0","76028","","null","","","null","10","","","","","","","","","","","","","","","",""
"","ITI","","html-keyboard-response","74","109821","0.0-1.0-99.0","0","0","76028","","null","","","null","10","","","","","","","","","","","","","","","NaN",""
"","S1","","html-keyboard-response","75","110087","0.0-1.0-101.0","0","0","76028","","null","","","null","11","","","","","","","","","","","","","","","",""
"","ISI","","html-keyboard-response","76","111102","0.0-1.0-102.0","0","0","76028","","null","","","null","11","NaN","","","","","","","","","","","","","","",""
"","S2","","html-keyboard-response","77","111367","0.0-1.0-103.0","0","0","76028","","null","","","null","11","","NaN","","","","","","","","","","","","","",""
"","response","","html-keyboard-response","78","111683","0.0-1.0-104.0-0.0","0","0","76028","","311","","","75","11","","","1","11","training","adjacent","BA","2","1","P.jpg","Q.jpg","0","0","1","",""
"","feedback","","html-keyboard-response","79","112695","0.0-1.0-105.0-0.0","0","0","76028","","null","","","null","11","","","","","","","","","","","","","","","",""
"","ITI","","html-keyboard-response","80","113709","0.0-1.0-108.0","0","0","76028","","null","","","null","11","","","","","","","","","","","","","","","NaN",""
"","S1","","html-keyboard-response","81","113975","0.0-1.0-110.0","0","0","76028","","null","","","null","12","","","","","","","","","","","","","","","",""
"","ISI","","html-keyboard-response","82","114988","0.0-1.0-111.0","0","0","76028","","null","","","null","12","NaN","","","","","","","","","","","","","","",""
"","S2","","html-keyboard-response","83","115255","0.0-1.0-112.0","0","0","76028","","null","","","null","12","","NaN","","","","","","","","","","","","","",""
"","response","","html-keyboard-response","84","115699","0.0-1.0-113.0-0.0","0","0","76028","","439","","","75","12","","","1","12","training","adjacent","DE","4","5","R.jpg","L.jpg","0","1","0","",""
"","feedback","","html-keyboard-response","85","116711","0.0-1.0-114.0-0.0","0","0","76028","","null","","","null","12","","","","","","","","","","","","","","","",""
"","time_out","","html-keyboard-response","86","118727","0.0-1.0-116.0-0.0","0","0","76028","","null","","","null","12","","","","","","","","","","","","","","","",""
"","ITI","","html-keyboard-response","87","119741","0.0-1.0-117.0","0","0","76028","","null","","","null","12","","","","","","","","","","","","","","","NaN",""
"","S1","","html-keyboard-response","88","120007","0.0-1.0-119.0","0","0","76028","","null","","","null","13","","","","","","","","","","","","","","","",""
"","ISI","","html-keyboard-response","89","121020","0.0-1.0-120.0","0","0","76028","","null","","","null","13","NaN","","","","","","","","","","","","","","",""
"","S2","","html-keyboard-response","90","121287","0.0-1.0-121.0","0","0","76028","","null","","","null","13","","NaN","","","","","","","","","","","","","",""
"","response","","html-keyboard-response","91","122146","0.0-1.0-122.0-0.0","0","0","76028","","855","","","75","13","","","1","13","training","adjacent","GF","7","6","M.jpg","N.jpg","0","0","1","",""
"","feedback","","html-keyboard-response","92","123156","0.0-1.0-123.0-0.0","0","0","76028","","null","","","null","13","","","","","","","","","","","","","","","",""
"","ITI","","html-keyboard-response","93","124167","0.0-1.0-126.0","0","0","76028","","null","","","null","13","","","","","","","","","","","","","","","NaN",""
"","S1","","html-keyboard-response","94","124429","0.0-1.0-128.0","0","0","76028","","null","","","null","14","","","","","","","","","","","","","","","",""
"","ISI","","html-keyboard-response","95","125436","0.0-1.0-129.0","0","0","76028","","null","","","null","14","NaN","","","","","","","","","","","","","","",""
"","S2","","html-keyboard-response","96","125703","0.0-1.0-130.0","0","0","76028","","null","","","null","14","","NaN","","","","","","","","","","","","","",""
"","response","","html-keyboard-response","97","126442","0.0-1.0-131.0-0.0","0","0","76028","","735","","","75","14","","","1","14","training","adjacent","FE","6","5","N.jpg","L.jpg","0","0","1","",""
"","feedback","","html-keyboard-response","98","127452","0.0-1.0-132.0-0.0","0","0","76028","","null","","","null","14","","","","","","","","","","","","","","","",""
"","ITI","","html-keyboard-response","99","128460","0.0-1.0-135.0","0","0","76028","","null","","","null","14","","","","","","","","","","","","","","","NaN",""
"","S1","","html-keyboard-response","100","128724","0.0-1.0-137.0","0","0","76028","","null","","","null","15","","","","","","","","","","","","","","","",""
"","ISI","","html-keyboard-response","101","129735","0.0-1.0-138.0","0","0","76028","","null","","","null","15","NaN","","","","","","","","","","","","","","",""
"","S2","","html-keyboard-response","102","129996","0.0-1.0-139.0","0","0","76028","","null","","","null","15","","NaN","","","","","","","","","","","","","",""
"","response","","html-keyboard-response","103","130506","0.0-1.0-140.0-0.0","0","0","76028","","505","","","68","15","","","1","15","training","adjacent","CB","3","2","O.jpg","P.jpg","1","0","0","",""
"","feedback","","html-keyboard-response","104","131516","0.0-1.0-141.0-0.0","0","0","76028","","null","","","null","15","","","","","","","","","","","","","","","",""
"","time_out","","html-keyboard-response","105","133527","0.0-1.0-143.0-0.0","0","0","76028","","null","","","null","15","","","","","","","","","","","","","","","",""
"","ITI","","html-keyboard-response","106","134540","0.0-1.0-144.0","0","0","76028","","null","","","null","15","","","","","","","","","","","","","","","NaN",""
"","S1","","html-keyboard-response","107","134807","0.0-1.0-146.0","0","0","76028","","null","","","null","16","","","","","","","","","","","","","","","",""
"","ISI","","html-keyboard-response","108","135820","0.0-1.0-147.0","0","0","76028","","null","","","null","16","NaN","","","","","","","","","","","","","","",""
"","S2","","html-keyboard-response","109","136087","0.0-1.0-148.0","0","0","76028","","null","","","null","16","","NaN","","","","","","","","","","","","","",""
"","response","","html-keyboard-response","110","136401","0.0-1.0-149.0-0.0","0","0","76028","","311","","","75","16","","","1","16","training","adjacent","DC","4","3","R.jpg","O.jpg","0","0","1","",""
"","feedback","","html-keyboard-response","111","137415","0.0-1.0-150.0-0.0","0","0","76028","","null","","","null","16","","","","","","","","","","","","","","","",""
"","ITI","","html-keyboard-response","112","138428","0.0-1.0-153.0","0","0","76028","","null","","","null","16","","","","","","","","","","","","","","","NaN",""
"","S1","","html-keyboard-response","113","138695","0.0-1.0-155.0","0","0","76028","","null","","","null","17","","","","","","","","","","","","","","","",""
"","ISI","","html-keyboard-response","114","139708","0.0-1.0-156.0","0","0","76028","","null","","","null","17","NaN","","","","","","","","","","","","","","",""
"","S2","","html-keyboard-response","115","139975","0.0-1.0-157.0","0","0","76028","","null","","","null","17","","NaN","","","","","","","","","","","","","",""
"","response","","html-keyboard-response","116","140258","0.0-1.0-158.0-0.0","0","0","76028","","279","","","75","17","","","1","17","training","adjacent","BA","2","1","P.jpg","Q.jpg","0","0","1","",""
"","feedback","","html-keyboard-response","117","141271","0.0-1.0-159.0-0.0","0","0","76028","","null","","","null","17","","","","","","","","","","","","","","","",""
"","ITI","","html-keyboard-response","118","142283","0.0-1.0-162.0","0","0","76028","","null","","","null","17","","","","","","","","","","","","","","","NaN",""
"","S1","","html-keyboard-response","119","142550","0.0-1.0-164.0","0","0","76028","","null","","","null","18","","","","","","","","","","","","","","","",""
"","ISI","","html-keyboard-response","120","143564","0.0-1.0-165.0","0","0","76028","","null","","","null","18","NaN","","","","","","","","","","","","","","",""
"","S2","","html-keyboard-response","121","143831","0.0-1.0-166.0","0","0","76028","","null","","","null","18","","NaN","","","","","","","","","","","","","",""
"","response","","html-keyboard-response","122","144242","0.0-1.0-167.0-0.0","0","0","76028","","407","","","75","18","","","1","18","training","adjacent","DE","4","5","R.jpg","L.jpg","0","1","0","",""
"","feedback","","html-keyboard-response","123","145255","0.0-1.0-168.0-0.0","0","0","76028","","null","","","null","18","","","","","","","","","","","","","","","",""
"","time_out","","html-keyboard-response","124","147271","0.0-1.0-170.0-0.0","0","0","76028","","null","","","null","18","","","","","","","","","","","","","","","",""
"","ITI","","html-keyboard-response","125","148284","0.0-1.0-171.0","0","0","76028","","null","","","null","18","","","","","","","","","","","","","","","NaN",""
"","S1","","html-keyboard-response","126","148550","0.0-1.0-173.0","0","0","76028","","null","","","null","19","","","","","","","","","","","","","","","",""
"","ISI","","html-keyboard-response","127","149564","0.0-1.0-174.0","0","0","76028","","null","","","null","19","NaN","","","","","","","","","","","","","","",""
"","S2","","html-keyboard-response","128","149830","0.0-1.0-175.0","0","0","76028","","null","","","null","19","","NaN","","","","","","","","","","","","","",""
"","response","","html-keyboard-response","129","150064","0.0-1.0-176.0-0.0","0","0","76028","","230","","","75","19","","","1","19","training","adjacent","BA","2","1","P.jpg","Q.jpg","0","0","1","",""
"","feedback","","html-keyboard-response","130","151079","0.0-1.0-177.0-0.0","0","0","76028","","null","","","null","19","","","","","","","","","","","","","","","",""
"","ITI","","html-keyboard-response","131","152092","0.0-1.0-180.0","0","0","76028","","null","","","null","19","","","","","","","","","","","","","","","NaN",""
"","S1","","html-keyboard-response","132","152358","0.0-1.0-182.0","0","0","76028","","null","","","null","20","","","","","","","","","","","","","","","",""
"","ISI","","html-keyboard-response","133","153372","0.0-1.0-183.0","0","0","76028","","null","","","null","20","NaN","","","","","","","","","","","","","","",""
"","S2","","html-keyboard-response","134","153638","0.0-1.0-184.0","0","0","76028","","null","","","null","20","","NaN","","","","","","","","","","","","","",""
"","response","","html-keyboard-response","135","153786","0.0-1.0-185.0-0.0","0","0","76028","","143","","","75","20","","","1","20","training","adjacent","DC","4","3","R.jpg","O.jpg","0","0","1","",""
"","feedback","","html-keyboard-response","136","154796","0.0-1.0-186.0-0.0","0","0","76028","","null","","","null","20","","","","","","","","","","","","","","","",""
"","ITI","","html-keyboard-response","137","155804","0.0-1.0-189.0","0","0","76028","","null","","","null","20","","","","","","","","","","","","","","","NaN",""
"","S1","","html-keyboard-response","138","156070","0.0-1.0-191.0","0","0","76028","","null","","","null","21","","","","","","","","","","","","","","","",""
"","ISI","","html-keyboard-response","139","157084","0.0-1.0-192.0","0","0","76028","","null","","","null","21","NaN","","","","","","","","","","","","","","",""
"","S2","","html-keyboard-response","140","157350","0.0-1.0-193.0","0","0","76028","","null","","","null","21","","NaN","","","","","","","","","","","","","",""
"","response","","html-keyboard-response","141","157753","0.0-1.0-194.0-0.0","0","0","76028","","399","","","75","21","","","1","21","training","adjacent","BC","2","3","P.jpg","O.jpg","0","1","0","",""
"","feedback","","html-keyboard-response","142","158763","0.0-1.0-195.0-0.0","0","0","76028","","null","","","null","21","","","","","","","","","","","","","","","",""
"","time_out","","html-keyboard-response","143","160774","0.0-1.0-197.0-0.0","0","0","76028","","null","","","null","21","","","","","","","","","","","","","","","",""
"","ITI","","html-keyboard-response","144","161787","0.0-1.0-198.0","0","0","76028","","null","","","null","21","","","","","","","","","","","","","","","NaN",""
"","S1","","html-keyboard-response","145","162054","0.0-1.0-200.0","0","0","76028","","null","","","null","22","","","","","","","","","","","","","","","",""
"","ISI","","html-keyboard-response","146","163067","0.0-1.0-201.0","0","0","76028","","null","","","null","22","NaN","","","","","","","","","","","","","","",""
"","S2","","html-keyboard-response","147","163332","0.0-1.0-202.0","0","0","76028","","null","","","null","22","","NaN","","","","","","","","","","","","","",""
"","response","","html-keyboard-response","148","163946","0.0-1.0-203.0-0.0","0","0","76028","","610","","","75","22","","","1","22","training","adjacent","EF","5","6","L.jpg","N.jpg","0","1","0","",""
"","feedback","","html-keyboard-response","149","164955","0.0-1.0-204.0-0.0","0","0","76028","","null","","","null","22","","","","","","","","","","","","","","","",""
"","time_out","","html-keyboard-response","150","166966","0.0-1.0-206.0-0.0","0","0","76028","","null","","","null","22","","","","","","","","","","","","","","","",""
"","ITI","","html-keyboard-response","151","167979","0.0-1.0-207.0","0","0","76028","","null","","","null","22","","","","","","","","","","","","","","","NaN",""
"","S1","","html-keyboard-response","152","168246","0.0-1.0-209.0","0","0","76028","","null","","","null","23","","","","","","","","","","","","","","","",""
"","ISI","","html-keyboard-response","153","169259","0.0-1.0-210.0","0","0","76028","","null","","","null","23","NaN","","","","","","","","","","","","","","",""
"","S2","","html-keyboard-response","154","169526","0.0-1.0-211.0","0","0","76028","","null","","","null","23","","NaN","","","","","","","","","","","","","",""
"","response","","html-keyboard-response","155","170185","0.0-1.0-212.0-0.0","0","0","76028","","655","","","68","23","","","1","23","training","adjacent","GF","7","6","M.jpg","N.jpg","1","0","0","",""
"","feedback","","html-keyboard-response","156","171195","0.0-1.0-213.0-0.0","0","0","76028","","null","","","null","23","","","","","","","","","","","","","","","",""
"","time_out","","html-keyboard-response","157","173206","0.0-1.0-215.0-0.0","0","0","76028","","null","","","null","23","","","","","","","","","","","","","","","",""
"","ITI","","html-keyboard-response","158","174219","0.0-1.0-216.0","0","0","76028","","null","","","null","23","","","","","","","","","","","","","","","NaN",""
"","S1","","html-keyboard-response","159","174486","0.0-1.0-218.0","0","0","76028","","null","","","null","24","","","","","","","","","","","","","","","",""
"","ISI","","html-keyboard-response","160","175500","0.0-1.0-219.0","0","0","76028","","null","","","null","24","NaN","","","","","","","","","","","","","","",""
"","S2","","html-keyboard-response","161","175766","0.0-1.0-220.0","0","0","76028","","null","","","null","24","","NaN","","","","","","","","","","","","","",""
"","response","","html-keyboard-response","162","176106","0.0-1.0-221.0-0.0","0","0","76028","","335","","","68","24","","","1","24","training","adjacent","FG","6","7","N.jpg","M.jpg","1","1","1","",""
"","feedback","","html-keyboard-response","163","177115","0.0-1.0-222.0-0.0","0","0","76028","","null","","","null","24","","","","","","","","","","","","","","","",""
"","ITI","","html-keyboard-response","164","178123","0.0-1.0-225.0","0","0","76028","","null","","","null","24","","","","","","","","","","","","","","","NaN",""
"","S1","","html-keyboard-response","165","178389","0.0-1.0-227.0","0","0","76028","","null","","","null","25","","","","","","","","","","","","","","","",""
"","ISI","","html-keyboard-response","166","179403","0.0-1.0-228.0","0","0","76028","","null","","","null","25","NaN","","","","","","","","","","","","","","",""
"","S2","","html-keyboard-response","167","179670","0.0-1.0-229.0","0","0","76028","","null","","","null","25","","NaN","","","","","","","","","","","","","",""
"","response","","html-keyboard-response","168","180440","0.0-1.0-230.0-0.0","0","0","76028","","766","","","75","25","","","1","25","training","adjacent","FE","6","5","N.jpg","L.jpg","0","0","1","",""
"","feedback","","html-keyboard-response","169","181451","0.0-1.0-231.0-0.0","0","0","76028","","null","","","null","25","","","","","","","","","","","","","","","",""
"","ITI","","html-keyboard-response","170","182459","0.0-1.0-234.0","0","0","76028","","null","","","null","25","","","","","","","","","","","","","","","NaN",""
"","S1","","html-keyboard-response","171","182725","0.0-1.0-236.0","0","0","76028","","null","","","null","26","","","","","","","","","","","","","","","",""
"","ISI","","html-keyboard-response","172","183739","0.0-1.0-237.0","0","0","76028","","null","","","null","26","NaN","","","","","","","","","","","","","","",""
"","S2","","html-keyboard-response","173","184003","0.0-1.0-238.0","0","0","76028","","null","","","null","26","","NaN","","","","","","","","","","","","","",""
"","response","","html-keyboard-response","174","184265","0.0-1.0-239.0-0.0","0","0","76028","","258","","","75","26","","","1","26","training","adjacent","BC","2","3","P.jpg","O.jpg","0","1","0","",""
"","feedback","","html-keyboard-response","175","185275","0.0-1.0-240.0-0.0","0","0","76028","","null","","","null","26","","","","","","","","","","","","","","","",""
"","time_out","","html-keyboard-response","176","187284","0.0-1.0-242.0-0.0","0","0","76028","","null","","","null","26","","","","","","","","","","","","","","","",""
"","ITI","","html-keyboard-response","177","188293","0.0-1.0-243.0","0","0","76028","","null","","","null","26","","","","","","","","","","","","","","","NaN",""
"","S1","","html-keyboard-response","178","188555","0.0-1.0-245.0","0","0","76028","","null","","","null","27","","","","","","","","","","","","","","","",""
"","ISI","","html-keyboard-response","179","189563","0.0-1.0-246.0","0","0","76028","","null","","","null","27","NaN","","","","","","","","","","","","","","",""
"","S2","","html-keyboard-response","180","189829","0.0-1.0-247.0","0","0","76028","","null","","","null","27","","NaN","","","","","","","","","","","","","",""
"","response","","html-keyboard-response","181","190225","0.0-1.0-248.0-0.0","0","0","76028","","392","","","68","27","","","1","27","training","adjacent","BC","2","3","P.jpg","O.jpg","1","1","1","",""
"","feedback","","html-keyboard-response","182","191238","0.0-1.0-249.0-0.0","0","0","76028","","null","","","null","27","","","","","","","","","","","","","","","",""
"","ITI","","html-keyboard-response","183","192250","0.0-1.0-252.0","0","0","76028","","null","","","null","27","","","","","","","","","","","","","","","NaN",""
"","S1","","html-keyboard-response","184","192517","0.0-1.0-254.0","0","0","76028","","null","","","null","28","","","","","","","","","","","","","","","",""
"","ISI","","html-keyboard-response","185","193531","0.0-1.0-255.0","0","0","76028","","null","","","null","28","NaN","","","","","","","","","","","","","","",""
"","S2","","html-keyboard-response","186","193797","0.0-1.0-256.0","0","0","76028","","null","","","null","28","","NaN","","","","","","","","","","","","","",""
"","response","","html-keyboard-response","187","194424","0.0-1.0-257.0-0.0","0","0","76028","","623","","","68","28","","","1","28","training","adjacent","CD","3","4","O.jpg","R.jpg","1","1","1","",""
"","feedback","","html-keyboard-response","188","195435","0.0-1.0-258.0-0.0","0","0","76028","","null","","","null","28","","","","","","","","","","","","","","","",""
"","ITI","","html-keyboard-response","189","196443","0.0-1.0-261.0","0","0","76028","","null","","","null","28","","","","","","","","","","","","","","","NaN",""
"","S1","","html-keyboard-response","190","196709","0.0-1.0-263.0","0","0","76028","","null","","","null","29","","","","","","","","","","","","","","","",""
"","ISI","","html-keyboard-response","191","197723","0.0-1.0-264.0","0","0","76028","","null","","","null","29","NaN","","","","","","","","","","","","","","",""
"","S2","","html-keyboard-response","192","197986","0.0-1.0-265.0","0","0","76028","","null","","","null","29","","NaN","","","","","","","","","","","","","",""
"","response","","html-keyboard-response","193","198673","0.0-1.0-266.0-0.0","0","0","76028","","682","","","75","29","","","1","29","training","adjacent","CB","3","2","O.jpg","P.jpg","0","0","1","",""
"","feedback","","html-keyboard-response","194","199683","0.0-1.0-267.0-0.0","0","0","76028","","null","","","null","29","","","","","","","","","","","","","","","",""
"","ITI","","html-keyboard-response","195","200693","0.0-1.0-270.0","0","0","76028","","null","","","null","29","","","","","","","","","","","","","","","NaN",""
"","S1","","html-keyboard-response","196","200955","0.0-1.0-272.0","0","0","76028","","null","","","null","30","","","","","","","","","","","","","","","",""
"","ISI","","html-keyboard-response","197","201962","0.0-1.0-273.0","0","0","76028","","null","","","null","30","NaN","","","","","","","","","","","","","","",""
"","S2","","html-keyboard-response","198","202229","0.0-1.0-274.0","0","0","76028","","null","","","null","30","","NaN","","","","","","","","","","","","","",""
"","response","","html-keyboard-response","199","202770","0.0-1.0-275.0-0.0","0","0","76028","","536","","","75","30","","","1","30","training","adjacent","CB","3","2","O.jpg","P.jpg","0","0","1","",""
"","feedback","","html-keyboard-response","200","203781","0.0-1.0-276.0-0.0","0","0","76028","","null","","","null","30","","","","","","","","","","","","","","","",""
"","ITI","","html-keyboard-response","201","204795","0.0-1.0-279.0","0","0","76028","","null","","","null","30","","","","","","","","","","","","","","","NaN",""
"","S1","","html-keyboard-response","202","205061","0.0-1.0-281.0","0","0","76028","","null","","","null","31","","","","","","","","","","","","","","","",""
"","ISI","","html-keyboard-response","203","206074","0.0-1.0-282.0","0","0","76028","","null","","","null","31","NaN","","","","","","","","","","","","","","",""
"","S2","","html-keyboard-response","204","206341","0.0-1.0-283.0","0","0","76028","","null","","","null","31","","NaN","","","","","","","","","","","","","",""
"","response","","html-keyboard-response","205","206969","0.0-1.0-284.0-0.0","0","0","76028","","623","","","75","31","","","1","31","training","adjacent","BA","2","1","P.jpg","Q.jpg","0","0","1","",""
"","feedback","","html-keyboard-response","206","207978","0.0-1.0-285.0-0.0","0","0","76028","","null","","","null","31","","","","","","","","","","","","","","","",""
"","ITI","","html-keyboard-response","207","208986","0.0-1.0-288.0","0","0","76028","","null","","","null","31","","","","","","","","","","","","","","","NaN",""
"","S1","","html-keyboard-response","208","209253","0.0-1.0-290.0","0","0","76028","","null","","","null","32","","","","","","","","","","","","","","","",""
"","ISI","","html-keyboard-response","209","210266","0.0-1.0-291.0","0","0","76028","","null","","","null","32","NaN","","","","","","","","","","","","","","",""
"","S2","","html-keyboard-response","210","210533","0.0-1.0-292.0","0","0","76028","","null","","","null","32","","NaN","","","","","","","","","","","","","",""
"","response","","html-keyboard-response","211","210760","0.0-1.0-293.0-0.0","0","0","76028","","223","","","68","32","","","1","32","training","adjacent","AB","1","2","Q.jpg","P.jpg","1","1","1","",""
"","feedback","","html-keyboard-response","212","211770","0.0-1.0-294.0-0.0","0","0","76028","","null","","","null","32","","","","","","","","","","","","","","","",""
"","ITI","","html-keyboard-response","213","212778","0.0-1.0-297.0","0","0","76028","","null","","","null","32","","","","","","","","","","","","","","","NaN",""
"","S1","","html-keyboard-response","214","213042","0.0-1.0-299.0","0","0","76028","","null","","","null","33","","","","","","","","","","","","","","","",""
"","ISI","","html-keyboard-response","215","214055","0.0-1.0-300.0","0","0","76028","","null","","","null","33","NaN","","","","","","","","","","","","","","",""
"","S2","","html-keyboard-response","216","214317","0.0-1.0-301.0","0","0","76028","","null","","","null","33","","NaN","","","","","","","","","","","","","",""
"","response","","html-keyboard-response","217","214725","0.0-1.0-302.0-0.0","0","0","76028","","404","","","68","33","","","1","33","training","adjacent","FG","6","7","N.jpg","M.jpg","1","1","1","",""
"","feedback","","html-keyboard-response","218","215739","0.0-1.0-303.0-0.0","0","0","76028","","null","","","null","33","","","","","","","","","","","","","","","",""
"","ITI","","html-keyboard-response","219","216754","0.0-1.0-306.0","0","0","76028","","null","","","null","33","","","","","","","","","","","","","","","NaN",""
"","S1","","html-keyboard-response","220","217021","0.0-1.0-308.0","0","0","76028","","null","","","null","34","","","","","","","","","","","","","","","",""
"","ISI","","html-keyboard-response","221","218036","0.0-1.0-309.0","0","0","76028","","null","","","null","34","NaN","","","","","","","","","","","","","","",""
"","S2","","html-keyboard-response","222","218304","0.0-1.0-310.0","0","0","76028","","null","","","null","34","","NaN","","","","","","","","","","","","","",""
"","response","","html-keyboard-response","223","218708","0.0-1.0-311.0-0.0","0","0","76028","","400","","","68","34","","","1","34","training","adjacent","ED","5","4","L.jpg","R.jpg","1","0","0","",""
"","feedback","","html-keyboard-response","224","219719","0.0-1.0-312.0-0.0","0","0","76028","","null","","","null","34","","","","","","","","","","","","","","","",""
"","time_out","","html-keyboard-response","225","221733","0.0-1.0-314.0-0.0","0","0","76028","","null","","","null","34","","","","","","","","","","","","","","","",""
"","ITI","","html-keyboard-response","226","222748","0.0-1.0-315.0","0","0","76028","","null","","","null","34","","","","","","","","","","","","","","","NaN",""
"","S1","","html-keyboard-response","227","223015","0.0-1.0-317.0","0","0","76028","","null","","","null","35","","","","","","","","","","","","","","","",""
"","ISI","","html-keyboard-response","228","224029","0.0-1.0-318.0","0","0","76028","","null","","","null","35","NaN","","","","","","","","","","","","","","",""
"","S2","","html-keyboard-response","229","224296","0.0-1.0-319.0","0","0","76028","","null","","","null","35","","NaN","","","","","","","","","","","","","",""
"","response","","html-keyboard-response","230","224677","0.0-1.0-320.0-0.0","0","0","76028","","377","","","75","35","","","1","35","training","adjacent","GF","7","6","M.jpg","N.jpg","0","0","1","",""
"","feedback","","html-keyboard-response","231","225690","0.0-1.0-321.0-0.0","0","0","76028","","null","","","null","35","","","","","","","","","","","","","","","",""
"","ITI","","html-keyboard-response","232","226705","0.0-1.0-324.0","0","0","76028","","null","","","null","35","","","","","","","","","","","","","","","NaN",""
"","S1","","html-keyboard-response","233","226972","0.0-1.0-326.0","0","0","76028","","null","","","null","36","","","","","","","","","","","","","","","",""
"","ISI","","html-keyboard-response","234","227986","0.0-1.0-327.0","0","0","76028","","null","","","null","36","NaN","","","","","","","","","","","","","","",""
"","S2","","html-keyboard-response","235","228253","0.0-1.0-328.0","0","0","76028","","null","","","null","36","","NaN","","","","","","","","","","","","","",""
"","response","","html-keyboard-response","236","228706","0.0-1.0-329.0-0.0","0","0","76028","","448","","","68","36","","","1","36","training","adjacent","AB","1","2","Q.jpg","P.jpg","1","1","1","",""
"","feedback","","html-keyboard-response","237","229716","0.0-1.0-330.0-0.0","0","0","76028","","null","","","null","36","","","","","","","","","","","","","","","",""
"","ITI","","html-keyboard-response","238","230724","0.0-1.0-333.0","0","0","76028","","null","","","null","36","","","","","","","","","","","","","","","NaN",""
"","S1","","html-keyboard-response","239","230991","0.0-1.0-335.0","0","0","76028","","null","","","null","37","","","","","","","","","","","","","","","",""
"","ISI","","html-keyboard-response","240","232005","0.0-1.0-336.0","0","0","76028","","null","","","null","37","NaN","","","","","","","","","","","","","","",""
"","S2","","html-keyboard-response","241","232272","0.0-1.0-337.0","0","0","76028","","null","","","null","37","","NaN","","","","","","","","","","","","","",""
"","response","","html-keyboard-response","242","232476","0.0-1.0-338.0-0.0","0","0","76028","","200","","","75","37","","","1","37","training","adjacent","DE","4","5","R.jpg","L.jpg","0","1","0","",""
"","feedback","","html-keyboard-response","243","233489","0.0-1.0-339.0-0.0","0","0","76028","","null","","","null","37","","","","","","","","","","","","","","","",""
"","time_out","","html-keyboard-response","244","235506","0.0-1.0-341.0-0.0","0","0","76028","","null","","","null","37","","","","","","","","","","","","","","","",""
"","ITI","","html-keyboard-response","245","236520","0.0-1.0-342.0","0","0","76028","","null","","","null","37","","","","","","","","","","","","","","","NaN",""
"","S1","","html-keyboard-response","246","236787","0.0-1.0-344.0","0","0","76028","","null","","","null","38","","","","","","","","","","","","","","","",""
"","ISI","","html-keyboard-response","247","237801","0.0-1.0-345.0","0","0","76028","","null","","","null","38","NaN","","","","","","","","","","","","","","",""
"","S2","","html-keyboard-response","248","238066","0.0-1.0-346.0","0","0","76028","","null","","","null","38","","NaN","","","","","","","","","","","","","",""
"","response","","html-keyboard-response","249","238440","0.0-1.0-347.0-0.0","0","0","76028","","370","","","68","38","","","1","38","training","adjacent","CB","3","2","O.jpg","P.jpg","1","0","0","",""
"","feedback","","html-keyboard-response","250","239450","0.0-1.0-348.0-0.0","0","0","76028","","null","","","null","38","","","","","","","","","","","","","","","",""
"","time_out","","html-keyboard-response","251","241461","0.0-1.0-350.0-0.0","0","0","76028","","null","","","null","38","","","","","","","","","","","","","","","",""
"","ITI","","html-keyboard-response","252","242475","0.0-1.0-351.0","0","0","76028","","null","","","null","38","","","","","","","","","","","","","","","NaN",""
"","S1","","html-keyboard-response","253","242742","0.0-1.0-353.0","0","0","76028","","null","","","null","39","","","","","","","","","","","","","","","",""
"","ISI","","html-keyboard-response","254","243755","0.0-1.0-354.0","0","0","76028","","null","","","null","39","NaN","","","","","","","","","","","","","","",""
"","S2","","html-keyboard-response","255","244022","0.0-1.0-355.0","0","0","76028","","null","","","null","39","","NaN","","","","","","","","","","","","","",""
"","response","","html-keyboard-response","256","244283","0.0-1.0-356.0-0.0","0","0","76028","","257","","","75","39","","","1","39","training","adjacent","ED","5","4","L.jpg","R.jpg","0","0","1","",""
"","feedback","","html-keyboard-response","257","245292","0.0-1.0-357.0-0.0","0","0","76028","","null","","","null","39","","","","","","","","","","","","","","","",""
"","ITI","","html-keyboard-response","258","246300","0.0-1.0-360.0","0","0","76028","","null","","","null","39","","","","","","","","","","","","","","","NaN",""
"","S1","","html-keyboard-response","259","246567","0.0-1.0-362.0","0","0","76028","","null","","","null","40","","","","","","","","","","","","","","","",""
"","ISI","","html-keyboard-response","260","247581","0.0-1.0-363.0","0","0","76028","","null","","","null","40","NaN","","","","","","","","","","","","","","",""
"","S2","","html-keyboard-response","261","247847","0.0-1.0-364.0","0","0","76028","","null","","","null","40","","NaN","","","","","","","","","","","","","",""
"","response","","html-keyboard-response","262","248258","0.0-1.0-365.0-0.0","0","0","76028","","408","","","68","40","","","1","40","training","adjacent","FE","6","5","N.jpg","L.jpg","1","0","0","",""
"","feedback","","html-keyboard-response","263","249271","0.0-1.0-366.0-0.0","0","0","76028","","null","","","null","40","","","","","","","","","","","","","","","",""
"","time_out","","html-keyboard-response","264","251288","0.0-1.0-368.0-0.0","0","0","76028","","null","","","null","40","","","","","","","","","","","","","","","",""
"","ITI","","html-keyboard-response","265","252302","0.0-1.0-369.0","0","0","76028","","null","","","null","40","","","","","","","","","","","","","","","NaN",""
"","S1","","html-keyboard-response","266","252568","0.0-1.0-371.0","0","0","76028","","null","","","null","41","","","","","","","","","","","","","","","",""
"","ISI","","html-keyboard-response","267","253582","0.0-1.0-372.0","0","0","76028","","null","","","null","41","NaN","","","","","","","","","","","","","","",""
"","S2","","html-keyboard-response","268","253849","0.0-1.0-373.0","0","0","76028","","null","","","null","41","","NaN","","","","","","","","","","","","","",""
"","response","","html-keyboard-response","269","254390","0.0-1.0-374.0-0.0","0","0","76028","","536","","","75","41","","","1","41","training","adjacent","FG","6","7","N.jpg","M.jpg","0","1","0","",""
"","feedback","","html-keyboard-response","270","255401","0.0-1.0-375.0-0.0","0","0","76028","","null","","","null","41","","","","","","","","","","","","","","","",""
"","time_out","","html-keyboard-response","271","257417","0.0-1.0-377.0-0.0","0","0","76028","","null","","","null","41","","","","","","","","","","","","","","","",""
"","ITI","","html-keyboard-response","272","258431","0.0-1.0-378.0","0","0","76028","","null","","","null","41","","","","","","","","","","","","","","","NaN",""
"","S1","","html-keyboard-response","273","258697","0.0-1.0-380.0","0","0","76028","","null","","","null","42","","","","","","","","","","","","","","","",""
"","ISI","","html-keyboard-response","274","259711","0.0-1.0-381.0","0","0","76028","","null","","","null","42","NaN","","","","","","","","","","","","","","",""
"","S2","","html-keyboard-response","275","259978","0.0-1.0-382.0","0","0","76028","","null","","","null","42","","NaN","","","","","","","","","","","","","",""
"","response","","html-keyboard-response","276","260342","0.0-1.0-383.0-0.0","0","0","76028","","360","","","75","42","","","1","42","training","adjacent","ED","5","4","L.jpg","R.jpg","0","0","1","",""
"","feedback","","html-keyboard-response","277","261354","0.0-1.0-384.0-0.0","0","0","76028","","null","","","null","42","","","","","","","","","","","","","","","",""
"","ITI","","html-keyboard-response","278","262364","0.0-1.0-387.0","0","0","76028","","null","","","null","42","","","","","","","","","","","","","","","NaN",""
"","S1","","html-keyboard-response","279","262623","0.0-1.0-389.0","0","0","76028","","null","","","null","43","","","","","","","","","","","","","","","",""
"","ISI","","html-keyboard-response","280","263632","0.0-1.0-390.0","0","0","76028","","null","","","null","43","NaN","","","","","","","","","","","","","","",""
"","S2","","html-keyboard-response","281","263898","0.0-1.0-391.0","0","0","76028","","null","","","null","43","","NaN","","","","","","","","","","","","","",""
"","response","","html-keyboard-response","282","264431","0.0-1.0-392.0-0.0","0","0","76028","","528","","","75","43","","","1","43","training","adjacent","GF","7","6","M.jpg","N.jpg","0","0","1","",""
"","feedback","","html-keyboard-response","283","265439","0.0-1.0-393.0-0.0","0","0","76028","","null","","","null","43","","","","","","","","","","","","","","","",""
"","ITI","","html-keyboard-response","284","266447","0.0-1.0-396.0","0","0","76028","","null","","","null","43","","","","","","","","","","","","","","","NaN",""
"","S1","","html-keyboard-response","285","266714","0.0-1.0-398.0","0","0","76028","","null","","","null","44","","","","","","","","","","","","","","","",""
"","ISI","","html-keyboard-response","286","267727","0.0-1.0-399.0","0","0","76028","","null","","","null","44","NaN","","","","","","","","","","","","","","",""
"","S2","","html-keyboard-response","287","267994","0.0-1.0-400.0","0","0","76028","","null","","","null","44","","NaN","","","","","","","","","","","","","",""
"","response","","html-keyboard-response","288","268423","0.0-1.0-401.0-0.0","0","0","76028","","424","","","75","44","","","1","44","training","adjacent","DC","4","3","R.jpg","O.jpg","0","0","1","",""
"","feedback","","html-keyboard-response","289","269434","0.0-1.0-402.0-0.0","0","0","76028","","null","","","null","44","","","","","","","","","","","","","","","",""
"","ITI","","html-keyboard-response","290","270447","0.0-1.0-405.0","0","0","76028","","null","","","null","44","","","","","","","","","","","","","","","NaN",""
"","S1","","html-keyboard-response","291","270714","0.0-1.0-407.0","0","0","76028","","null","","","null","45","","","","","","","","","","","","","","","",""
"","ISI","","html-keyboard-response","292","271728","0.0-1.0-408.0","0","0","76028","","null","","","null","45","NaN","","","","","","","","","","","","","","",""
"","S2","","html-keyboard-response","293","271984","0.0-1.0-409.0","0","0","76028","","null","","","null","45","","NaN","","","","","","","","","","","","","",""
"","response","","html-keyboard-response","294","272799","0.0-1.0-410.0-0.0","0","0","76028","","811","","","68","45","","","1","45","training","adjacent","CD","3","4","O.jpg","R.jpg","1","1","1","",""
"","feedback","","html-keyboard-response","295","273808","0.0-1.0-411.0-0.0","0","0","76028","","null","","","null","45","","","","","","","","","","","","","","","",""
"","ITI","","html-keyboard-response","296","274816","0.0-1.0-414.0","0","0","76028","","null","","","null","45","","","","","","","","","","","","","","","NaN",""
"","S1","","html-keyboard-response","297","275083","0.0-1.0-416.0","0","0","76028","","null","","","null","46","","","","","","","","","","","","","","","",""
"","ISI","","html-keyboard-response","298","276095","0.0-1.0-417.0","0","0","76028","","null","","","null","46","NaN","","","","","","","","","","","","","","",""
"","S2","","html-keyboard-response","299","276352","0.0-1.0-418.0","0","0","76028","","null","","","null","46","","NaN","","","","","","","","","","","","","",""
"","response","","html-keyboard-response","300","276856","0.0-1.0-419.0-0.0","0","0","76028","","499","","","68","46","","","1","46","training","adjacent","EF","5","6","L.jpg","N.jpg","1","1","1","",""
"","feedback","","html-keyboard-response","301","277867","0.0-1.0-420.0-0.0","0","0","76028","","null","","","null","46","","","","","","","","","","","","","","","",""
"","ITI","","html-keyboard-response","302","278880","0.0-1.0-423.0","0","0","76028","","null","","","null","46","","","","","","","","","","","","","","","NaN",""
"","S1","","html-keyboard-response","303","279147","0.0-1.0-425.0","0","0","76028","","null","","","null","47","","","","","","","","","","","","","","","",""
"","ISI","","html-keyboard-response","304","280160","0.0-1.0-426.0","0","0","76028","","null","","","null","47","NaN","","","","","","","","","","","","","","",""
"","S2","","html-keyboard-response","305","280427","0.0-1.0-427.0","0","0","76028","","null","","","null","47","","NaN","","","","","","","","","","","","","",""
"","response","","html-keyboard-response","306","280968","0.0-1.0-428.0-0.0","0","0","76028","","536","","","68","47","","","1","47","training","adjacent","ED","5","4","L.jpg","R.jpg","1","0","0","",""
"","feedback","","html-keyboard-response","307","281978","0.0-1.0-429.0-0.0","0","0","76028","","null","","","null","47","","","","","","","","","","","","","","","",""
"","time_out","","html-keyboard-response","308","283995","0.0-1.0-431.0-0.0","0","0","76028","","null","","","null","47","","","","","","","","","","","","","","","",""
"","ITI","","html-keyboard-response","309","285008","0.0-1.0-432.0","0","0","76028","","null","","","null","47","","","","","","","","","","","","","","","NaN",""
"","block_over","","html-keyboard-response","310","302473","0.0-1.0-433.0-0.0","0","0","76028","","17459","","","32","47","","","","","","","","","","","","","","","",""
"","S1","","html-keyboard-response","311","302736","0.0-1.0-434.0","0","0","76028","","null","","","null","48","","","","","","","","","","","","","","","",""
"","ISI","","html-keyboard-response","312","303744","0.0-1.0-435.0","0","0","76028","","null","","","null","48","NaN","","","","","","","","","","","","","","",""
"","S2","","html-keyboard-response","313","304011","0.0-1.0-436.0","0","0","76028","","null","","","null","48","","NaN","","","","","","","","","","","","","",""
"","response","","html-keyboard-response","314","304528","0.0-1.0-437.0-0.0","0","0","76028","","512","","","75","48","","","2","48","training","adjacent","CB","3","2","O.jpg","P.jpg","0","0","1","",""
"","feedback","","html-keyboard-response","315","305537","0.0-1.0-438.0-0.0","0","0","76028","","null","","","null","48","","","","","","","","","","","","","","","",""
"","ITI","","html-keyboard-response","316","306555","0.0-1.0-441.0","0","0","76028","","null","","","null","48","","","","","","","","","","","","","","","NaN",""
"","S1","","html-keyboard-response","317","306816","0.0-1.0-443.0","0","0","76028","","null","","","null","49","","","","","","","","","","","","","","","",""
"","ISI","","html-keyboard-response","318","307824","0.0-1.0-444.0","0","0","76028","","null","","","null","49","NaN","","","","","","","","","","","","","","",""
"","S2","","html-keyboard-response","319","308091","0.0-1.0-445.0","0","0","76028","","null","","","null","49","","NaN","","","","","","","","","","","","","",""
"","response","","html-keyboard-response","320","308376","0.0-1.0-446.0-0.0","0","0","76028","","280","","","75","49","","","2","49","training","adjacent","CB","3","2","O.jpg","P.jpg","0","0","1","",""
"","feedback","","html-keyboard-response","321","309387","0.0-1.0-447.0-0.0","0","0","76028","","null","","","null","49","","","","","","","","","","","","","","","",""
"","ITI","","html-keyboard-response","322","310400","0.0-1.0-450.0","0","0","76028","","null","","","null","49","","","","","","","","","","","","","","","NaN",""
"","S1","","html-keyboard-response","323","310667","0.0-1.0-452.0","0","0","76028","","null","","","null","50","","","","","","","","","","","","","","","",""
"","ISI","","html-keyboard-response","324","311680","0.0-1.0-453.0","0","0","76028","","null","","","null","50","NaN","","","","","","","","","","","","","","",""
"","S2","","html-keyboard-response","325","311947","0.0-1.0-454.0","0","0","76028","","null","","","null","50","","NaN","","","","","","","","","","","","","",""
"","response","","html-keyboard-response","326","312312","0.0-1.0-455.0-0.0","0","0","76028","","360","","","68","50","","","2","50","training","adjacent","DC","4","3","R.jpg","O.jpg","1","0","0","",""
"","feedback","","html-keyboard-response","327","313320","0.0-1.0-456.0-0.0","0","0","76028","","null","","","null","50","","","","","","","","","","","","","","","",""
"","time_out","","html-keyboard-response","328","315328","0.0-1.0-458.0-0.0","0","0","76028","","null","","","null","50","","","","","","","","","","","","","","","",""
"","ITI","","html-keyboard-response","329","316337","0.0-1.0-459.0","0","0","76028","","null","","","null","50","","","","","","","","","","","","","","","NaN",""
"","S1","","html-keyboard-response","330","316603","0.0-1.0-461.0","0","0","76028","","null","","","null","51","","","","","","","","","","","","","","","",""
"","ISI","","html-keyboard-response","331","317616","0.0-1.0-462.0","0","0","76028","","null","","","null","51","NaN","","","","","","","","","","","","","","",""
"","S2","","html-keyboard-response","332","317883","0.0-1.0-463.0","0","0","76028","","null","","","null","51","","NaN","","","","","","","","","","","","","",""
"","response","","html-keyboard-response","333","318424","0.0-1.0-464.0-0.0","0","0","76028","","537","","","75","51","","","2","51","training","adjacent","GF","7","6","M.jpg","N.jpg","0","0","1","",""
"","feedback","","html-keyboard-response","334","319434","0.0-1.0-465.0-0.0","0","0","76028","","null","","","null","51","","","","","","","","","","","","","","","",""
"","ITI","","html-keyboard-response","335","320448","0.0-1.0-468.0","0","0","76028","","null","","","null","51","","","","","","","","","","","","","","","NaN",""
"","S1","","html-keyboard-response","336","320715","0.0-1.0-470.0","0","0","76028","","null","","","null","52","","","","","","","","","","","","","","","",""
"","ISI","","html-keyboard-response","337","321728","0.0-1.0-471.0","0","0","76028","","null","","","null","52","NaN","","","","","","","","","","","","","","",""
"","S2","","html-keyboard-response","338","321994","0.0-1.0-472.0","0","0","76028","","null","","","null","52","","NaN","","","","","","","","","","","","","",""
"","response","","html-keyboard-response","339","322368","0.0-1.0-473.0-0.0","0","0","76028","","369","","","75","52","","","2","52","training","adjacent","ED","5","4","L.jpg","R.jpg","0","0","1","",""
"","feedback","","html-keyboard-response","340","323376","0.0-1.0-474.0-0.0","0","0","76028","","null","","","null","52","","","","","","","","","","","","","","","",""
"","ITI","","html-keyboard-response","341","324384","0.0-1.0-477.0","0","0","76028","","null","","","null","52","","","","","","","","","","","","","","","NaN",""
"","S1","","html-keyboard-response","342","324651","0.0-1.0-479.0","0","0","76028","","null","","","null","53","","","","","","","","","","","","","","","",""
"","ISI","","html-keyboard-response","343","325664","0.0-1.0-480.0","0","0","76028","","null","","","null","53","NaN","","","","","","","","","","","","","","",""
"","S2","","html-keyboard-response","344","325930","0.0-1.0-481.0","0","0","76028","","null","","","null","53","","NaN","","","","","","","","","","","","","",""
"","response","","html-keyboard-response","345","326216","0.0-1.0-482.0-0.0","0","0","76028","","281","","","68","53","","","2","53","training","adjacent","EF","5","6","L.jpg","N.jpg","1","1","1","",""
"","feedback","","html-keyboard-response","346","327227","0.0-1.0-483.0-0.0","0","0","76028","","null","","","null","53","","","","","","","","","","","","","","","",""
"","ITI","","html-keyboard-response","347","328240","0.0-1.0-486.0","0","0","76028","","null","","","null","53","","","","","","","","","","","","","","","NaN",""
"","S1","","html-keyboard-response","348","328506","0.0-1.0-488.0","0","0","76028","","null","","","null","54","","","","","","","","","","","","","","","",""
"","ISI","","html-keyboard-response","349","329520","0.0-1.0-489.0","0","0","76028","","null","","","null","54","NaN","","","","","","","","","","","","","","",""
"","S2","","html-keyboard-response","350","329786","0.0-1.0-490.0","0","0","76028","","null","","","null","54","","NaN","","","","","","","","","","","","","",""
"","response","","html-keyboard-response","351","330296","0.0-1.0-491.0-0.0","0","0","76028","","506","","","68","54","","","2","54","training","adjacent","DC","4","3","R.jpg","O.jpg","1","0","0","",""
"","feedback","","html-keyboard-response","352","331307","0.0-1.0-492.0-0.0","0","0","76028","","null","","","null","54","","","","","","","","","","","","","","","",""
"","time_out","","html-keyboard-response","353","333323","0.0-1.0-494.0-0.0","0","0","76028","","null","","","null","54","","","","","","","","","","","","","","","",""
"","ITI","","html-keyboard-response","354","334335","0.0-1.0-495.0","0","0","76028","","null","","","null","54","","","","","","","","","","","","","","","NaN",""
"","S1","","html-keyboard-response","355","334592","0.0-1.0-497.0","0","0","76028","","null","","","null","55","","","","","","","","","","","","","","","",""
"","ISI","","html-keyboard-response","356","335600","0.0-1.0-498.0","0","0","76028","","null","","","null","55","NaN","","","","","","","","","","","","","","",""
"","S2","","html-keyboard-response","357","335867","0.0-1.0-499.0","0","0","76028","","null","","","null","55","","NaN","","","","","","","","","","","","","",""
"","response","","html-keyboard-response","358","336384","0.0-1.0-500.0-0.0","0","0","76028","","512","","","75","55","","","2","55","training","adjacent","CB","3","2","O.jpg","P.jpg","0","0","1","",""
"","feedback","","html-keyboard-response","359","337392","0.0-1.0-501.0-0.0","0","0","76028","","null","","","null","55","","","","","","","","","","","","","","","",""
"","ITI","","html-keyboard-response","360","338400","0.0-1.0-504.0","0","0","76028","","null","","","null","55","","","","","","","","","","","","","","","NaN",""
"","S1","","html-keyboard-response","361","338667","0.0-1.0-506.0","0","0","76028","","null","","","null","56","","","","","","","","","","","","","","","",""
"","ISI","","html-keyboard-response","362","339680","0.0-1.0-507.0","0","0","76028","","null","","","null","56","NaN","","","","","","","","","","","","","","",""
"","S2","","html-keyboard-response","363","339946","0.0-1.0-508.0","0","0","76028","","null","","","null","56","","NaN","","","","","","","","","","","","","",""
"","response","","html-keyboard-response","364","340364","0.0-1.0-509.0-0.0","0","0","76028","","415","","","75","56","","","2","56","training","adjacent","FG","6","7","N.jpg","M.jpg","0","1","0","",""
"","feedback","","html-keyboard-response","365","341376","0.0-1.0-510.0-0.0","0","0","76028","","null","","","null","56","","","","","","","","","","","","","","","",""
"","time_out","","html-keyboard-response","366","343387","0.0-1.0-512.0-0.0","0","0","76028","","null","","","null","56","","","","","","","","","","","","","","","",""
"","ITI","","html-keyboard-response","367","344400","0.0-1.0-513.0","0","0","76028","","null","","","null","56","","","","","","","","","","","","","","","NaN",""
"","S1","","html-keyboard-response","368","344666","0.0-1.0-515.0","0","0","76028","","null","","","null","57","","","","","","","","","","","","","","","",""
"","ISI","","html-keyboard-response","369","345680","0.0-1.0-516.0","0","0","76028","","null","","","null","57","NaN","","","","","","","","","","","","","","",""
"","S2","","html-keyboard-response","370","345947","0.0-1.0-517.0","0","0","76028","","null","","","null","57","","NaN","","","","","","","","","","","","","",""
"","response","","html-keyboard-response","371","346424","0.0-1.0-518.0-0.0","0","0","76028","","472","","","75","57","","","2","57","training","adjacent","DE","4","5","R.jpg","L.jpg","0","1","0","",""
"","feedback","","html-keyboard-response","372","347434","0.0-1.0-519.0-0.0","0","0","76028","","null","","","null","57","","","","","","","","","","","","","","","",""
"","time_out","","html-keyboard-response","373","349450","0.0-1.0-521.0-0.0","0","0","76028","","null","","","null","57","","","","","","","","","","","","","","","",""
"","ITI","","html-keyboard-response","374","350463","0.0-1.0-522.0","0","0","76028","","null","","","null","57","","","","","","","","","","","","","","","NaN",""
"","S1","","html-keyboard-response","375","350730","0.0-1.0-524.0","0","0","76028","","null","","","null","58","","","","","","","","","","","","","","","",""
"","ISI","","html-keyboard-response","376","351744","0.0-1.0-525.0","0","0","76028","","null","","","null","58","NaN","","","","","","","","","","","","","","",""
"","S2","","html-keyboard-response","377","352010","0.0-1.0-526.0","0","0","76028","","null","","","null","58","","NaN","","","","","","","","","","","","","",""
"","response","","html-keyboard-response","378","352528","0.0-1.0-527.0-0.0","0","0","76028","","513","","","68","58","","","2","58","training","adjacent","FG","6","7","N.jpg","M.jpg","1","1","1","",""
"","feedback","","html-keyboard-response","379","353537","0.0-1.0-528.0-0.0","0","0","76028","","null","","","null","58","","","","","","","","","","","","","","","",""
"","ITI","","html-keyboard-response","380","354554","0.0-1.0-531.0","0","0","76028","","null","","","null","58","","","","","","","","","","","","","","","NaN",""
"","S1","","html-keyboard-response","381","354816","0.0-1.0-533.0","0","0","76028","","null","","","null","59","","","","","","","","","","","","","","","",""
"","ISI","","html-keyboard-response","382","355824","0.0-1.0-534.0","0","0","76028","","null","","","null","59","NaN","","","","","","","","","","","","","","",""
"","S2","","html-keyboard-response","383","356090","0.0-1.0-535.0","0","0","76028","","null","","","null","59","","NaN","","","","","","","","","","","","","",""
"","response","","html-keyboard-response","384","356535","0.0-1.0-536.0-0.0","0","0","76028","","441","","","75","59","","","2","59","training","adjacent","GF","7","6","M.jpg","N.jpg","0","0","1","",""
"","feedback","","html-keyboard-response","385","357544","0.0-1.0-537.0-0.0","0","0","76028","","null","","","null","59","","","","","","","","","","","","","","","",""
"","ITI","","html-keyboard-response","386","358552","0.0-1.0-540.0","0","0","76028","","null","","","null","59","","","","","","","","","","","","","","","NaN",""
"","S1","","html-keyboard-response","387","358815","0.0-1.0-542.0","0","0","76028","","null","","","null","60","","","","","","","","","","","","","","","",""
"","ISI","","html-keyboard-response","388","359823","0.0-1.0-543.0","0","0","76028","","null","","","null","60","NaN","","","","","","","","","","","","","","",""
"","S2","","html-keyboard-response","389","360090","0.0-1.0-544.0","0","0","76028","","null","","","null","60","","NaN","","","","","","","","","","","","","",""
"","response","","html-keyboard-response","390","360399","0.0-1.0-545.0-0.0","0","0","76028","","305","","","75","60","","","2","60","training","adjacent","BC","2","3","P.jpg","O.jpg","0","1","0","",""
"","feedback","","html-keyboard-response","391","361407","0.0-1.0-546.0-0.0","0","0","76028","","null","","","null","60","","","","","","","","","","","","","","","",""
"","time_out","","html-keyboard-response","392","363418","0.0-1.0-548.0-0.0","0","0","76028","","null","","","null","60","","","","","","","","","","","","","","","",""
"","ITI","","html-keyboard-response","393","364431","0.0-1.0-549.0","0","0","76028","","null","","","null","60","","","","","","","","","","","","","","","NaN",""
"","S1","","html-keyboard-response","394","364698","0.0-1.0-551.0","0","0","76028","","null","","","null","61","","","","","","","","","","","","","","","",""
"","ISI","","html-keyboard-response","395","365711","0.0-1.0-552.0","0","0","76028","","null","","","null","61","NaN","","","","","","","","","","","","","","",""
"","S2","","html-keyboard-response","396","365978","0.0-1.0-553.0","0","0","76028","","null","","","null","61","","NaN","","","","","","","","","","","","","",""
"","response","","html-keyboard-response","397","366553","0.0-1.0-554.0-0.0","0","0","76028","","570","","","75","61","","","2","61","training","adjacent","GF","7","6","M.jpg","N.jpg","0","0","1","",""
"","feedback","","html-keyboard-response","398","367567","0.0-1.0-555.0-0.0","0","0","76028","","null","","","null","61","","","","","","","","","","","","","","","",""
"","ITI","","html-keyboard-response","399","368576","0.0-1.0-558.0","0","0","76028","","null","","","null","61","","","","","","","","","","","","","","","NaN",""
"","S1","","html-keyboard-response","400","368842","0.0-1.0-560.0","0","0","76028","","null","","","null","62","","","","","","","","","","","","","","","",""
"","ISI","","html-keyboard-response","401","369855","0.0-1.0-561.0","0","0","76028","","null","","","null","62","NaN","","","","","","","","","","","","","","",""
"","S2","","html-keyboard-response","402","370122","0.0-1.0-562.0","0","0","76028","","null","","","null","62","","NaN","","","","","","","","","","","","","",""
"","response","","html-keyboard-response","403","370824","0.0-1.0-563.0-0.0","0","0","76028","","697","","","75","62","","","2","62","training","adjacent","CD","3","4","O.jpg","R.jpg","0","1","0","",""
"","feedback","","html-keyboard-response","404","371839","0.0-1.0-564.0-0.0","0","0","76028","","null","","","null","62","","","","","","","","","","","","","","","",""
"","time_out","","html-keyboard-response","405","373850","0.0-1.0-566.0-0.0","0","0","76028","","null","","","null","62","","","","","","","","","","","","","","","",""
"","ITI","","html-keyboard-response","406","374863","0.0-1.0-567.0","0","0","76028","","null","","","null","62","","","","","","","","","","","","","","","NaN",""
"","S1","","html-keyboard-response","407","375130","0.0-1.0-569.0","0","0","76028","","null","","","null","63","","","","","","","","","","","","","","","",""
"","ISI","","html-keyboard-response","408","376143","0.0-1.0-570.0","0","0","76028","","null","","","null","63","NaN","","","","","","","","","","","","","","",""
"","S2","","html-keyboard-response","409","376410","0.0-1.0-571.0","0","0","76028","","null","","","null","63","","NaN","","","","","","","","","","","","","",""
"","response","","html-keyboard-response","410","376840","0.0-1.0-572.0-0.0","0","0","76028","","426","","","75","63","","","2","63","training","adjacent","BA","2","1","P.jpg","Q.jpg","0","0","1","",""
"","feedback","","html-keyboard-response","411","377855","0.0-1.0-573.0-0.0","0","0","76028","","null","","","null","63","","","","","","","","","","","","","","","",""
"","ITI","","html-keyboard-response","412","378863","0.0-1.0-576.0","0","0","76028","","null","","","null","63","","","","","","","","","","","","","","","NaN",""
"","S1","","html-keyboard-response","413","379130","0.0-1.0-578.0","0","0","76028","","null","","","null","64","","","","","","","","","","","","","","","",""
"","ISI","","html-keyboard-response","414","380143","0.0-1.0-579.0","0","0","76028","","null","","","null","64","NaN","","","","","","","","","","","","","","",""
"","S2","","html-keyboard-response","415","380410","0.0-1.0-580.0","0","0","76028","","null","","","null","64","","NaN","","","","","","","","","","","","","",""
"","response","","html-keyboard-response","416","380800","0.0-1.0-581.0-0.0","0","0","76028","","385","","","68","64","","","2","64","training","adjacent","CB","3","2","O.jpg","P.jpg","1","0","0","",""
"","feedback","","html-keyboard-response","417","381807","0.0-1.0-582.0-0.0","0","0","76028","","null","","","null","64","","","","","","","","","","","","","","","",""
"","time_out","","html-keyboard-response","418","383818","0.0-1.0-584.0-0.0","0","0","76028","","null","","","null","64","","","","","","","","","","","","","","","",""
"","ITI","","html-keyboard-response","419","384831","0.0-1.0-585.0","0","0","76028","","null","","","null","64","","","","","","","","","","","","","","","NaN",""
"","S1","","html-keyboard-response","420","385098","0.0-1.0-587.0","0","0","76028","","null","","","null","65","","","","","","","","","","","","","","","",""
"","ISI","","html-keyboard-response","421","386111","0.0-1.0-588.0","0","0","76028","","null","","","null","65","NaN","","","","","","","","","","","","","","",""
"","S2","","html-keyboard-response","422","386378","0.0-1.0-589.0","0","0","76028","","null","","","null","65","","NaN","","","","","","","","","","","","","",""
"","response","","html-keyboard-response","423","387334","0.0-1.0-590.0-0.0","0","0","76028","","953","","","75","65","","","2","65","training","adjacent","FE","6","5","N.jpg","L.jpg","0","0","1","",""
"","feedback","","html-keyboard-response","424","388346","0.0-1.0-591.0-0.0","0","0","76028","","null","","","null","65","","","","","","","","","","","","","","","",""
"","ITI","","html-keyboard-response","425","389356","0.0-1.0-594.0","0","0","76028","","null","","","null","65","","","","","","","","","","","","","","","NaN",""
"","S1","","html-keyboard-response","426","389615","0.0-1.0-596.0","0","0","76028","","null","","","null","66","","","","","","","","","","","","","","","",""
"","ISI","","html-keyboard-response","427","390623","0.0-1.0-597.0","0","0","76028","","null","","","null","66","NaN","","","","","","","","","","","","","","",""
"","S2","","html-keyboard-response","428","390890","0.0-1.0-598.0","0","0","76028","","null","","","null","66","","NaN","","","","","","","","","","","","","",""
"","response","","html-keyboard-response","429","391920","0.0-1.0-599.0-0.0","0","0","76028","","1025","","","68","66","","","2","66","training","adjacent","BC","2","3","P.jpg","O.jpg","1","1","1","",""
"","feedback","","html-keyboard-response","430","392927","0.0-1.0-600.0-0.0","0","0","76028","","null","","","null","66","","","","","","","","","","","","","","","",""
"","ITI","","html-keyboard-response","431","393933","0.0-1.0-603.0","0","0","76028","","null","","","null","66","","","","","","","","","","","","","","","NaN",""
"","S1","","html-keyboard-response","432","394191","0.0-1.0-605.0","0","0","76028","","null","","","null","67","","","","","","","","","","","","","","","",""
"","ISI","","html-keyboard-response","433","395199","0.0-1.0-606.0","0","0","76028","","null","","","null","67","NaN","","","","","","","","","","","","","","",""
"","S2","","html-keyboard-response","434","395466","0.0-1.0-607.0","0","0","76028","","null","","","null","67","","NaN","","","","","","","","","","","","","",""
"","response","","html-keyboard-response","435","395927","0.0-1.0-608.0-0.0","0","0","76028","","457","","","75","67","","","2","67","training","adjacent","BA","2","1","P.jpg","Q.jpg","0","0","1","",""
"","feedback","","html-keyboard-response","436","396938","0.0-1.0-609.0-0.0","0","0","76028","","null","","","null","67","","","","","","","","","","","","","","","",""
"","ITI","","html-keyboard-response","437","397951","0.0-1.0-612.0","0","0","76028","","null","","","null","67","","","","","","","","","","","","","","","NaN",""
"","S1","","html-keyboard-response","438","398218","0.0-1.0-614.0","0","0","76028","","null","","","null","68","","","","","","","","","","","","","","","",""
"","ISI","","html-keyboard-response","439","399231","0.0-1.0-615.0","0","0","76028","","null","","","null","68","NaN","","","","","","","","","","","","","","",""
"","S2","","html-keyboard-response","440","399497","0.0-1.0-616.0","0","0","76028","","null","","","null","68","","NaN","","","","","","","","","","","","","",""
"","response","","html-keyboard-response","441","400392","0.0-1.0-617.0-0.0","0","0","76028","","891","","","75","68","","","2","68","training","adjacent","FE","6","5","N.jpg","L.jpg","0","0","1","",""
"","feedback","","html-keyboard-response","442","401404","0.0-1.0-618.0-0.0","0","0","76028","","null","","","null","68","","","","","","","","","","","","","","","",""
"","ITI","","html-keyboard-response","443","402415","0.0-1.0-621.0","0","0","76028","","null","","","null","68","","","","","","","","","","","","","","","NaN",""
"","S1","","html-keyboard-response","444","402682","0.0-1.0-623.0","0","0","76028","","null","","","null","69","","","","","","","","","","","","","","","",""
"","ISI","","html-keyboard-response","445","403695","0.0-1.0-624.0","0","0","76028","","null","","","null","69","NaN","","","","","","","","","","","","","","",""
"","S2","","html-keyboard-response","446","403962","0.0-1.0-625.0","0","0","76028","","null","","","null","69","","NaN","","","","","","","","","","","","","",""
"","response","","html-keyboard-response","447","405584","0.0-1.0-626.0-0.0","0","0","76028","","1617","","","75","69","","","2","69","training","adjacent","FE","6","5","N.jpg","L.jpg","0","0","1","",""
"","feedback","","html-keyboard-response","448","406591","0.0-1.0-627.0-0.0","0","0","76028","","null","","","null","69","","","","","","","","","","","","","","","",""
"","ITI","","html-keyboard-response","449","407599","0.0-1.0-630.0","0","0","76028","","null","","","null","69","","","","","","","","","","","","","","","NaN",""
"","S1","","html-keyboard-response","450","407866","0.0-1.0-632.0","0","0","76028","","null","","","null","70","","","","","","","","","","","","","","","",""
"","ISI","","html-keyboard-response","451","408879","0.0-1.0-633.0","0","0","76028","","null","","","null","70","NaN","","","","","","","","","","","","","","",""
"","S2","","html-keyboard-response","452","409145","0.0-1.0-634.0","0","0","76028","","null","","","null","70","","NaN","","","","","","","","","","","","","",""
"","response","","html-keyboard-response","453","409623","0.0-1.0-635.0-0.0","0","0","76028","","473","","","68","70","","","2","70","training","adjacent","EF","5","6","L.jpg","N.jpg","1","1","1","",""
"","feedback","","html-keyboard-response","454","410633","0.0-1.0-636.0-0.0","0","0","76028","","null","","","null","70","","","","","","","","","","","","","","","",""
"","ITI","","html-keyboard-response","455","411647","0.0-1.0-639.0","0","0","76028","","null","","","null","70","","","","","","","","","","","","","","","NaN",""
"","S1","","html-keyboard-response","456","411913","0.0-1.0-641.0","0","0","76028","","null","","","null","71","","","","","","","","","","","","","","","",""
"","ISI","","html-keyboard-response","457","412927","0.0-1.0-642.0","0","0","76028","","null","","","null","71","NaN","","","","","","","","","","","","","","",""
"","S2","","html-keyboard-response","458","413193","0.0-1.0-643.0","0","0","76028","","null","","","null","71","","NaN","","","","","","","","","","","","","",""
"","response","","html-keyboard-response","459","413543","0.0-1.0-644.0-0.0","0","0","76028","","346","","","68","71","","","2","71","training","adjacent","AB","1","2","Q.jpg","P.jpg","1","1","1","",""
"","feedback","","html-keyboard-response","460","414554","0.0-1.0-645.0-0.0","0","0","76028","","null","","","null","71","","","","","","","","","","","","","","","",""
"","ITI","","html-keyboard-response","461","415567","0.0-1.0-648.0","0","0","76028","","null","","","null","71","","","","","","","","","","","","","","","NaN",""
"","S1","","html-keyboard-response","462","415834","0.0-1.0-650.0","0","0","76028","","null","","","null","72","","","","","","","","","","","","","","","",""
"","ISI","","html-keyboard-response","463","416847","0.0-1.0-651.0","0","0","76028","","null","","","null","72","NaN","","","","","","","","","","","","","","",""
"","S2","","html-keyboard-response","464","417114","0.0-1.0-652.0","0","0","76028","","null","","","null","72","","NaN","","","","","","","","","","","","","",""
"","response","","html-keyboard-response","465","417824","0.0-1.0-653.0-0.0","0","0","76028","","705","","","75","72","","","2","72","training","adjacent","GF","7","6","M.jpg","N.jpg","0","0","1","",""
"","feedback","","html-keyboard-response","466","418842","0.0-1.0-654.0-0.0","0","0","76028","","null","","","null","72","","","","","","","","","","","","","","","",""
"","ITI","","html-keyboard-response","467","419855","0.0-1.0-657.0","0","0","76028","","null","","","null","72","","","","","","","","","","","","","","","NaN",""
"","S1","","html-keyboard-response","468","420119","0.0-1.0-659.0","0","0","76028","","null","","","null","73","","","","","","","","","","","","","","","",""
"","ISI","","html-keyboard-response","469","421129","0.0-1.0-660.0","0","0","76028","","null","","","null","73","NaN","","","","","","","","","","","","","","",""
"","S2","","html-keyboard-response","470","421390","0.0-1.0-661.0","0","0","76028","","null","","","null","73","","NaN","","","","","","","","","","","","","",""
"","response","","html-keyboard-response","471","422336","0.0-1.0-662.0-0.0","0","0","76028","","942","","","68","73","","","2","73","training","adjacent","EF","5","6","L.jpg","N.jpg","1","1","1","",""
"","feedback","","html-keyboard-response","472","423353","0.0-1.0-663.0-0.0","0","0","76028","","null","","","null","73","","","","","","","","","","","","","","","",""
"","ITI","","html-keyboard-response","473","424367","0.0-1.0-666.0","0","0","76028","","null","","","null","73","","","","","","","","","","","","","","","NaN",""
"","S1","","html-keyboard-response","474","424633","0.0-1.0-668.0","0","0","76028","","null","","","null","74","","","","","","","","","","","","","","","",""
"","ISI","","html-keyboard-response","475","425646","0.0-1.0-669.0","0","0","76028","","null","","","null","74","NaN","","","","","","","","","","","","","","",""
"","S2","","html-keyboard-response","476","425911","0.0-1.0-670.0","0","0","76028","","null","","","null","74","","NaN","","","","","","","","","","","","","",""
"","response","","html-keyboard-response","477","426319","0.0-1.0-671.0-0.0","0","0","76028","","406","","","68","74","","","2","74","training","adjacent","AB","1","2","Q.jpg","P.jpg","1","1","1","",""
"","feedback","","html-keyboard-response","478","427337","0.0-1.0-672.0-0.0","0","0","76028","","null","","","null","74","","","","","","","","","","","","","","","",""
"","ITI","","html-keyboard-response","479","428351","0.0-1.0-675.0","0","0","76028","","null","","","null","74","","","","","","","","","","","","","","","NaN",""
"","S1","","html-keyboard-response","480","428618","0.0-1.0-677.0","0","0","76028","","null","","","null","75","","","","","","","","","","","","","","","",""
"","ISI","","html-keyboard-response","481","429628","0.0-1.0-678.0","0","0","76028","","null","","","null","75","NaN","","","","","","","","","","","","","","",""
"","S2","","html-keyboard-response","482","429887","0.0-1.0-679.0","0","0","76028","","null","","","null","75","","NaN","","","","","","","","","","","","","",""
"","response","","html-keyboard-response","483","430263","0.0-1.0-680.0-0.0","0","0","76028","","372","","","75","75","","","2","75","training","adjacent","BA","2","1","P.jpg","Q.jpg","0","0","1","",""
"","feedback","","html-keyboard-response","484","431274","0.0-1.0-681.0-0.0","0","0","76028","","null","","","null","75","","","","","","","","","","","","","","","",""
"","ITI","","html-keyboard-response","485","432287","0.0-1.0-684.0","0","0","76028","","null","","","null","75","","","","","","","","","","","","","","","NaN",""
"","S1","","html-keyboard-response","486","432553","0.0-1.0-686.0","0","0","76028","","null","","","null","76","","","","","","","","","","","","","","","",""
"","ISI","","html-keyboard-response","487","433567","0.0-1.0-687.0","0","0","76028","","null","","","null","76","NaN","","","","","","","","","","","","","","",""
"","S2","","html-keyboard-response","488","433834","0.0-1.0-688.0","0","0","76028","","null","","","null","76","","NaN","","","","","","","","","","","","","",""
"","response","","html-keyboard-response","489","434344","0.0-1.0-689.0-0.0","0","0","76028","","505","","","68","76","","","2","76","training","adjacent","CD","3","4","O.jpg","R.jpg","1","1","1","",""
"","feedback","","html-keyboard-response","490","435359","0.0-1.0-690.0-0.0","0","0","76028","","null","","","null","76","","","","","","","","","","","","","","","",""
"","ITI","","html-keyboard-response","491","436367","0.0-1.0-693.0","0","0","76028","","null","","","null","76","","","","","","","","","","","","","","","NaN",""
"","S1","","html-keyboard-response","492","436633","0.0-1.0-695.0","0","0","76028","","null","","","null","77","","","","","","","","","","","","","","","",""
"","ISI","","html-keyboard-response","493","437647","0.0-1.0-696.0","0","0","76028","","null","","","null","77","NaN","","","","","","","","","","","","","","",""
"","S2","","html-keyboard-response","494","437913","0.0-1.0-697.0","0","0","76028","","null","","","null","77","","NaN","","","","","","","","","","","","","",""
"","response","","html-keyboard-response","495","438320","0.0-1.0-698.0-0.0","0","0","76028","","402","","","75","77","","","2","77","training","adjacent","DC","4","3","R.jpg","O.jpg","0","0","1","",""
"","feedback","","html-keyboard-response","496","439337","0.0-1.0-699.0-0.0","0","0","76028","","null","","","null","77","","","","","","","","","","","","","","","",""
"","ITI","","html-keyboard-response","497","440350","0.0-1.0-702.0","0","0","76028","","null","","","null","77","","","","","","","","","","","","","","","NaN",""
"","S1","","html-keyboard-response","498","440614","0.0-1.0-704.0","0","0","76028","","null","","","null","78","","","","","","","","","","","","","","","",""
"","ISI","","html-keyboard-response","499","441625","0.0-1.0-705.0","0","0","76028","","null","","","null","78","NaN","","","","","","","","","","","","","","",""
"","S2","","html-keyboard-response","500","441886","0.0-1.0-706.0","0","0","76028","","null","","","null","78","","NaN","","","","","","","","","","","","","",""
"","response","","html-keyboard-response","501","442159","0.0-1.0-707.0-0.0","0","0","76028","","269","","","75","78","","","2","78","training","adjacent","BA","2","1","P.jpg","Q.jpg","0","0","1","",""
"","feedback","","html-keyboard-response","502","443166","0.0-1.0-708.0-0.0","0","0","76028","","null","","","null","78","","","","","","","","","","","","","","","",""
"","ITI","","html-keyboard-response","503","444174","0.0-1.0-711.0","0","0","76028","","null","","","null","78","","","","","","","","","","","","","","","NaN",""
"","S1","","html-keyboard-response","504","444441","0.0-1.0-713.0","0","0","76028","","null","","","null","79","","","","","","","","","","","","","","","",""
"","ISI","","html-keyboard-response","505","445454","0.0-1.0-714.0","0","0","76028","","null","","","null","79","NaN","","","","","","","","","","","","","","",""
"","S2","","html-keyboard-response","506","445721","0.0-1.0-715.0","0","0","76028","","null","","","null","79","","NaN","","","","","","","","","","","","","",""
"","response","","html-keyboard-response","507","446143","0.0-1.0-716.0-0.0","0","0","76028","","418","","","68","79","","","2","79","training","adjacent","EF","5","6","L.jpg","N.jpg","1","1","1","",""
"","feedback","","html-keyboard-response","508","447161","0.0-1.0-717.0-0.0","0","0","76028","","null","","","null","79","","","","","","","","","","","","","","","",""
"","ITI","","html-keyboard-response","509","448174","0.0-1.0-720.0","0","0","76028","","null","","","null","79","","","","","","","","","","","","","","","NaN",""
"","S1","","html-keyboard-response","510","448441","0.0-1.0-722.0","0","0","76028","","null","","","null","80","","","","","","","","","","","","","","","",""
"","ISI","","html-keyboard-response","511","449454","0.0-1.0-723.0","0","0","76028","","null","","","null","80","NaN","","","","","","","","","","","","","","",""
"","S2","","html-keyboard-response","512","449720","0.0-1.0-724.0","0","0","76028","","null","","","null","80","","NaN","","","","","","","","","","","","","",""
"","response","","html-keyboard-response","513","450192","0.0-1.0-725.0-0.0","0","0","76028","","468","","","68","80","","","2","80","training","adjacent","FG","6","7","N.jpg","M.jpg","1","1","1","",""
"","feedback","","html-keyboard-response","514","451209","0.0-1.0-726.0-0.0","0","0","76028","","null","","","null","80","","","","","","","","","","","","","","","",""
"","ITI","","html-keyboard-response","515","452222","0.0-1.0-729.0","0","0","76028","","null","","","null","80","","","","","","","","","","","","","","","NaN",""
"","S1","","html-keyboard-response","516","452492","0.0-1.0-731.0","0","0","76028","","null","","","null","81","","","","","","","","","","","","","","","",""
"","ISI","","html-keyboard-response","517","453502","0.0-1.0-732.0","0","0","76028","","null","","","null","81","NaN","","","","","","","","","","","","","","",""
"","S2","","html-keyboard-response","518","453769","0.0-1.0-733.0","0","0","76028","","null","","","null","81","","NaN","","","","","","","","","","","","","",""
"","response","","html-keyboard-response","519","453903","0.0-1.0-734.0-0.0","0","0","76028","","130","","","75","81","","","2","81","training","adjacent","BC","2","3","P.jpg","O.jpg","0","1","0","",""
"","feedback","","html-keyboard-response","520","454921","0.0-1.0-735.0-0.0","0","0","76028","","null","","","null","81","","","","","","","","","","","","","","","",""
"","time_out","","html-keyboard-response","521","456937","0.0-1.0-737.0-0.0","0","0","76028","","null","","","null","81","","","","","","","","","","","","","","","",""
"","ITI","","html-keyboard-response","522","457950","0.0-1.0-738.0","0","0","76028","","null","","","null","81","","","","","","","","","","","","","","","NaN",""
"","S1","","html-keyboard-response","523","458217","0.0-1.0-740.0","0","0","76028","","null","","","null","82","","","","","","","","","","","","","","","",""
"","ISI","","html-keyboard-response","524","459230","0.0-1.0-741.0","0","0","76028","","null","","","null","82","NaN","","","","","","","","","","","","","","",""
"","S2","","html-keyboard-response","525","459497","0.0-1.0-742.0","0","0","76028","","null","","","null","82","","NaN","","","","","","","","","","","","","",""
"","response","","html-keyboard-response","526","459776","0.0-1.0-743.0-0.0","0","0","76028","","274","","","68","82","","","2","82","training","adjacent","CD","3","4","O.jpg","R.jpg","1","1","1","",""
"","feedback","","html-keyboard-response","527","460793","0.0-1.0-744.0-0.0","0","0","76028","","null","","","null","82","","","","","","","","","","","","","","","",""
"","ITI","","html-keyboard-response","528","461806","0.0-1.0-747.0","0","0","76028","","null","","","null","82","","","","","","","","","","","","","","","NaN",""
"","S1","","html-keyboard-response","529","462070","0.0-1.0-749.0","0","0","76028","","null","","","null","83","","","","","","","","","","","","","","","",""
"","ISI","","html-keyboard-response","530","463078","0.0-1.0-750.0","0","0","76028","","null","","","null","83","NaN","","","","","","","","","","","","","","",""
"","S2","","html-keyboard-response","531","463342","0.0-1.0-751.0","0","0","76028","","null","","","null","83","","NaN","","","","","","","","","","","","","",""
"","response","","html-keyboard-response","532","463815","0.0-1.0-752.0-0.0","0","0","76028","","469","","","68","83","","","2","83","training","adjacent","ED","5","4","L.jpg","R.jpg","1","0","0","",""
"","feedback","","html-keyboard-response","533","464825","0.0-1.0-753.0-0.0","0","0","76028","","null","","","null","83","","","","","","","","","","","","","","","",""
"","time_out","","html-keyboard-response","534","466841","0.0-1.0-755.0-0.0","0","0","76028","","null","","","null","83","","","","","","","","","","","","","","","",""
"","ITI","","html-keyboard-response","535","467854","0.0-1.0-756.0","0","0","76028","","null","","","null","83","","","","","","","","","","","","","","","NaN",""
"","S1","","html-keyboard-response","536","468121","0.0-1.0-758.0","0","0","76028","","null","","","null","84","","","","","","","","","","","","","","","",""
"","ISI","","html-keyboard-response","537","469128","0.0-1.0-759.0","0","0","76028","","null","","","null","84","NaN","","","","","","","","","","","","","","",""
"","S2","","html-keyboard-response","538","469390","0.0-1.0-760.0","0","0","76028","","null","","","null","84","","NaN","","","","","","","","","","","","","",""
"","response","","html-keyboard-response","539","469932","0.0-1.0-761.0-0.0","0","0","76028","","540","","","75","84","","","2","84","training","adjacent","ED","5","4","L.jpg","R.jpg","0","0","1","",""
"","feedback","","html-keyboard-response","540","470942","0.0-1.0-762.0-0.0","0","0","76028","","null","","","null","84","","","","","","","","","","","","","","","",""
"","ITI","","html-keyboard-response","541","471950","0.0-1.0-765.0","0","0","76028","","null","","","null","84","","","","","","","","","","","","","","","NaN",""
"","S1","","html-keyboard-response","542","472217","0.0-1.0-767.0","0","0","76028","","null","","","null","85","","","","","","","","","","","","","","","",""
"","ISI","","html-keyboard-response","543","473230","0.0-1.0-768.0","0","0","76028","","null","","","null","85","NaN","","","","","","","","","","","","","","",""
"","S2","","html-keyboard-response","544","473497","0.0-1.0-769.0","0","0","76028","","null","","","null","85","","NaN","","","","","","","","","","","","","",""
"","response","","html-keyboard-response","545","473879","0.0-1.0-770.0-0.0","0","0","76028","","378","","","68","85","","","2","85","training","adjacent","CD","3","4","O.jpg","R.jpg","1","1","1","",""
"","feedback","","html-keyboard-response","546","474894","0.0-1.0-771.0-0.0","0","0","76028","","null","","","null","85","","","","","","","","","","","","","","","",""
"","ITI","","html-keyboard-response","547","475902","0.0-1.0-774.0","0","0","76028","","null","","","null","85","","","","","","","","","","","","","","","NaN",""
"","S1","","html-keyboard-response","548","476169","0.0-1.0-776.0","0","0","76028","","null","","","null","86","","","","","","","","","","","","","","","",""
"","ISI","","html-keyboard-response","549","477182","0.0-1.0-777.0","0","0","76028","","null","","","null","86","NaN","","","","","","","","","","","","","","",""
"","S2","","html-keyboard-response","550","477449","0.0-1.0-778.0","0","0","76028","","null","","","null","86","","NaN","","","","","","","","","","","","","",""
"","response","","html-keyboard-response","551","477728","0.0-1.0-779.0-0.0","0","0","76028","","274","","","75","86","","","2","86","training","adjacent","FE","6","5","N.jpg","L.jpg","0","0","1","",""
"","feedback","","html-keyboard-response","552","478745","0.0-1.0-780.0-0.0","0","0","76028","","null","","","null","86","","","","","","","","","","","","","","","",""
"","ITI","","html-keyboard-response","553","479758","0.0-1.0-783.0","0","0","76028","","null","","","null","86","","","","","","","","","","","","","","","NaN",""
"","S1","","html-keyboard-response","554","480024","0.0-1.0-785.0","0","0","76028","","null","","","null","87","","","","","","","","","","","","","","","",""
"","ISI","","html-keyboard-response","555","481038","0.0-1.0-786.0","0","0","76028","","null","","","null","87","NaN","","","","","","","","","","","","","","",""
"","S2","","html-keyboard-response","556","481305","0.0-1.0-787.0","0","0","76028","","null","","","null","87","","NaN","","","","","","","","","","","","","",""
"","response","","html-keyboard-response","557","481671","0.0-1.0-788.0-0.0","0","0","76028","","363","","","68","87","","","2","87","training","adjacent","DC","4","3","R.jpg","O.jpg","1","0","0","",""
"","feedback","","html-keyboard-response","558","482686","0.0-1.0-789.0-0.0","0","0","76028","","null","","","null","87","","","","","","","","","","","","","","","",""
"","time_out","","html-keyboard-response","559","484697","0.0-1.0-791.0-0.0","0","0","76028","","null","","","null","87","","","","","","","","","","","","","","","",""
"","ITI","","html-keyboard-response","560","485710","0.0-1.0-792.0","0","0","76028","","null","","","null","87","","","","","","","","","","","","","","","NaN",""
"","S1","","html-keyboard-response","561","485977","0.0-1.0-794.0","0","0","76028","","null","","","null","88","","","","","","","","","","","","","","","",""
"","ISI","","html-keyboard-response","562","486990","0.0-1.0-795.0","0","0","76028","","null","","","null","88","NaN","","","","","","","","","","","","","","",""
"","S2","","html-keyboard-response","563","487256","0.0-1.0-796.0","0","0","76028","","null","","","null","88","","NaN","","","","","","","","","","","","","",""
"","response","","html-keyboard-response","564","488193","0.0-1.0-797.0-0.0","0","0","76028","","931","","","75","88","","","2","88","training","adjacent","DE","4","5","R.jpg","L.jpg","0","1","0","",""
"","feedback","","html-keyboard-response","565","489209","0.0-1.0-798.0-0.0","0","0","76028","","null","","","null","88","","","","","","","","","","","","","","","",""
"","time_out","","html-keyboard-response","566","491221","0.0-1.0-800.0-0.0","0","0","76028","","null","","","null","88","","","","","","","","","","","","","","","",""
"","ITI","","html-keyboard-response","567","492233","0.0-1.0-801.0","0","0","76028","","null","","","null","88","","","","","","","","","","","","","","","NaN",""
"","S1","","html-keyboard-response","568","492494","0.0-1.0-803.0","0","0","76028","","null","","","null","89","","","","","","","","","","","","","","","",""
"","ISI","","html-keyboard-response","569","493499","0.0-1.0-804.0","0","0","76028","","null","","","null","89","NaN","","","","","","","","","","","","","","",""
"","S2","","html-keyboard-response","570","493758","0.0-1.0-805.0","0","0","76028","","null","","","null","89","","NaN","","","","","","","","","","","","","",""
"","response","","html-keyboard-response","571","494075","0.0-1.0-806.0-0.0","0","0","76028","","315","","","68","89","","","2","89","training","adjacent","AB","1","2","Q.jpg","P.jpg","1","1","1","",""
"","feedback","","html-keyboard-response","572","495086","0.0-1.0-807.0-0.0","0","0","76028","","null","","","null","89","","","","","","","","","","","","","","","",""
"","ITI","","html-keyboard-response","573","496094","0.0-1.0-810.0","0","0","76028","","null","","","null","89","","","","","","","","","","","","","","","NaN",""
"","S1","","html-keyboard-response","574","496358","0.0-1.0-812.0","0","0","76028","","null","","","null","90","","","","","","","","","","","","","","","",""
"","ISI","","html-keyboard-response","575","497369","0.0-1.0-813.0","0","0","76028","","null","","","null","90","NaN","","","","","","","","","","","","","","",""
"","S2","","html-keyboard-response","576","497630","0.0-1.0-814.0","0","0","76028","","null","","","null","90","","NaN","","","","","","","","","","","","","",""
"","response","","html-keyboard-response","577","498099","0.0-1.0-815.0-0.0","0","0","76028","","467","","","68","90","","","2","90","training","adjacent","DE","4","5","R.jpg","L.jpg","1","1","1","",""
"","feedback","","html-keyboard-response","578","499112","0.0-1.0-816.0-0.0","0","0","76028","","null","","","null","90","","","","","","","","","","","","","","","",""
"","ITI","","html-keyboard-response","579","500125","0.0-1.0-819.0","0","0","76028","","null","","","null","90","","","","","","","","","","","","","","","NaN",""
"","S1","","html-keyboard-response","580","500392","0.0-1.0-821.0","0","0","76028","","null","","","null","91","","","","","","","","","","","","","","","",""
"","ISI","","html-keyboard-response","581","501405","0.0-1.0-822.0","0","0","76028","","null","","","null","91","NaN","","","","","","","","","","","","","","",""
"","S2","","html-keyboard-response","582","501672","0.0-1.0-823.0","0","0","76028","","null","","","null","91","","NaN","","","","","","","","","","","","","",""
