"success","ttype","start_time","trial_type","trial_index","time_elapsed","internal_node_id","warning","missed_checkup","PID","view_history","rt","responses","repeat_instructions","key_press","index","keypress_isi","keypress_S2","block","trial_num","phase","group_type","pair_type","S1_stim","S2_stim","S1_img","S2_img","S1_chosen","S1_higher","accuracy","keypress_iti","total_bonus_tally"
"true","full_screen","d08052022hr1232","fullscreen","0","6679","0.0-0.0","0","0","27397","","","","","","","","","","","","","","","","","","","","","",""
"","instructions","","instructions","1","100951","0.0-1.0-0.0-0.0","0","0","27397","[{""page_index"":0,""viewing_time"":3902},{""page_index"":1,""viewing_time"":37646},{""page_index"":2,""viewing_time"":7136},{""page_index"":1,""viewing_time"":24590},{""page_index"":2,""viewing_time"":19618},{""page_index"":3,""viewing_time"":1374}]","94268","","","","","","","","","","","","","","","","","","","",""
"","comprehension_check","","survey-multi-choice","2","146733","0.0-1.0-0.0-1.0","0","0","27397","","45773","{""Q0"":""True"",""Q1"":""D"",""Q2"":""Only when the screen 'MAKE A CHOICE' is shown"",""Q3"":""Green mark"",""Q4"":""either D or K""}","1","","","","","","","","","","","","","","","","","",""
"","missed_instruction_checkup","","html-keyboard-response","3","149498","0.0-1.0-0.0-2.0-0.0","0","1","27397","","2752","","","32","","","","","","","","","","","","","","","","",""
"","instructions","","instructions","4","200692","0.0-1.0-0.1-0.1","0","0","27397","[{""page_index"":0,""viewing_time"":1712},{""page_index"":1,""viewing_time"":46438},{""page_index"":2,""viewing_time"":1394},{""page_index"":3,""viewing_time"":1647}]","51191","","","","","","","","","","","","","","","","","","","",""
"","comprehension_check","","survey-multi-choice","5","220177","0.0-1.0-0.1-1.1","0","0","27397","","19474","{""Q0"":""True"",""Q1"":""D"",""Q2"":""Only when the screen 'MAKE A CHOICE' is shown"",""Q3"":""Green mark"",""Q4"":""either D or K""}","1","","","","","","","","","","","","","","","","","",""
"","missed_instruction_checkup","","html-keyboard-response","6","224615","0.0-1.0-0.1-2.1-0.1","0","1","27397","","4428","","","32","","","","","","","","","","","","","","","","",""
"","instructions","","instructions","7","229163","0.0-1.0-0.2-0.2","0","0","27397","[{""page_index"":0,""viewing_time"":1335},{""page_index"":1,""viewing_time"":539},{""page_index"":2,""viewing_time"":656},{""page_index"":3,""viewing_time"":2016}]","4546","","","","","","","","","","","","","","","","","","","",""
"","comprehension_check","","survey-multi-choice","8","244017","0.0-1.0-0.2-1.2","0","0","27397","","14846","{""Q0"":""False"",""Q1"":""D"",""Q2"":""Once the second image appears and while the screen 'MAKE A CHOICE' is shown"",""Q3"":""Green mark"",""Q4"":""either D or K""}","1","","","","","","","","","","","","","","","","","",""
"","missed_instruction_checkup","","html-keyboard-response","9","245534","0.0-1.0-0.2-2.2-0.2","0","1","27397","","1507","","","32","","","","","","","","","","","","","","","","",""
"","instructions","","instructions","10","287414","0.0-1.0-0.3-0.3","0","0","27397","[{""page_index"":0,""viewing_time"":1660},{""page_index"":1,""viewing_time"":38209},{""page_index"":2,""viewing_time"":790},{""page_index"":3,""viewing_time"":1218}]","41877","","","","","","","","","","","","","","","","","","","",""
"","comprehension_check","","survey-multi-choice","11","300714","0.0-1.0-0.3-1.3","0","0","27397","","13292","{""Q0"":""True"",""Q1"":""K"",""Q2"":""Once the second image appears and while the screen 'MAKE A CHOICE' is shown"",""Q3"":""Green mark"",""Q4"":""either D or K""}","0","","","","","","","","","","","","","","","","","",""
"","start_exp","","html-keyboard-response","12","302866","0.0-1.0-1.0","0","0","27397","","2143","","","32","","","","","","","","","","","","","","","","",""
"","S1","","html-keyboard-response","13","303123","0.0-1.0-2.0","0","0","27397","","null","","","null","0","","","","","","","","","","","","","","","",""
"","ISI","","html-keyboard-response","14","305129","0.0-1.0-3.0","0","0","27397","","null","","","null","0","NaN","","","","","","","","","","","","","","",""
"","S2","","html-keyboard-response","15","305384","0.0-1.0-4.0","0","0","27397","","null","","","null","0","","NaN","","","","","","","","","","","","","",""
"","response","","html-keyboard-response","16","305499","0.0-1.0-5.0-0.0","0","0","27397","","111","","","75","0","","","1","0","training","adjacent","ED","5","4","M.jpg","R.jpg","1","0","0","",""
"","feedback","","html-keyboard-response","17","306505","0.0-1.0-6.0-0.0","0","0","27397","","null","","","null","0","","","","","","","","","","","","","","","",""
"","time_out","","html-keyboard-response","18","308510","0.0-1.0-8.0-0.0","0","0","27397","","null","","","null","0","","","","","","","","","","","","","","","",""
"","ITI","","html-keyboard-response","19","309518","0.0-1.0-9.0","0","0","27397","","null","","","null","0","","","","","","","","","","","","","","","NaN",""
"","S1","","html-keyboard-response","20","309771","0.0-1.0-11.0","0","0","27397","","null","","","null","1","","","","","","","","","","","","","","","",""
"","ISI","","html-keyboard-response","21","311779","0.0-1.0-12.0","0","0","27397","","60","","","75","1","k","","","","","","","","","","","","","","",""
"","S2","","html-keyboard-response","22","312035","0.0-1.0-13.0","0","0","27397","","null","","","null","1","","NaN","","","","","","","","","","","","","",""
"","response","","html-keyboard-response","23","312127","0.0-1.0-14.0-0.0","0","0","27397","","89","","","68","1","","","1","1","training","adjacent","EF","5","6","M.jpg","Q.jpg","0","1","0","",""
"","feedback","","html-keyboard-response","24","313134","0.0-1.0-15.0-0.0","0","0","27397","","null","","","null","1","","","","","","","","","","","","","","","",""
"","time_out","","html-keyboard-response","25","315139","0.0-1.0-17.0-0.0","0","0","27397","","null","","","null","1","","","","","","","","","","","","","","","",""
"","ITI","","html-keyboard-response","26","316147","0.0-1.0-18.0","0","0","27397","","null","","","null","1","","","","","","","","","","","","","","","NaN",""
"","S1","","html-keyboard-response","27","316403","0.0-1.0-20.0","0","0","27397","","null","","","null","2","","","","","","","","","","","","","","","",""
"","ISI","","html-keyboard-response","28","318408","0.0-1.0-21.0","0","0","27397","","48","","","75","2","k","","","","","","","","","","","","","","",""
"","S2","","html-keyboard-response","29","318665","0.0-1.0-22.0","0","0","27397","","null","","","null","2","","NaN","","","","","","","","","","","","","",""
"","response","","html-keyboard-response","30","318670","0.0-1.0-23.0-0.0","0","0","27397","","0","","","75","2","","","1","2","training","adjacent","DE","4","5","R.jpg","M.jpg","1","1","1","",""
"","feedback","","html-keyboard-response","31","319672","0.0-1.0-24.0-0.0","0","0","27397","","null","","","null","2","","","","","","","","","","","","","","","",""
"","ITI","","html-keyboard-response","32","320677","0.0-1.0-27.0","0","0","27397","","null","","","null","2","","","","","","","","","","","","","","","NaN",""
"","S1","","html-keyboard-response","33","320931","0.0-1.0-29.0","0","0","27397","","null","","","null","3","","","","","","","","","","","","","","","",""
"","ISI","","html-keyboard-response","34","322937","0.0-1.0-30.0","0","0","27397","","31","","","75","3","k","","","","","","","","","","","","","","",""
"","S2","","html-keyboard-response","35","323193","0.0-1.0-31.0","0","0","27397","","null","","","null","3","","NaN","","","","","","","","","","","","","",""
"","response","","html-keyboard-response","36","323254","0.0-1.0-32.0-0.0","0","0","27397","","58","","","68","3","","","1","3","training","adjacent","GF","7","6","L.jpg","Q.jpg","0","0","1","",""
"","feedback","","html-keyboard-response","37","324259","0.0-1.0-33.0-0.0","0","0","27397","","null","","","null","3","","","","","","","","","","","","","","","",""
"","ITI","","html-keyboard-response","38","325267","0.0-1.0-36.0","0","0","27397","","null","","","null","3","","","","","","","","","","","","","","","NaN",""
"","S1","","html-keyboard-response","39","325525","0.0-1.0-38.0","0","0","27397","","null","","","null","4","","","","","","","","","","","","","","","",""
"","ISI","","html-keyboard-response","40","327528","0.0-1.0-39.0","0","0","27397","","128","","","75","4","k","","","","","","","","","","","","","","",""
"","S2","","html-keyboard-response","41","327785","0.0-1.0-40.0","0","0","27397","","null","","","null","4","","NaN","","","","","","","","","","","","","",""
"","response","","html-keyboard-response","42","327892","0.0-1.0-41.0-0.0","0","0","27397","","104","","","75","4","","","1","4","training","adjacent","DE","4","5","R.jpg","M.jpg","1","1","1","",""
"","feedback","","html-keyboard-response","43","328899","0.0-1.0-42.0-0.0","0","0","27397","","null","","","null","4","","","","","","","","","","","","","","","",""
"","ITI","","html-keyboard-response","44","329906","0.0-1.0-45.0","0","0","27397","","null","","","null","4","","","","","","","","","","","","","","","NaN",""
"","S1","","html-keyboard-response","45","330159","0.0-1.0-47.0","0","0","27397","","null","","","null","5","","","","","","","","","","","","","","","",""
"","ISI","","html-keyboard-response","46","332163","0.0-1.0-48.0","0","0","27397","","null","","","null","5","NaN","","","","","","","","","","","","","","",""
"","S2","","html-keyboard-response","47","332419","0.0-1.0-49.0","0","0","27397","","null","","","null","5","","NaN","","","","","","","","","","","","","",""
"","response","","html-keyboard-response","48","332507","0.0-1.0-50.0-0.0","0","0","27397","","84","","","75","5","","","1","5","training","adjacent","DE","4","5","R.jpg","M.jpg","1","1","1","",""
"","feedback","","html-keyboard-response","49","333513","0.0-1.0-51.0-0.0","0","0","27397","","null","","","null","5","","","","","","","","","","","","","","","",""
"","ITI","","html-keyboard-response","50","334520","0.0-1.0-54.0","0","0","27397","","null","","","null","5","","","","","","","","","","","","","","","NaN",""
"","S1","","html-keyboard-response","51","334776","0.0-1.0-56.0","0","0","27397","","null","","","null","6","","","","","","","","","","","","","","","",""
"","ISI","","html-keyboard-response","52","336782","0.0-1.0-57.0","0","0","27397","","127","","","75","6","k","","","","","","","","","","","","","","",""
"","S2","","html-keyboard-response","53","336989","0.0-1.0-58.0","0","0","27397","","202","","","75","6","","k","1","6","training","adjacent","CD","3","4","N.jpg","R.jpg","1","1","1","",""
"","feedback","","html-keyboard-response","54","337992","0.0-1.0-60.0-0.0","0","0","27397","","null","","","null","6","","","","","","","","","","","","","","","",""
"","ITI","","html-keyboard-response","55","339001","0.0-1.0-63.0","0","0","27397","","null","","","null","6","","","","","","","","","","","","","","","NaN",""
"","S1","","html-keyboard-response","56","339257","0.0-1.0-65.0","0","0","27397","","null","","","null","7","","","","","","","","","","","","","","","",""
"","ISI","","html-keyboard-response","57","341262","0.0-1.0-66.0","0","0","27397","","1492","","","75","7","k","","","","","","","","","","","","","","",""
"","S2","","html-keyboard-response","58","341520","0.0-1.0-67.0","0","0","27397","","null","","","null","7","","NaN","","","","","","","","","","","","","",""
"","response","","html-keyboard-response","59","341538","0.0-1.0-68.0-0.0","0","0","27397","","12","","","75","7","","","1","7","training","adjacent","ED","5","4","M.jpg","R.jpg","1","0","0","",""
"","feedback","","html-keyboard-response","60","342546","0.0-1.0-69.0-0.0","0","0","27397","","null","","","null","7","","","","","","","","","","","","","","","",""
"","time_out","","html-keyboard-response","61","344553","0.0-1.0-71.0-0.0","0","0","27397","","null","","","null","7","","","","","","","","","","","","","","","",""
"","ITI","","html-keyboard-response","62","345560","0.0-1.0-72.0","0","0","27397","","null","","","null","7","","","","","","","","","","","","","","","NaN",""
"","S1","","html-keyboard-response","63","345817","0.0-1.0-74.0","0","0","27397","","null","","","null","8","","","","","","","","","","","","","","","",""
"","ISI","","html-keyboard-response","64","347823","0.0-1.0-75.0","0","0","27397","","117","","","75","8","k","","","","","","","","","","","","","","",""
"","S2","","html-keyboard-response","65","348073","0.0-1.0-76.0","0","0","27397","","247","","","75","8","","k","1","8","training","adjacent","GF","7","6","L.jpg","Q.jpg","1","0","0","",""
"","feedback","","html-keyboard-response","66","349081","0.0-1.0-78.0-0.0","0","0","27397","","null","","","null","8","","","","","","","","","","","","","","","",""
"","time_out","","html-keyboard-response","67","351086","0.0-1.0-80.0-0.0","0","0","27397","","null","","","null","8","","","","","","","","","","","","","","","",""
"","ITI","","html-keyboard-response","68","352094","0.0-1.0-81.0","0","0","27397","","null","","","null","8","","","","","","","","","","","","","","","NaN",""
"","S1","","html-keyboard-response","69","352350","0.0-1.0-83.0","0","0","27397","","null","","","null","9","","","","","","","","","","","","","","","",""
"","ISI","","html-keyboard-response","70","354355","0.0-1.0-84.0","0","0","27397","","18","","","75","9","k","","","","","","","","","","","","","","",""
"","S2","","html-keyboard-response","71","354611","0.0-1.0-85.0","0","0","27397","","null","","","null","9","","NaN","","","","","","","","","","","","","",""
"","response","","html-keyboard-response","72","354635","0.0-1.0-86.0-0.0","0","0","27397","","20","","","75","9","","","1","9","training","adjacent","EF","5","6","M.jpg","Q.jpg","1","1","1","",""
"","feedback","","html-keyboard-response","73","355641","0.0-1.0-87.0-0.0","0","0","27397","","null","","","null","9","","","","","","","","","","","","","","","",""
"","ITI","","html-keyboard-response","74","356649","0.0-1.0-90.0","0","0","27397","","null","","","null","9","","","","","","","","","","","","","","","NaN",""
"","S1","","html-keyboard-response","75","356905","0.0-1.0-92.0","0","0","27397","","null","","","null","10","","","","","","","","","","","","","","","",""
"","ISI","","html-keyboard-response","76","358910","0.0-1.0-93.0","0","0","27397","","75","","","75","10","k","","","","","","","","","","","","","","",""
"","S2","","html-keyboard-response","77","359166","0.0-1.0-94.0","0","0","27397","","null","","","null","10","","NaN","","","","","","","","","","","","","",""
"","response","","html-keyboard-response","78","359230","0.0-1.0-95.0-0.0","0","0","27397","","60","","","68","10","","","1","10","training","adjacent","AB","1","2","O.jpg","P.jpg","0","1","0","",""
"","feedback","","html-keyboard-response","79","360238","0.0-1.0-96.0-0.0","0","0","27397","","null","","","null","10","","","","","","","","","","","","","","","",""
"","time_out","","html-keyboard-response","80","362244","0.0-1.0-98.0-0.0","0","0","27397","","null","","","null","10","","","","","","","","","","","","","","","",""
"","ITI","","html-keyboard-response","81","363252","0.0-1.0-99.0","0","0","27397","","null","","","null","10","","","","","","","","","","","","","","","NaN",""
"","S1","","html-keyboard-response","82","363505","0.0-1.0-101.0","0","0","27397","","null","","","null","11","","","","","","","","","","","","","","","",""
"","ISI","","html-keyboard-response","83","365513","0.0-1.0-102.0","0","0","27397","","null","","","null","11","NaN","","","","","","","","","","","","","","",""
"","S2","","html-keyboard-response","84","365766","0.0-1.0-103.0","0","0","27397","","248","","","75","11","","k","1","11","training","adjacent","FG","6","7","Q.jpg","L.jpg","1","1","1","",""
"","feedback","","html-keyboard-response","85","366772","0.0-1.0-105.0-0.0","0","0","27397","","null","","","null","11","","","","","","","","","","","","","","","",""
"","ITI","","html-keyboard-response","86","367780","0.0-1.0-108.0","0","0","27397","","null","","","null","11","","","","","","","","","","","","","","","NaN",""
"","S1","","html-keyboard-response","87","368036","0.0-1.0-110.0","0","0","27397","","null","","","null","12","","","","","","","","","","","","","","","",""
"","ISI","","html-keyboard-response","88","370045","0.0-1.0-111.0","0","0","27397","","7","","","75","12","k","","","","","","","","","","","","","","",""
"","S2","","html-keyboard-response","89","370273","0.0-1.0-112.0","0","0","27397","","224","","","75","12","","k","1","12","training","adjacent","DE","4","5","R.jpg","M.jpg","1","1","1","",""
"","feedback","","html-keyboard-response","90","371281","0.0-1.0-114.0-0.0","0","0","27397","","null","","","null","12","","","","","","","","","","","","","","","",""
"","ITI","","html-keyboard-response","91","372289","0.0-1.0-117.0","0","0","27397","","null","","","null","12","","","","","","","","","","","","","","","NaN",""
"","S1","","html-keyboard-response","92","372546","0.0-1.0-119.0","0","0","27397","","null","","","null","13","","","","","","","","","","","","","","","",""
"","ISI","","html-keyboard-response","93","374554","0.0-1.0-120.0","0","0","27397","","73","","","75","13","k","","","","","","","","","","","","","","",""
"","S2","","html-keyboard-response","94","374808","0.0-1.0-121.0","0","0","27397","","null","","","null","13","","NaN","","","","","","","","","","","","","",""
"","response","","html-keyboard-response","95","374859","0.0-1.0-122.0-0.0","0","0","27397","","48","","","75","13","","","1","13","training","adjacent","CB","3","2","N.jpg","P.jpg","1","0","0","",""
"","feedback","","html-keyboard-response","96","375865","0.0-1.0-123.0-0.0","0","0","27397","","null","","","null","13","","","","","","","","","","","","","","","",""
"","time_out","","html-keyboard-response","97","377871","0.0-1.0-125.0-0.0","0","0","27397","","null","","","null","13","","","","","","","","","","","","","","","",""
"","ITI","","html-keyboard-response","98","378879","0.0-1.0-126.0","0","0","27397","","null","","","null","13","","","","","","","","","","","","","","","NaN",""
"","S1","","html-keyboard-response","99","379135","0.0-1.0-128.0","0","0","27397","","null","","","null","14","","","","","","","","","","","","","","","",""
"","ISI","","html-keyboard-response","100","381141","0.0-1.0-129.0","0","0","27397","","6","","","75","14","k","","","","","","","","","","","","","","",""
"","S2","","html-keyboard-response","101","381397","0.0-1.0-130.0","0","0","27397","","null","","","null","14","","NaN","","","","","","","","","","","","","",""
"","response","","html-keyboard-response","102","381417","0.0-1.0-131.0-0.0","0","0","27397","","17","","","75","14","","","1","14","training","adjacent","CD","3","4","N.jpg","R.jpg","1","1","1","",""
"","feedback","","html-keyboard-response","103","382422","0.0-1.0-132.0-0.0","0","0","27397","","null","","","null","14","","","","","","","","","","","","","","","",""
"","ITI","","html-keyboard-response","104","383430","0.0-1.0-135.0","0","0","27397","","null","","","null","14","","","","","","","","","","","","","","","NaN",""
"","S1","","html-keyboard-response","105","383684","0.0-1.0-137.0","0","0","27397","","null","","","null","15","","","","","","","","","","","","","","","",""
"","ISI","","html-keyboard-response","106","385692","0.0-1.0-138.0","0","0","27397","","173","","","75","15","k","","","","","","","","","","","","","","",""
"","S2","","html-keyboard-response","107","385948","0.0-1.0-139.0","0","0","27397","","null","","","null","15","","NaN","","","","","","","","","","","","","",""
"","response","","html-keyboard-response","108","385960","0.0-1.0-140.0-0.0","0","0","27397","","10","","","75","15","","","1","15","training","adjacent","EF","5","6","M.jpg","Q.jpg","1","1","1","",""
"","feedback","","html-keyboard-response","109","386967","0.0-1.0-141.0-0.0","0","0","27397","","null","","","null","15","","","","","","","","","","","","","","","",""
"","ITI","","html-keyboard-response","110","387975","0.0-1.0-144.0","0","0","27397","","null","","","null","15","","","","","","","","","","","","","","","NaN",""
"","S1","","html-keyboard-response","111","388231","0.0-1.0-146.0","0","0","27397","","null","","","null","16","","","","","","","","","","","","","","","",""
"","ISI","","html-keyboard-response","112","390237","0.0-1.0-147.0","0","0","27397","","63","","","75","16","k","","","","","","","","","","","","","","",""
"","S2","","html-keyboard-response","113","390496","0.0-1.0-148.0","0","0","27397","","null","","","null","16","","NaN","","","","","","","","","","","","","",""
"","response","","html-keyboard-response","114","390528","0.0-1.0-149.0-0.0","0","0","27397","","27","","","75","16","","","1","16","training","adjacent","AB","1","2","O.jpg","P.jpg","1","1","1","",""
"","feedback","","html-keyboard-response","115","391533","0.0-1.0-150.0-0.0","0","0","27397","","null","","","null","16","","","","","","","","","","","","","","","",""
"","ITI","","html-keyboard-response","116","392541","0.0-1.0-153.0","0","0","27397","","null","","","null","16","","","","","","","","","","","","","","","NaN",""
"","S1","","html-keyboard-response","117","392797","0.0-1.0-155.0","0","0","27397","","null","","","null","17","","","","","","","","","","","","","","","",""
"","ISI","","html-keyboard-response","118","394804","0.0-1.0-156.0","0","0","27397","","31","","","75","17","k","","","","","","","","","","","","","","",""
"","S2","","html-keyboard-response","119","395059","0.0-1.0-157.0","0","0","27397","","null","","","null","17","","NaN","","","","","","","","","","","","","",""
"","response","","html-keyboard-response","120","395084","0.0-1.0-158.0-0.0","0","0","27397","","22","","","75","17","","","1","17","training","adjacent","AB","1","2","O.jpg","P.jpg","1","1","1","",""
"","feedback","","html-keyboard-response","121","396088","0.0-1.0-159.0-0.0","0","0","27397","","null","","","null","17","","","","","","","","","","","","","","","",""
"","ITI","","html-keyboard-response","122","397091","0.0-1.0-162.0","0","0","27397","","null","","","null","17","","","","","","","","","","","","","","","NaN",""
"","S1","","html-keyboard-response","123","397347","0.0-1.0-164.0","0","0","27397","","null","","","null","18","","","","","","","","","","","","","","","",""
"","ISI","","html-keyboard-response","124","399353","0.0-1.0-165.0","0","0","27397","","146","","","75","18","k","","","","","","","","","","","","","","",""
"","S2","","html-keyboard-response","125","399609","0.0-1.0-166.0","0","0","27397","","null","","","null","18","","NaN","","","","","","","","","","","","","",""
"","response","","html-keyboard-response","126","399612","0.0-1.0-167.0-0.0","0","0","27397","","0","","","75","18","","","1","18","training","adjacent","FE","6","5","Q.jpg","M.jpg","1","0","0","",""
"","feedback","","html-keyboard-response","127","400617","0.0-1.0-168.0-0.0","0","0","27397","","null","","","null","18","","","","","","","","","","","","","","","",""
"","time_out","","html-keyboard-response","128","402622","0.0-1.0-170.0-0.0","0","0","27397","","null","","","null","18","","","","","","","","","","","","","","","",""
"","ITI","","html-keyboard-response","129","403625","0.0-1.0-171.0","0","0","27397","","null","","","null","18","","","","","","","","","","","","","","","NaN",""
"","S1","","html-keyboard-response","130","403881","0.0-1.0-173.0","0","0","27397","","null","","","null","19","","","","","","","","","","","","","","","",""
"","ISI","","html-keyboard-response","131","405887","0.0-1.0-174.0","0","0","27397","","1","","","68","19","d","","","","","","","","","","","","","","",""
"","S2","","html-keyboard-response","132","405975","0.0-1.0-175.0","0","0","27397","","84","","","75","19","","k","1","19","training","adjacent","GF","7","6","L.jpg","Q.jpg","1","0","0","",""
"","feedback","","html-keyboard-response","133","406980","0.0-1.0-177.0-0.0","0","0","27397","","null","","","null","19","","","","","","","","","","","","","","","",""
"","time_out","","html-keyboard-response","134","408985","0.0-1.0-179.0-0.0","0","0","27397","","null","","","null","19","","","","","","","","","","","","","","","",""
"","ITI","","html-keyboard-response","135","409989","0.0-1.0-180.0","0","0","27397","","174","","","75","19","","","","","","","","","","","","","","","k",""
"","S1","","html-keyboard-response","136","410244","0.0-1.0-182.0","0","0","27397","","null","","","null","20","","","","","","","","","","","","","","","",""
"","ISI","","html-keyboard-response","137","412250","0.0-1.0-183.0","0","0","27397","","1462","","","75","20","k","","","","","","","","","","","","","","",""
"","S2","","html-keyboard-response","138","412314","0.0-1.0-184.0","0","0","27397","","60","","","75","20","","k","1","20","training","adjacent","FE","6","5","Q.jpg","M.jpg","1","0","0","",""
"","feedback","","html-keyboard-response","139","413321","0.0-1.0-186.0-0.0","0","0","27397","","null","","","null","20","","","","","","","","","","","","","","","",""
"","time_out","","html-keyboard-response","140","415327","0.0-1.0-188.0-0.0","0","0","27397","","null","","","null","20","","","","","","","","","","","","","","","",""
"","ITI","","html-keyboard-response","141","416335","0.0-1.0-189.0","0","0","27397","","947","","","75","20","","","","","","","","","","","","","","","k",""
"","S1","","html-keyboard-response","142","416591","0.0-1.0-191.0","0","0","27397","","null","","","null","21","","","","","","","","","","","","","","","",""
"","ISI","","html-keyboard-response","143","418597","0.0-1.0-192.0","0","0","27397","","151","","","75","21","k","","","","","","","","","","","","","","",""
"","S2","","html-keyboard-response","144","418692","0.0-1.0-193.0","0","0","27397","","92","","","75","21","","k","1","21","training","adjacent","BA","2","1","P.jpg","O.jpg","1","0","0","",""
"","feedback","","html-keyboard-response","145","419700","0.0-1.0-195.0-0.0","0","0","27397","","null","","","null","21","","","","","","","","","","","","","","","",""
"","time_out","","html-keyboard-response","146","421706","0.0-1.0-197.0-0.0","0","0","27397","","null","","","null","21","","","","","","","","","","","","","","","",""
"","ITI","","html-keyboard-response","147","422714","0.0-1.0-198.0","0","0","27397","","805","","","68","21","","","","","","","","","","","","","","","d",""
"","S1","","html-keyboard-response","148","422970","0.0-1.0-200.0","0","0","27397","","null","","","null","22","","","","","","","","","","","","","","","",""
"","ISI","","html-keyboard-response","149","424975","0.0-1.0-201.0","0","0","27397","","84","","","68","22","d","","","","","","","","","","","","","","",""
"","S2","","html-keyboard-response","150","425183","0.0-1.0-202.0","0","0","27397","","203","","","75","22","","k","1","22","training","adjacent","DC","4","3","R.jpg","N.jpg","1","0","0","",""
"","feedback","","html-keyboard-response","151","426191","0.0-1.0-204.0-0.0","0","0","27397","","null","","","null","22","","","","","","","","","","","","","","","",""
"","time_out","","html-keyboard-response","152","428196","0.0-1.0-206.0-0.0","0","0","27397","","null","","","null","22","","","","","","","","","","","","","","","",""
"","ITI","","html-keyboard-response","153","429200","0.0-1.0-207.0","0","0","27397","","null","","","null","22","","","","","","","","","","","","","","","NaN",""
"","S1","","html-keyboard-response","154","429456","0.0-1.0-209.0","0","0","27397","","null","","","null","23","","","","","","","","","","","","","","","",""
"","ISI","","html-keyboard-response","155","431461","0.0-1.0-210.0","0","0","27397","","25","","","75","23","k","","","","","","","","","","","","","","",""
"","S2","","html-keyboard-response","156","431717","0.0-1.0-211.0","0","0","27397","","252","","","75","23","","k","1","23","training","adjacent","FG","6","7","Q.jpg","L.jpg","1","1","1","",""
"","feedback","","html-keyboard-response","157","432725","0.0-1.0-213.0-0.0","0","0","27397","","null","","","null","23","","","","","","","","","","","","","","","",""
"","ITI","","html-keyboard-response","158","433733","0.0-1.0-216.0","0","0","27397","","null","","","null","23","","","","","","","","","","","","","","","NaN",""
"","S1","","html-keyboard-response","159","433989","0.0-1.0-218.0","0","0","27397","","null","","","null","24","","","","","","","","","","","","","","","",""
"","ISI","","html-keyboard-response","160","435994","0.0-1.0-219.0","0","0","27397","","61","","","75","24","k","","","","","","","","","","","","","","",""
"","S2","","html-keyboard-response","161","436241","0.0-1.0-220.0","0","0","27397","","243","","","75","24","","k","1","24","training","adjacent","FG","6","7","Q.jpg","L.jpg","1","1","1","",""
"","feedback","","html-keyboard-response","162","437247","0.0-1.0-222.0-0.0","0","0","27397","","null","","","null","24","","","","","","","","","","","","","","","",""
"","ITI","","html-keyboard-response","163","438255","0.0-1.0-225.0","0","0","27397","","null","","","null","24","","","","","","","","","","","","","","","NaN",""
"","S1","","html-keyboard-response","164","438511","0.0-1.0-227.0","0","0","27397","","null","","","null","25","","","","","","","","","","","","","","","",""
"","ISI","","html-keyboard-response","165","440517","0.0-1.0-228.0","0","0","27397","","53","","","75","25","k","","","","","","","","","","","","","","",""
"","S2","","html-keyboard-response","166","440773","0.0-1.0-229.0","0","0","27397","","null","","","null","25","","NaN","","","","","","","","","","","","","",""
"","response","","html-keyboard-response","167","440785","0.0-1.0-230.0-0.0","0","0","27397","","9","","","75","25","","","1","25","training","adjacent","EF","5","6","M.jpg","Q.jpg","1","1","1","",""
"","feedback","","html-keyboard-response","168","441792","0.0-1.0-231.0-0.0","0","0","27397","","null","","","null","25","","","","","","","","","","","","","","","",""
"","ITI","","html-keyboard-response","169","442798","0.0-1.0-234.0","0","0","27397","","null","","","null","25","","","","","","","","","","","","","","","NaN",""
"","S1","","html-keyboard-response","170","443055","0.0-1.0-236.0","0","0","27397","","null","","","null","26","","","","","","","","","","","","","","","",""
"","ISI","","html-keyboard-response","171","445061","0.0-1.0-237.0","0","0","27397","","109","","","75","26","k","","","","","","","","","","","","","","",""
"","S2","","html-keyboard-response","172","445316","0.0-1.0-238.0","0","0","27397","","251","","","68","26","","d","1","26","training","adjacent","DC","4","3","R.jpg","N.jpg","0","0","1","",""
"","feedback","","html-keyboard-response","173","446325","0.0-1.0-240.0-0.0","0","0","27397","","null","","","null","26","","","","","","","","","","","","","","","",""
"","ITI","","html-keyboard-response","174","447333","0.0-1.0-243.0","0","0","27397","","null","","","null","26","","","","","","","","","","","","","","","NaN",""
"","S1","","html-keyboard-response","175","447589","0.0-1.0-245.0","0","0","27397","","null","","","null","27","","","","","","","","","","","","","","","",""
"","ISI","","html-keyboard-response","176","449594","0.0-1.0-246.0","0","0","27397","","66","","","75","27","k","","","","","","","","","","","","","","",""
"","S2","","html-keyboard-response","177","449850","0.0-1.0-247.0","0","0","27397","","null","","","null","27","","NaN","","","","","","","","","","","","","",""
"","response","","html-keyboard-response","178","449863","0.0-1.0-248.0-0.0","0","0","27397","","9","","","75","27","","","1","27","training","adjacent","BC","2","3","P.jpg","N.jpg","1","1","1","",""
"","feedback","","html-keyboard-response","179","450869","0.0-1.0-249.0-0.0","0","0","27397","","null","","","null","27","","","","","","","","","","","","","","","",""
"","ITI","","html-keyboard-response","180","451877","0.0-1.0-252.0","0","0","27397","","null","","","null","27","","","","","","","","","","","","","","","NaN",""
"","S1","","html-keyboard-response","181","452133","0.0-1.0-254.0","0","0","27397","","null","","","null","28","","","","","","","","","","","","","","","",""
"","ISI","","html-keyboard-response","182","454138","0.0-1.0-255.0","0","0","27397","","27","","","68","28","d","","","","","","","","","","","","","","",""
"","S2","","html-keyboard-response","183","454394","0.0-1.0-256.0","0","0","27397","","null","","","null","28","","NaN","","","","","","","","","","","","","",""
"","response","","html-keyboard-response","184","454398","0.0-1.0-257.0-0.0","0","0","27397","","1","","","75","28","","","1","28","training","adjacent","BC","2","3","P.jpg","N.jpg","1","1","1","",""
"","feedback","","html-keyboard-response","185","455402","0.0-1.0-258.0-0.0","0","0","27397","","null","","","null","28","","","","","","","","","","","","","","","",""
"","ITI","","html-keyboard-response","186","456410","0.0-1.0-261.0","0","0","27397","","null","","","null","28","","","","","","","","","","","","","","","NaN",""
"","S1","","html-keyboard-response","187","456666","0.0-1.0-263.0","0","0","27397","","null","","","null","29","","","","","","","","","","","","","","","",""
"","ISI","","html-keyboard-response","188","458672","0.0-1.0-264.0","0","0","27397","","77","","","68","29","d","","","","","","","","","","","","","","",""
"","S2","","html-keyboard-response","189","458928","0.0-1.0-265.0","0","0","27397","","null","","","null","29","","NaN","","","","","","","","","","","","","",""
"","response","","html-keyboard-response","190","458931","0.0-1.0-266.0-0.0","0","0","27397","","1","","","75","29","","","1","29","training","adjacent","FE","6","5","Q.jpg","M.jpg","1","0","0","",""
"","feedback","","html-keyboard-response","191","459936","0.0-1.0-267.0-0.0","0","0","27397","","null","","","null","29","","","","","","","","","","","","","","","",""
"","time_out","","html-keyboard-response","192","461941","0.0-1.0-269.0-0.0","0","0","27397","","null","","","null","29","","","","","","","","","","","","","","","",""
"","ITI","","html-keyboard-response","193","462949","0.0-1.0-270.0","0","0","27397","","null","","","null","29","","","","","","","","","","","","","","","NaN",""
"","S1","","html-keyboard-response","194","463205","0.0-1.0-272.0","0","0","27397","","null","","","null","30","","","","","","","","","","","","","","","",""
"","ISI","","html-keyboard-response","195","465212","0.0-1.0-273.0","0","0","27397","","82","","","68","30","d","","","","","","","","","","","","","","",""
"","S2","","html-keyboard-response","196","465446","0.0-1.0-274.0","0","0","27397","","230","","","68","30","","d","1","30","training","adjacent","CB","3","2","N.jpg","P.jpg","0","0","1","",""
"","feedback","","html-keyboard-response","197","466453","0.0-1.0-276.0-0.0","0","0","27397","","null","","","null","30","","","","","","","","","","","","","","","",""
"","ITI","","html-keyboard-response","198","467460","0.0-1.0-279.0","0","0","27397","","null","","","null","30","","","","","","","","","","","","","","","NaN",""
"","S1","","html-keyboard-response","199","467717","0.0-1.0-281.0","0","0","27397","","null","","","null","31","","","","","","","","","","","","","","","",""
"","ISI","","html-keyboard-response","200","469722","0.0-1.0-282.0","0","0","27397","","116","","","75","31","k","","","","","","","","","","","","","","",""
"","S2","","html-keyboard-response","201","469979","0.0-1.0-283.0","0","0","27397","","null","","","null","31","","NaN","","","","","","","","","","","","","",""
"","response","","html-keyboard-response","202","470043","0.0-1.0-284.0-0.0","0","0","27397","","61","","","75","31","","","1","31","training","adjacent","CD","3","4","N.jpg","R.jpg","1","1","1","",""
"","feedback","","html-keyboard-response","203","471051","0.0-1.0-285.0-0.0","0","0","27397","","null","","","null","31","","","","","","","","","","","","","","","",""
"","ITI","","html-keyboard-response","204","472058","0.0-1.0-288.0","0","0","27397","","457","","","75","31","","","","","","","","","","","","","","","k",""
"","S1","","html-keyboard-response","205","472316","0.0-1.0-290.0","0","0","27397","","null","","","null","32","","","","","","","","","","","","","","","",""
"","ISI","","html-keyboard-response","206","474320","0.0-1.0-291.0","0","0","27397","","5","","","75","32","k","","","","","","","","","","","","","","",""
"","S2","","html-keyboard-response","207","474576","0.0-1.0-292.0","0","0","27397","","null","","","null","32","","NaN","","","","","","","","","","","","","",""
"","response","","html-keyboard-response","208","474602","0.0-1.0-293.0-0.0","0","0","27397","","23","","","75","32","","","1","32","training","adjacent","BC","2","3","P.jpg","N.jpg","1","1","1","",""
"","feedback","","html-keyboard-response","209","475605","0.0-1.0-294.0-0.0","0","0","27397","","null","","","null","32","","","","","","","","","","","","","","","",""
"","ITI","","html-keyboard-response","210","476613","0.0-1.0-297.0","0","0","27397","","819","","","75","32","","","","","","","","","","","","","","","k",""
"","S1","","html-keyboard-response","211","476869","0.0-1.0-299.0","0","0","27397","","null","","","null","33","","","","","","","","","","","","","","","",""
"","ISI","","html-keyboard-response","212","478875","0.0-1.0-300.0","0","0","27397","","48","","","75","33","k","","","","","","","","","","","","","","",""
"","S2","","html-keyboard-response","213","478971","0.0-1.0-301.0","0","0","27397","","92","","","75","33","","k","1","33","training","adjacent","BA","2","1","P.jpg","O.jpg","1","0","0","",""
"","feedback","","html-keyboard-response","214","479979","0.0-1.0-303.0-0.0","0","0","27397","","null","","","null","33","","","","","","","","","","","","","","","",""
"","time_out","","html-keyboard-response","215","481983","0.0-1.0-305.0-0.0","0","0","27397","","null","","","null","33","","","","","","","","","","","","","","","",""
"","ITI","","html-keyboard-response","216","482987","0.0-1.0-306.0","0","0","27397","","535","","","68","33","","","","","","","","","","","","","","","d",""
"","S1","","html-keyboard-response","217","483242","0.0-1.0-308.0","0","0","27397","","null","","","null","34","","","","","","","","","","","","","","","",""
"","ISI","","html-keyboard-response","218","485248","0.0-1.0-309.0","0","0","27397","","56","","","68","34","d","","","","","","","","","","","","","","",""
"","S2","","html-keyboard-response","219","485271","0.0-1.0-310.0","0","0","27397","","19","","","75","34","","k","1","34","training","adjacent","CB","3","2","N.jpg","P.jpg","1","0","0","",""
"","feedback","","html-keyboard-response","220","486279","0.0-1.0-312.0-0.0","0","0","27397","","null","","","null","34","","","","","","","","","","","","","","","",""
"","time_out","","html-keyboard-response","221","488283","0.0-1.0-314.0-0.0","0","0","27397","","null","","","null","34","","","","","","","","","","","","","","","",""
"","ITI","","html-keyboard-response","222","489290","0.0-1.0-315.0","0","0","27397","","31","","","68","34","","","","","","","","","","","","","","","d",""
"","S1","","html-keyboard-response","223","489547","0.0-1.0-317.0","0","0","27397","","null","","","null","35","","","","","","","","","","","","","","","",""
"","ISI","","html-keyboard-response","224","491552","0.0-1.0-318.0","0","0","27397","","32","","","75","35","k","","","","","","","","","","","","","","",""
"","S2","","html-keyboard-response","225","491808","0.0-1.0-319.0","0","0","27397","","null","","","null","35","","NaN","","","","","","","","","","","","","",""
"","response","","html-keyboard-response","226","491872","0.0-1.0-320.0-0.0","0","0","27397","","61","","","75","35","","","1","35","training","adjacent","CB","3","2","N.jpg","P.jpg","1","0","0","",""
"","feedback","","html-keyboard-response","227","492880","0.0-1.0-321.0-0.0","0","0","27397","","null","","","null","35","","","","","","","","","","","","","","","",""
"","time_out","","html-keyboard-response","228","494885","0.0-1.0-323.0-0.0","0","0","27397","","null","","","null","35","","","","","","","","","","","","","","","",""
"","ITI","","html-keyboard-response","229","495893","0.0-1.0-324.0","0","0","27397","","383","","","68","35","","","","","","","","","","","","","","","d",""
"","S1","","html-keyboard-response","230","496149","0.0-1.0-326.0","0","0","27397","","null","","","null","36","","","","","","","","","","","","","","","",""
"","ISI","","html-keyboard-response","231","498155","0.0-1.0-327.0","0","0","27397","","null","","","null","36","NaN","","","","","","","","","","","","","","",""
"","S2","","html-keyboard-response","232","498410","0.0-1.0-328.0","0","0","27397","","null","","","null","36","","NaN","","","","","","","","","","","","","",""
"","response","","html-keyboard-response","233","498437","0.0-1.0-329.0-0.0","0","0","27397","","26","","","68","36","","","1","36","training","adjacent","BA","2","1","P.jpg","O.jpg","0","0","1","",""
"","feedback","","html-keyboard-response","234","499445","0.0-1.0-330.0-0.0","0","0","27397","","null","","","null","36","","","","","","","","","","","","","","","",""
"","ITI","","html-keyboard-response","235","500453","0.0-1.0-333.0","0","0","27397","","null","","","null","36","","","","","","","","","","","","","","","NaN",""
"","S1","","html-keyboard-response","236","500709","0.0-1.0-335.0","0","0","27397","","null","","","null","37","","","","","","","","","","","","","","","",""
"","ISI","","html-keyboard-response","237","502715","0.0-1.0-336.0","0","0","27397","","143","","","68","37","d","","","","","","","","","","","","","","",""
"","S2","","html-keyboard-response","238","502970","0.0-1.0-337.0","0","0","27397","","null","","","null","37","","NaN","","","","","","","","","","","","","",""
"","response","","html-keyboard-response","239","503148","0.0-1.0-338.0-0.0","0","0","27397","","176","","","75","37","","","1","37","training","adjacent","AB","1","2","O.jpg","P.jpg","1","1","1","",""
"","feedback","","html-keyboard-response","240","504155","0.0-1.0-339.0-0.0","0","0","27397","","null","","","null","37","","","","","","","","","","","","","","","",""
"","ITI","","html-keyboard-response","241","505161","0.0-1.0-342.0","0","0","27397","","null","","","null","37","","","","","","","","","","","","","","","NaN",""
"","S1","","html-keyboard-response","242","505420","0.0-1.0-344.0","0","0","27397","","null","","","null","38","","","","","","","","","","","","","","","",""
"","ISI","","html-keyboard-response","243","507424","0.0-1.0-345.0","0","0","27397","","167","","","75","38","k","","","","","","","","","","","","","","",""
"","S2","","html-keyboard-response","244","507680","0.0-1.0-346.0","0","0","27397","","null","","","null","38","","NaN","","","","","","","","","","","","","",""
"","response","","html-keyboard-response","245","507700","0.0-1.0-347.0-0.0","0","0","27397","","16","","","75","38","","","1","38","training","adjacent","CD","3","4","N.jpg","R.jpg","1","1","1","",""
"","feedback","","html-keyboard-response","246","508704","0.0-1.0-348.0-0.0","0","0","27397","","null","","","null","38","","","","","","","","","","","","","","","",""
"","ITI","","html-keyboard-response","247","509712","0.0-1.0-351.0","0","0","27397","","null","","","null","38","","","","","","","","","","","","","","","NaN",""
"","S1","","html-keyboard-response","248","509968","0.0-1.0-353.0","0","0","27397","","null","","","null","39","","","","","","","","","","","","","","","",""
"","ISI","","html-keyboard-response","249","511973","0.0-1.0-354.0","0","0","27397","","129","","","75","39","k","","","","","","","","","","","","","","",""
"","S2","","html-keyboard-response","250","512196","0.0-1.0-355.0","0","0","27397","","222","","","68","39","","d","1","39","training","adjacent","ED","5","4","M.jpg","R.jpg","0","0","1","",""
"","feedback","","html-keyboard-response","251","513200","0.0-1.0-357.0-0.0","0","0","27397","","null","","","null","39","","","","","","","","","","","","","","","",""
"","ITI","","html-keyboard-response","252","514208","0.0-1.0-360.0","0","0","27397","","608","","","75","39","","","","","","","","","","","","","","","k",""
"","S1","","html-keyboard-response","253","514464","0.0-1.0-362.0","0","0","27397","","null","","","null","40","","","","","","","","","","","","","","","",""
"","ISI","","html-keyboard-response","254","516469","0.0-1.0-363.0","0","0","27397","","83","","","75","40","k","","","","","","","","","","","","","","",""
"","S2","","html-keyboard-response","255","516720","0.0-1.0-364.0","0","0","27397","","246","","","68","40","","d","1","40","training","adjacent","BC","2","3","P.jpg","N.jpg","0","1","0","",""
"","feedback","","html-keyboard-response","256","517728","0.0-1.0-366.0-0.0","0","0","27397","","null","","","null","40","","","","","","","","","","","","","","","",""
"","time_out","","html-keyboard-response","257","519733","0.0-1.0-368.0-0.0","0","0","27397","","null","","","null","40","","","","","","","","","","","","","","","",""
"","ITI","","html-keyboard-response","258","520741","0.0-1.0-369.0","0","0","27397","","461","","","75","40","","","","","","","","","","","","","","","k",""
"","S1","","html-keyboard-response","259","520996","0.0-1.0-371.0","0","0","27397","","null","","","null","41","","","","","","","","","","","","","","","",""
"","ISI","","html-keyboard-response","260","523003","0.0-1.0-372.0","0","0","27397","","null","","","null","41","NaN","","","","","","","","","","","","","","",""
"","S2","","html-keyboard-response","261","523259","0.0-1.0-373.0","0","0","27397","","null","","","null","41","","NaN","","","","","","","","","","","","","",""
"","response","","html-keyboard-response","262","523345","0.0-1.0-374.0-0.0","0","0","27397","","82","","","68","41","","","1","41","training","adjacent","DC","4","3","R.jpg","N.jpg","0","0","1","",""
"","feedback","","html-keyboard-response","263","524352","0.0-1.0-375.0-0.0","0","0","27397","","null","","","null","41","","","","","","","","","","","","","","","",""
"","ITI","","html-keyboard-response","264","525359","0.0-1.0-378.0","0","0","27397","","null","","","null","41","","","","","","","","","","","","","","","NaN",""
"","S1","","html-keyboard-response","265","525615","0.0-1.0-380.0","0","0","27397","","null","","","null","42","","","","","","","","","","","","","","","",""
"","ISI","","html-keyboard-response","266","527621","0.0-1.0-381.0","0","0","27397","","246","","","68","42","d","","","","","","","","","","","","","","",""
"","S2","","html-keyboard-response","267","527837","0.0-1.0-382.0","0","0","27397","","212","","","68","42","","d","1","42","training","adjacent","FE","6","5","Q.jpg","M.jpg","0","0","1","",""
"","feedback","","html-keyboard-response","268","528843","0.0-1.0-384.0-0.0","0","0","27397","","null","","","null","42","","","","","","","","","","","","","","","",""
"","ITI","","html-keyboard-response","269","529851","0.0-1.0-387.0","0","0","27397","","null","","","null","42","","","","","","","","","","","","","","","NaN",""
"","S1","","html-keyboard-response","270","530107","0.0-1.0-389.0","0","0","27397","","null","","","null","43","","","","","","","","","","","","","","","",""
"","ISI","","html-keyboard-response","271","532112","0.0-1.0-390.0","0","0","27397","","158","","","68","43","d","","","","","","","","","","","","","","",""
"","S2","","html-keyboard-response","272","532368","0.0-1.0-391.0","0","0","27397","","null","","","null","43","","NaN","","","","","","","","","","","","","",""
"","response","","html-keyboard-response","273","532407","0.0-1.0-392.0-0.0","0","0","27397","","37","","","68","43","","","1","43","training","adjacent","FG","6","7","Q.jpg","L.jpg","0","1","0","",""
"","feedback","","html-keyboard-response","274","533414","0.0-1.0-393.0-0.0","0","0","27397","","null","","","null","43","","","","","","","","","","","","","","","",""
"","time_out","","html-keyboard-response","275","535419","0.0-1.0-395.0-0.0","0","0","27397","","null","","","null","43","","","","","","","","","","","","","","","",""
"","ITI","","html-keyboard-response","276","536427","0.0-1.0-396.0","0","0","27397","","null","","","null","43","","","","","","","","","","","","","","","NaN",""
"","S1","","html-keyboard-response","277","536683","0.0-1.0-398.0","0","0","27397","","null","","","null","44","","","","","","","","","","","","","","","",""
"","ISI","","html-keyboard-response","278","538688","0.0-1.0-399.0","0","0","27397","","101","","","75","44","k","","","","","","","","","","","","","","",""
"","S2","","html-keyboard-response","279","538932","0.0-1.0-400.0","0","0","27397","","240","","","75","44","","k","1","44","training","adjacent","DC","4","3","R.jpg","N.jpg","1","0","0","",""
"","feedback","","html-keyboard-response","280","539936","0.0-1.0-402.0-0.0","0","0","27397","","null","","","null","44","","","","","","","","","","","","","","","",""
"","time_out","","html-keyboard-response","281","541941","0.0-1.0-404.0-0.0","0","0","27397","","null","","","null","44","","","","","","","","","","","","","","","",""
"","ITI","","html-keyboard-response","282","542949","0.0-1.0-405.0","0","0","27397","","null","","","null","44","","","","","","","","","","","","","","","NaN",""
"","S1","","html-keyboard-response","283","543205","0.0-1.0-407.0","0","0","27397","","null","","","null","45","","","","","","","","","","","","","","","",""
"","ISI","","html-keyboard-response","284","545211","0.0-1.0-408.0","0","0","27397","","45","","","68","45","d","","","","","","","","","","","","","","",""
"","S2","","html-keyboard-response","285","545271","0.0-1.0-409.0","0","0","27397","","55","","","68","45","","d","1","45","training","adjacent","ED","5","4","M.jpg","R.jpg","0","0","1","",""
"","feedback","","html-keyboard-response","286","546278","0.0-1.0-411.0-0.0","0","0","27397","","null","","","null","45","","","","","","","","","","","","","","","",""
"","ITI","","html-keyboard-response","287","547285","0.0-1.0-414.0","0","0","27397","","null","","","null","45","","","","","","","","","","","","","","","NaN",""
"","S1","","html-keyboard-response","288","547542","0.0-1.0-416.0","0","0","27397","","null","","","null","46","","","","","","","","","","","","","","","",""
"","ISI","","html-keyboard-response","289","549548","0.0-1.0-417.0","0","0","27397","","134","","","75","46","k","","","","","","","","","","","","","","",""
"","S2","","html-keyboard-response","290","549803","0.0-1.0-418.0","0","0","27397","","null","","","null","46","","NaN","","","","","","","","","","","","","",""
"","response","","html-keyboard-response","291","549806","0.0-1.0-419.0-0.0","0","0","27397","","1","","","75","46","","","1","46","training","adjacent","GF","7","6","L.jpg","Q.jpg","1","0","0","",""
"","feedback","","html-keyboard-response","292","550811","0.0-1.0-420.0-0.0","0","0","27397","","null","","","null","46","","","","","","","","","","","","","","","",""
"","time_out","","html-keyboard-response","293","552816","0.0-1.0-422.0-0.0","0","0","27397","","null","","","null","46","","","","","","","","","","","","","","","",""
"","ITI","","html-keyboard-response","294","553823","0.0-1.0-423.0","0","0","27397","","null","","","null","46","","","","","","","","","","","","","","","NaN",""
"","S1","","html-keyboard-response","295","554079","0.0-1.0-425.0","0","0","27397","","null","","","null","47","","","","","","","","","","","","","","","",""
"","ISI","","html-keyboard-response","296","556086","0.0-1.0-426.0","0","0","27397","","12","","","68","47","d","","","","","","","","","","","","","","",""
"","S2","","html-keyboard-response","297","556316","0.0-1.0-427.0","0","0","27397","","225","","","68","47","","d","1","47","training","adjacent","BA","2","1","P.jpg","O.jpg","0","0","1","",""
"","feedback","","html-keyboard-response","298","557323","0.0-1.0-429.0-0.0","0","0","27397","","null","","","null","47","","","","","","","","","","","","","","","",""
"","ITI","","html-keyboard-response","299","558328","0.0-1.0-432.0","0","0","27397","","990","","","75","47","","","","","","","","","","","","","","","k",""
"","block_over","","html-keyboard-response","300","604770","0.0-1.0-433.0-0.0","0","0","27397","","46438","","","32","47","","","","","","","","","","","","","","","",""
"","S1","","html-keyboard-response","301","605025","0.0-1.0-434.0","0","0","27397","","null","","","null","48","","","","","","","","","","","","","","","",""
"","ISI","","html-keyboard-response","302","607030","0.0-1.0-435.0","0","0","27397","","1181","","","75","48","k","","","","","","","","","","","","","","",""
"","S2","","html-keyboard-response","303","607286","0.0-1.0-436.0","0","0","27397","","null","","","null","48","","NaN","","","","","","","","","","","","","",""
"","response","","html-keyboard-response","304","607344","0.0-1.0-437.0-0.0","0","0","27397","","54","","","75","48","","","2","48","training","adjacent","GF","7","6","L.jpg","Q.jpg","1","0","0","",""
"","feedback","","html-keyboard-response","305","608353","0.0-1.0-438.0-0.0","0","0","27397","","null","","","null","48","","","","","","","","","","","","","","","",""
"","time_out","","html-keyboard-response","306","610358","0.0-1.0-440.0-0.0","0","0","27397","","null","","","null","48","","","","","","","","","","","","","","","",""
"","ITI","","html-keyboard-response","307","611366","0.0-1.0-441.0","0","0","27397","","null","","","null","48","","","","","","","","","","","","","","","NaN",""
"","S1","","html-keyboard-response","308","611622","0.0-1.0-443.0","0","0","27397","","null","","","null","49","","","","","","","","","","","","","","","",""
"","ISI","","html-keyboard-response","309","613627","0.0-1.0-444.0","0","0","27397","","2","","","68","49","d","","","","","","","","","","","","","","",""
"","S2","","html-keyboard-response","310","613884","0.0-1.0-445.0","0","0","27397","","null","","","null","49","","NaN","","","","","","","","","","","","","",""
"","response","","html-keyboard-response","311","613933","0.0-1.0-446.0-0.0","0","0","27397","","46","","","68","49","","","2","49","training","adjacent","AB","1","2","O.jpg","P.jpg","0","1","0","",""
"","feedback","","html-keyboard-response","312","614939","0.0-1.0-447.0-0.0","0","0","27397","","null","","","null","49","","","","","","","","","","","","","","","",""
"","time_out","","html-keyboard-response","313","616945","0.0-1.0-449.0-0.0","0","0","27397","","null","","","null","49","","","","","","","","","","","","","","","",""
"","ITI","","html-keyboard-response","314","617953","0.0-1.0-450.0","0","0","27397","","null","","","null","49","","","","","","","","","","","","","","","NaN",""
"","S1","","html-keyboard-response","315","618209","0.0-1.0-452.0","0","0","27397","","null","","","null","50","","","","","","","","","","","","","","","",""
"","ISI","","html-keyboard-response","316","620214","0.0-1.0-453.0","0","0","27397","","38","","","75","50","k","","","","","","","","","","","","","","",""
"","S2","","html-keyboard-response","317","620419","0.0-1.0-454.0","0","0","27397","","202","","","75","50","","k","2","50","training","adjacent","AB","1","2","O.jpg","P.jpg","1","1","1","",""
"","feedback","","html-keyboard-response","318","621425","0.0-1.0-456.0-0.0","0","0","27397","","null","","","null","50","","","","","","","","","","","","","","","",""
"","ITI","","html-keyboard-response","319","622433","0.0-1.0-459.0","0","0","27397","","784","","","75","50","","","","","","","","","","","","","","","k",""
"","S1","","html-keyboard-response","320","622689","0.0-1.0-461.0","0","0","27397","","null","","","null","51","","","","","","","","","","","","","","","",""
"","ISI","","html-keyboard-response","321","624694","0.0-1.0-462.0","0","0","27397","","30","","","75","51","k","","","","","","","","","","","","","","",""
"","S2","","html-keyboard-response","322","624950","0.0-1.0-463.0","0","0","27397","","null","","","null","51","","NaN","","","","","","","","","","","","","",""
"","response","","html-keyboard-response","323","625114","0.0-1.0-464.0-0.0","0","0","27397","","161","","","75","51","","","2","51","training","adjacent","EF","5","6","M.jpg","Q.jpg","1","1","1","",""
"","feedback","","html-keyboard-response","324","626118","0.0-1.0-465.0-0.0","0","0","27397","","null","","","null","51","","","","","","","","","","","","","","","",""
"","ITI","","html-keyboard-response","325","627126","0.0-1.0-468.0","0","0","27397","","543","","","75","51","","","","","","","","","","","","","","","k",""
"","S1","","html-keyboard-response","326","627382","0.0-1.0-470.0","0","0","27397","","null","","","null","52","","","","","","","","","","","","","","","",""
"","ISI","","html-keyboard-response","327","629388","0.0-1.0-471.0","0","0","27397","","60","","","75","52","k","","","","","","","","","","","","","","",""
"","S2","","html-keyboard-response","328","629643","0.0-1.0-472.0","0","0","27397","","null","","","null","52","","NaN","","","","","","","","","","","","","",""
"","response","","html-keyboard-response","329","629676","0.0-1.0-473.0-0.0","0","0","27397","","29","","","68","52","","","2","52","training","adjacent","FG","6","7","Q.jpg","L.jpg","0","1","0","",""
"","feedback","","html-keyboard-response","330","630683","0.0-1.0-474.0-0.0","0","0","27397","","null","","","null","52","","","","","","","","","","","","","","","",""
"","time_out","","html-keyboard-response","331","632689","0.0-1.0-476.0-0.0","0","0","27397","","null","","","null","52","","","","","","","","","","","","","","","",""
"","ITI","","html-keyboard-response","332","633694","0.0-1.0-477.0","0","0","27397","","null","","","null","52","","","","","","","","","","","","","","","NaN",""
"","S1","","html-keyboard-response","333","633948","0.0-1.0-479.0","0","0","27397","","null","","","null","53","","","","","","","","","","","","","","","",""
"","ISI","","html-keyboard-response","334","635953","0.0-1.0-480.0","0","0","27397","","null","","","null","53","NaN","","","","","","","","","","","","","","",""
"","S2","","html-keyboard-response","335","636209","0.0-1.0-481.0","0","0","27397","","null","","","null","53","","NaN","","","","","","","","","","","","","",""
"","response","","html-keyboard-response","336","636212","0.0-1.0-482.0-0.0","0","0","27397","","0","","","75","53","","","2","53","training","adjacent","DE","4","5","R.jpg","M.jpg","1","1","1","",""
"","feedback","","html-keyboard-response","337","637217","0.0-1.0-483.0-0.0","0","0","27397","","null","","","null","53","","","","","","","","","","","","","","","",""
"","ITI","","html-keyboard-response","338","638225","0.0-1.0-486.0","0","0","27397","","null","","","null","53","","","","","","","","","","","","","","","NaN",""
"","S1","","html-keyboard-response","339","638482","0.0-1.0-488.0","0","0","27397","","null","","","null","54","","","","","","","","","","","","","","","",""
"","ISI","","html-keyboard-response","340","640486","0.0-1.0-489.0","0","0","27397","","0","","","75","54","k","","","","","","","","","","","","","","",""
"","S2","","html-keyboard-response","341","640743","0.0-1.0-490.0","0","0","27397","","null","","","null","54","","NaN","","","","","","","","","","","","","",""
"","response","","html-keyboard-response","342","640904","0.0-1.0-491.0-0.0","0","0","27397","","158","","","75","54","","","2","54","training","adjacent","FE","6","5","Q.jpg","M.jpg","1","0","0","",""
"","feedback","","html-keyboard-response","343","641910","0.0-1.0-492.0-0.0","0","0","27397","","null","","","null","54","","","","","","","","","","","","","","","",""
"","time_out","","html-keyboard-response","344","643916","0.0-1.0-494.0-0.0","0","0","27397","","null","","","null","54","","","","","","","","","","","","","","","",""
"","ITI","","html-keyboard-response","345","644923","0.0-1.0-495.0","0","0","27397","","null","","","null","54","","","","","","","","","","","","","","","NaN",""
"","S1","","html-keyboard-response","346","645180","0.0-1.0-497.0","0","0","27397","","null","","","null","55","","","","","","","","","","","","","","","",""
"","ISI","","html-keyboard-response","347","647185","0.0-1.0-498.0","0","0","27397","","53","","","75","55","k","","","","","","","","","","","","","","",""
"","S2","","html-keyboard-response","348","647441","0.0-1.0-499.0","0","0","27397","","null","","","null","55","","NaN","","","","","","","","","","","","","",""
"","response","","html-keyboard-response","349","647444","0.0-1.0-500.0-0.0","0","0","27397","","0","","","68","55","","","2","55","training","adjacent","EF","5","6","M.jpg","Q.jpg","0","1","0","",""
"","feedback","","html-keyboard-response","350","648449","0.0-1.0-501.0-0.0","0","0","27397","","null","","","null","55","","","","","","","","","","","","","","","",""
"","time_out","","html-keyboard-response","351","650454","0.0-1.0-503.0-0.0","0","0","27397","","null","","","null","55","","","","","","","","","","","","","","","",""
"","ITI","","html-keyboard-response","352","651462","0.0-1.0-504.0","0","0","27397","","null","","","null","55","","","","","","","","","","","","","","","NaN",""
"","S1","","html-keyboard-response","353","651718","0.0-1.0-506.0","0","0","27397","","null","","","null","56","","","","","","","","","","","","","","","",""
"","ISI","","html-keyboard-response","354","653724","0.0-1.0-507.0","0","0","27397","","null","","","null","56","NaN","","","","","","","","","","","","","","",""
"","S2","","html-keyboard-response","355","653952","0.0-1.0-508.0","0","0","27397","","224","","","75","56","","k","2","56","training","adjacent","ED","5","4","M.jpg","R.jpg","1","0","0","",""
"","feedback","","html-keyboard-response","356","654956","0.0-1.0-510.0-0.0","0","0","27397","","null","","","null","56","","","","","","","","","","","","","","","",""
"","time_out","","html-keyboard-response","357","656961","0.0-1.0-512.0-0.0","0","0","27397","","null","","","null","56","","","","","","","","","","","","","","","",""
"","ITI","","html-keyboard-response","358","657970","0.0-1.0-513.0","0","0","27397","","46","","","68","56","","","","","","","","","","","","","","","d",""
"","S1","","html-keyboard-response","359","658225","0.0-1.0-515.0","0","0","27397","","null","","","null","57","","","","","","","","","","","","","","","",""
"","ISI","","html-keyboard-response","360","660231","0.0-1.0-516.0","0","0","27397","","86","","","68","57","d","","","","","","","","","","","","","","",""
"","S2","","html-keyboard-response","361","660439","0.0-1.0-517.0","0","0","27397","","205","","","75","57","","k","2","57","training","adjacent","AB","1","2","O.jpg","P.jpg","1","1","1","",""
"","feedback","","html-keyboard-response","362","661446","0.0-1.0-519.0-0.0","0","0","27397","","null","","","null","57","","","","","","","","","","","","","","","",""
"","ITI","","html-keyboard-response","363","662454","0.0-1.0-522.0","0","0","27397","","null","","","null","57","","","","","","","","","","","","","","","NaN",""
"","S1","","html-keyboard-response","364","662710","0.0-1.0-524.0","0","0","27397","","null","","","null","58","","","","","","","","","","","","","","","",""
"","ISI","","html-keyboard-response","365","664715","0.0-1.0-525.0","0","0","27397","","33","","","68","58","d","","","","","","","","","","","","","","",""
"","S2","","html-keyboard-response","366","664954","0.0-1.0-526.0","0","0","27397","","235","","","75","58","","k","2","58","training","adjacent","BA","2","1","P.jpg","O.jpg","1","0","0","",""
"","feedback","","html-keyboard-response","367","665962","0.0-1.0-528.0-0.0","0","0","27397","","null","","","null","58","","","","","","","","","","","","","","","",""
"","time_out","","html-keyboard-response","368","667969","0.0-1.0-530.0-0.0","0","0","27397","","null","","","null","58","","","","","","","","","","","","","","","",""
"","ITI","","html-keyboard-response","369","668977","0.0-1.0-531.0","0","0","27397","","null","","","null","58","","","","","","","","","","","","","","","NaN",""
"","S1","","html-keyboard-response","370","669233","0.0-1.0-533.0","0","0","27397","","null","","","null","59","","","","","","","","","","","","","","","",""
"","ISI","","html-keyboard-response","371","671241","0.0-1.0-534.0","0","0","27397","","104","","","75","59","k","","","","","","","","","","","","","","",""
"","S2","","html-keyboard-response","372","671495","0.0-1.0-535.0","0","0","27397","","null","","","null","59","","NaN","","","","","","","","","","","","","",""
"","response","","html-keyboard-response","373","671552","0.0-1.0-536.0-0.0","0","0","27397","","54","","","68","59","","","2","59","training","adjacent","CB","3","2","N.jpg","P.jpg","0","0","1","",""
"","feedback","","html-keyboard-response","374","672559","0.0-1.0-537.0-0.0","0","0","27397","","null","","","null","59","","","","","","","","","","","","","","","",""
"","ITI","","html-keyboard-response","375","673564","0.0-1.0-540.0","0","0","27397","","null","","","null","59","","","","","","","","","","","","","","","NaN",""
"","S1","","html-keyboard-response","376","673820","0.0-1.0-542.0","0","0","27397","","null","","","null","60","","","","","","","","","","","","","","","",""
"","ISI","","html-keyboard-response","377","675824","0.0-1.0-543.0","0","0","27397","","154","","","75","60","k","","","","","","","","","","","","","","",""
"","S2","","html-keyboard-response","378","676081","0.0-1.0-544.0","0","0","27397","","null","","","null","60","","NaN","","","","","","","","","","","","","",""
"","response","","html-keyboard-response","379","676084","0.0-1.0-545.0-0.0","0","0","27397","","0","","","68","60","","","2","60","training","adjacent","FE","6","5","Q.jpg","M.jpg","0","0","1","",""
"","feedback","","html-keyboard-response","380","677089","0.0-1.0-546.0-0.0","0","0","27397","","null","","","null","60","","","","","","","","","","","","","","","",""
"","ITI","","html-keyboard-response","381","678097","0.0-1.0-549.0","0","0","27397","","692","","","75","60","","","","","","","","","","","","","","","k",""
"","S1","","html-keyboard-response","382","678353","0.0-1.0-551.0","0","0","27397","","null","","","null","61","","","","","","","","","","","","","","","",""
"","ISI","","html-keyboard-response","383","680359","0.0-1.0-552.0","0","0","27397","","184","","","75","61","k","","","","","","","","","","","","","","",""
"","S2","","html-keyboard-response","384","680614","0.0-1.0-553.0","0","0","27397","","null","","","null","61","","NaN","","","","","","","","","","","","","",""
"","response","","html-keyboard-response","385","680620","0.0-1.0-554.0-0.0","0","0","27397","","3","","","68","61","","","2","61","training","adjacent","DC","4","3","R.jpg","N.jpg","0","0","1","",""
"","feedback","","html-keyboard-response","386","681628","0.0-1.0-555.0-0.0","0","0","27397","","null","","","null","61","","","","","","","","","","","","","","","",""
"","ITI","","html-keyboard-response","387","682636","0.0-1.0-558.0","0","0","27397","","null","","","null","61","","","","","","","","","","","","","","","NaN",""
"","S1","","html-keyboard-response","388","682892","0.0-1.0-560.0","0","0","27397","","null","","","null","62","","","","","","","","","","","","","","","",""
"","ISI","","html-keyboard-response","389","684897","0.0-1.0-561.0","0","0","27397","","28","","","75","62","k","","","","","","","","","","","","","","",""
"","S2","","html-keyboard-response","390","685137","0.0-1.0-562.0","0","0","27397","","235","","","68","62","","d","2","62","training","adjacent","BA","2","1","P.jpg","O.jpg","0","0","1","",""
"","feedback","","html-keyboard-response","391","686145","0.0-1.0-564.0-0.0","0","0","27397","","null","","","null","62","","","","","","","","","","","","","","","",""
"","ITI","","html-keyboard-response","392","687153","0.0-1.0-567.0","0","0","27397","","null","","","null","62","","","","","","","","","","","","","","","NaN",""
"","S1","","html-keyboard-response","393","687409","0.0-1.0-569.0","0","0","27397","","null","","","null","63","","","","","","","","","","","","","","","",""
"","ISI","","html-keyboard-response","394","689415","0.0-1.0-570.0","0","0","27397","","50","","","75","63","k","","","","","","","","","","","","","","",""
"","S2","","html-keyboard-response","395","689671","0.0-1.0-571.0","0","0","27397","","252","","","68","63","","d","2","63","training","adjacent","CD","3","4","N.jpg","R.jpg","0","1","0","",""
"","feedback","","html-keyboard-response","396","690679","0.0-1.0-573.0-0.0","0","0","27397","","null","","","null","63","","","","","","","","","","","","","","","",""
"","time_out","","html-keyboard-response","397","692684","0.0-1.0-575.0-0.0","0","0","27397","","null","","","null","63","","","","","","","","","","","","","","","",""
"","ITI","","html-keyboard-response","398","693692","0.0-1.0-576.0","0","0","27397","","null","","","null","63","","","","","","","","","","","","","","","NaN",""
"","S1","","html-keyboard-response","399","693948","0.0-1.0-578.0","0","0","27397","","null","","","null","64","","","","","","","","","","","","","","","",""
"","ISI","","html-keyboard-response","400","695953","0.0-1.0-579.0","0","0","27397","","57","","","75","64","k","","","","","","","","","","","","","","",""
"","S2","","html-keyboard-response","401","696209","0.0-1.0-580.0","0","0","27397","","252","","","68","64","","d","2","64","training","adjacent","BA","2","1","P.jpg","O.jpg","0","0","1","",""
"","feedback","","html-keyboard-response","402","697217","0.0-1.0-582.0-0.0","0","0","27397","","null","","","null","64","","","","","","","","","","","","","","","",""
"","ITI","","html-keyboard-response","403","698226","0.0-1.0-585.0","0","0","27397","","null","","","null","64","","","","","","","","","","","","","","","NaN",""
"","S1","","html-keyboard-response","404","698481","0.0-1.0-587.0","0","0","27397","","null","","","null","65","","","","","","","","","","","","","","","",""
"","ISI","","html-keyboard-response","405","700487","0.0-1.0-588.0","0","0","27397","","68","","","75","65","k","","","","","","","","","","","","","","",""
"","S2","","html-keyboard-response","406","700743","0.0-1.0-589.0","0","0","27397","","null","","","null","65","","NaN","","","","","","","","","","","","","",""
"","response","","html-keyboard-response","407","700757","0.0-1.0-590.0-0.0","0","0","27397","","11","","","68","65","","","2","65","training","adjacent","BA","2","1","P.jpg","O.jpg","0","0","1","",""
"","feedback","","html-keyboard-response","408","701761","0.0-1.0-591.0-0.0","0","0","27397","","null","","","null","65","","","","","","","","","","","","","","","",""
"","ITI","","html-keyboard-response","409","702770","0.0-1.0-594.0","0","0","27397","","null","","","null","65","","","","","","","","","","","","","","","NaN",""
"","S1","","html-keyboard-response","410","703026","0.0-1.0-596.0","0","0","27397","","null","","","null","66","","","","","","","","","","","","","","","",""
"","ISI","","html-keyboard-response","411","705031","0.0-1.0-597.0","0","0","27397","","95","","","75","66","k","","","","","","","","","","","","","","",""
"","S2","","html-keyboard-response","412","705287","0.0-1.0-598.0","0","0","27397","","null","","","null","66","","NaN","","","","","","","","","","","","","",""
"","response","","html-keyboard-response","413","705357","0.0-1.0-599.0-0.0","0","0","27397","","67","","","68","66","","","2","66","training","adjacent","GF","7","6","L.jpg","Q.jpg","0","0","1","",""
"","feedback","","html-keyboard-response","414","706365","0.0-1.0-600.0-0.0","0","0","27397","","null","","","null","66","","","","","","","","","","","","","","","",""
"","ITI","","html-keyboard-response","415","707372","0.0-1.0-603.0","0","0","27397","","null","","","null","66","","","","","","","","","","","","","","","NaN",""
"","S1","","html-keyboard-response","416","707628","0.0-1.0-605.0","0","0","27397","","null","","","null","67","","","","","","","","","","","","","","","",""
"","ISI","","html-keyboard-response","417","709634","0.0-1.0-606.0","0","0","27397","","99","","","75","67","k","","","","","","","","","","","","","","",""
"","S2","","html-keyboard-response","418","709889","0.0-1.0-607.0","0","0","27397","","null","","","null","67","","NaN","","","","","","","","","","","","","",""
"","response","","html-keyboard-response","419","709892","0.0-1.0-608.0-0.0","0","0","27397","","0","","","68","67","","","2","67","training","adjacent","ED","5","4","M.jpg","R.jpg","0","0","1","",""
"","feedback","","html-keyboard-response","420","710897","0.0-1.0-609.0-0.0","0","0","27397","","null","","","null","67","","","","","","","","","","","","","","","",""
"","ITI","","html-keyboard-response","421","711906","0.0-1.0-612.0","0","0","27397","","null","","","null","67","","","","","","","","","","","","","","","NaN",""
"","S1","","html-keyboard-response","422","712161","0.0-1.0-614.0","0","0","27397","","null","","","null","68","","","","","","","","","","","","","","","",""
"","ISI","","html-keyboard-response","423","714167","0.0-1.0-615.0","0","0","27397","","137","","","75","68","k","","","","","","","","","","","","","","",""
"","S2","","html-keyboard-response","424","714423","0.0-1.0-616.0","0","0","27397","","null","","","null","68","","NaN","","","","","","","","","","","","","",""
"","response","","html-keyboard-response","425","714428","0.0-1.0-617.0-0.0","0","0","27397","","3","","","68","68","","","2","68","training","adjacent","FG","6","7","Q.jpg","L.jpg","0","1","0","",""
"","feedback","","html-keyboard-response","426","715436","0.0-1.0-618.0-0.0","0","0","27397","","null","","","null","68","","","","","","","","","","","","","","","",""
"","time_out","","html-keyboard-response","427","717442","0.0-1.0-620.0-0.0","0","0","27397","","null","","","null","68","","","","","","","","","","","","","","","",""
"","ITI","","html-keyboard-response","428","718450","0.0-1.0-621.0","0","0","27397","","null","","","null","68","","","","","","","","","","","","","","","NaN",""
"","S1","","html-keyboard-response","429","718706","0.0-1.0-623.0","0","0","27397","","null","","","null","69","","","","","","","","","","","","","","","",""
"","ISI","","html-keyboard-response","430","720711","0.0-1.0-624.0","0","0","27397","","5","","","75","69","k","","","","","","","","","","","","","","",""
"","S2","","html-keyboard-response","431","720714","0.0-1.0-625.0","0","0","27397","","0","","","68","69","","d","2","69","training","adjacent","CB","3","2","N.jpg","P.jpg","0","0","1","",""
"","feedback","","html-keyboard-response","432","721719","0.0-1.0-627.0-0.0","0","0","27397","","null","","","null","69","","","","","","","","","","","","","","","",""
"","ITI","","html-keyboard-response","433","722727","0.0-1.0-630.0","0","0","27397","","null","","","null","69","","","","","","","","","","","","","","","NaN",""
"","S1","","html-keyboard-response","434","722983","0.0-1.0-632.0","0","0","27397","","null","","","null","70","","","","","","","","","","","","","","","",""
"","ISI","","html-keyboard-response","435","724988","0.0-1.0-633.0","0","0","27397","","90","","","75","70","k","","","","","","","","","","","","","","",""
"","S2","","html-keyboard-response","436","725245","0.0-1.0-634.0","0","0","27397","","null","","","null","70","","NaN","","","","","","","","","","","","","",""
"","response","","html-keyboard-response","437","725248","0.0-1.0-635.0-0.0","0","0","27397","","0","","","75","70","","","2","70","training","adjacent","BC","2","3","P.jpg","N.jpg","1","1","1","",""
"","feedback","","html-keyboard-response","438","726252","0.0-1.0-636.0-0.0","0","0","27397","","null","","","null","70","","","","","","","","","","","","","","","",""
"","ITI","","html-keyboard-response","439","727260","0.0-1.0-639.0","0","0","27397","","null","","","null","70","","","","","","","","","","","","","","","NaN",""
"","S1","","html-keyboard-response","440","727517","0.0-1.0-641.0","0","0","27397","","null","","","null","71","","","","","","","","","","","","","","","",""
"","ISI","","html-keyboard-response","441","729522","0.0-1.0-642.0","0","0","27397","","31","","","75","71","k","","","","","","","","","","","","","","",""
"","S2","","html-keyboard-response","442","729650","0.0-1.0-643.0","0","0","27397","","125","","","75","71","","k","2","71","training","adjacent","DC","4","3","R.jpg","N.jpg","1","0","0","",""
"","feedback","","html-keyboard-response","443","730657","0.0-1.0-645.0-0.0","0","0","27397","","null","","","null","71","","","","","","","","","","","","","","","",""
"","time_out","","html-keyboard-response","444","732663","0.0-1.0-647.0-0.0","0","0","27397","","null","","","null","71","","","","","","","","","","","","","","","",""
"","ITI","","html-keyboard-response","445","733671","0.0-1.0-648.0","0","0","27397","","null","","","null","71","","","","","","","","","","","","","","","NaN",""
"","S1","","html-keyboard-response","446","733925","0.0-1.0-650.0","0","0","27397","","null","","","null","72","","","","","","","","","","","","","","","",""
"","ISI","","html-keyboard-response","447","735933","0.0-1.0-651.0","0","0","27397","","null","","","null","72","NaN","","","","","","","","","","","","","","",""
"","S2","","html-keyboard-response","448","736171","0.0-1.0-652.0","0","0","27397","","235","","","75","72","","k","2","72","training","adjacent","FE","6","5","Q.jpg","M.jpg","1","0","0","",""
"","feedback","","html-keyboard-response","449","737175","0.0-1.0-654.0-0.0","0","0","27397","","null","","","null","72","","","","","","","","","","","","","","","",""
"","time_out","","html-keyboard-response","450","739180","0.0-1.0-656.0-0.0","0","0","27397","","null","","","null","72","","","","","","","","","","","","","","","",""
"","ITI","","html-keyboard-response","451","740188","0.0-1.0-657.0","0","0","27397","","111","","","75","72","","","","","","","","","","","","","","","k",""
"","S1","","html-keyboard-response","452","740444","0.0-1.0-659.0","0","0","27397","","null","","","null","73","","","","","","","","","","","","","","","",""
"","ISI","","html-keyboard-response","453","742450","0.0-1.0-660.0","0","0","27397","","32","","","75","73","k","","","","","","","","","","","","","","",""
"","S2","","html-keyboard-response","454","742706","0.0-1.0-661.0","0","0","27397","","null","","","null","73","","NaN","","","","","","","","","","","","","",""
"","response","","html-keyboard-response","455","742725","0.0-1.0-662.0-0.0","0","0","27397","","15","","","75","73","","","2","73","training","adjacent","DE","4","5","R.jpg","M.jpg","1","1","1","",""
"","feedback","","html-keyboard-response","456","743733","0.0-1.0-663.0-0.0","0","0","27397","","null","","","null","73","","","","","","","","","","","","","","","",""
"","ITI","","html-keyboard-response","457","744737","0.0-1.0-666.0","0","0","27397","","null","","","null","73","","","","","","","","","","","","","","","NaN",""
"","S1","","html-keyboard-response","458","744994","0.0-1.0-668.0","0","0","27397","","null","","","null","74","","","","","","","","","","","","","","","",""
"","ISI","","html-keyboard-response","459","746999","0.0-1.0-669.0","0","0","27397","","63","","","75","74","k","","","","","","","","","","","","","","",""
"","S2","","html-keyboard-response","460","747255","0.0-1.0-670.0","0","0","27397","","null","","","null","74","","NaN","","","","","","","","","","","","","",""
"","response","","html-keyboard-response","461","747257","0.0-1.0-671.0-0.0","0","0","27397","","0","","","75","74","","","2","74","training","adjacent","BC","2","3","P.jpg","N.jpg","1","1","1","",""
"","feedback","","html-keyboard-response","462","748263","0.0-1.0-672.0-0.0","0","0","27397","","null","","","null","74","","","","","","","","","","","","","","","",""
"","ITI","","html-keyboard-response","463","749271","0.0-1.0-675.0","0","0","27397","","null","","","null","74","","","","","","","","","","","","","","","NaN",""
"","S1","","html-keyboard-response","464","749527","0.0-1.0-677.0","0","0","27397","","null","","","null","75","","","","","","","","","","","","","","","",""
"","ISI","","html-keyboard-response","465","751533","0.0-1.0-678.0","0","0","27397","","47","","","75","75","k","","","","","","","","","","","","","","",""
"","S2","","html-keyboard-response","466","751771","0.0-1.0-679.0","0","0","27397","","235","","","75","75","","k","2","75","training","adjacent","ED","5","4","M.jpg","R.jpg","1","0","0","",""
"","feedback","","html-keyboard-response","467","752778","0.0-1.0-681.0-0.0","0","0","27397","","null","","","null","75","","","","","","","","","","","","","","","",""
"","time_out","","html-keyboard-response","468","754786","0.0-1.0-683.0-0.0","0","0","27397","","null","","","null","75","","","","","","","","","","","","","","","",""
"","ITI","","html-keyboard-response","469","755789","0.0-1.0-684.0","0","0","27397","","null","","","null","75","","","","","","","","","","","","","","","NaN",""
"","S1","","html-keyboard-response","470","756044","0.0-1.0-686.0","0","0","27397","","null","","","null","76","","","","","","","","","","","","","","","",""
"","ISI","","html-keyboard-response","471","758050","0.0-1.0-687.0","0","0","27397","","58","","","75","76","k","","","","","","","","","","","","","","",""
"","S2","","html-keyboard-response","472","758305","0.0-1.0-688.0","0","0","27397","","null","","","null","76","","NaN","","","","","","","","","","","","","",""
"","response","","html-keyboard-response","473","758333","0.0-1.0-689.0-0.0","0","0","27397","","24","","","68","76","","","2","76","training","adjacent","FG","6","7","Q.jpg","L.jpg","0","1","0","",""
"","feedback","","html-keyboard-response","474","759341","0.0-1.0-690.0-0.0","0","0","27397","","null","","","null","76","","","","","","","","","","","","","","","",""
"","time_out","","html-keyboard-response","475","761346","0.0-1.0-692.0-0.0","0","0","27397","","null","","","null","76","","","","","","","","","","","","","","","",""
"","ITI","","html-keyboard-response","476","762350","0.0-1.0-693.0","0","0","27397","","994","","","75","76","","","","","","","","","","","","","","","k",""
"","S1","","html-keyboard-response","477","762607","0.0-1.0-695.0","0","0","27397","","null","","","null","77","","","","","","","","","","","","","","","",""
"","ISI","","html-keyboard-response","478","764613","0.0-1.0-696.0","0","0","27397","","127","","","75","77","k","","","","","","","","","","","","","","",""
"","S2","","html-keyboard-response","479","764819","0.0-1.0-697.0","0","0","27397","","202","","","68","77","","d","2","77","training","adjacent","DC","4","3","R.jpg","N.jpg","0","0","1","",""
"","feedback","","html-keyboard-response","480","765826","0.0-1.0-699.0-0.0","0","0","27397","","null","","","null","77","","","","","","","","","","","","","","","",""
"","ITI","","html-keyboard-response","481","766834","0.0-1.0-702.0","0","0","27397","","null","","","null","77","","","","","","","","","","","","","","","NaN",""
"","S1","","html-keyboard-response","482","767090","0.0-1.0-704.0","0","0","27397","","null","","","null","78","","","","","","","","","","","","","","","",""
"","ISI","","html-keyboard-response","483","769095","0.0-1.0-705.0","0","0","27397","","87","","","75","78","k","","","","","","","","","","","","","","",""
"","S2","","html-keyboard-response","484","769351","0.0-1.0-706.0","0","0","27397","","null","","","null","78","","NaN","","","","","","","","","","","","","",""
"","response","","html-keyboard-response","485","769408","0.0-1.0-707.0-0.0","0","0","27397","","53","","","75","78","","","2","78","training","adjacent","CB","3","2","N.jpg","P.jpg","1","0","0","",""
"","feedback","","html-keyboard-response","486","770413","0.0-1.0-708.0-0.0","0","0","27397","","null","","","null","78","","","","","","","","","","","","","","","",""
"","time_out","","html-keyboard-response","487","772418","0.0-1.0-710.0-0.0","0","0","27397","","null","","","null","78","","","","","","","","","","","","","","","",""
"","ITI","","html-keyboard-response","488","773421","0.0-1.0-711.0","0","0","27397","","null","","","null","78","","","","","","","","","","","","","","","NaN",""
"","S1","","html-keyboard-response","489","773677","0.0-1.0-713.0","0","0","27397","","null","","","null","79","","","","","","","","","","","","","","","",""
"","ISI","","html-keyboard-response","490","775682","0.0-1.0-714.0","0","0","27397","","30","","","68","79","d","","","","","","","","","","","","","","",""
"","S2","","html-keyboard-response","491","775938","0.0-1.0-715.0","0","0","27397","","null","","","null","79","","NaN","","","","","","","","","","","","","",""
"","response","","html-keyboard-response","492","775948","0.0-1.0-716.0-0.0","0","0","27397","","8","","","68","79","","","2","79","training","adjacent","EF","5","6","M.jpg","Q.jpg","0","1","0","",""
"","feedback","","html-keyboard-response","493","776956","0.0-1.0-717.0-0.0","0","0","27397","","null","","","null","79","","","","","","","","","","","","","","","",""
"","time_out","","html-keyboard-response","494","778962","0.0-1.0-719.0-0.0","0","0","27397","","null","","","null","79","","","","","","","","","","","","","","","",""
"","ITI","","html-keyboard-response","495","779969","0.0-1.0-720.0","0","0","27397","","null","","","null","79","","","","","","","","","","","","","","","NaN",""
"","S1","","html-keyboard-response","496","780226","0.0-1.0-722.0","0","0","27397","","null","","","null","80","","","","","","","","","","","","","","","",""
"","ISI","","html-keyboard-response","497","782231","0.0-1.0-723.0","0","0","27397","","50","","","75","80","k","","","","","","","","","","","","","","",""
"","S2","","html-keyboard-response","498","782487","0.0-1.0-724.0","0","0","27397","","null","","","null","80","","NaN","","","","","","","","","","","","","",""
"","response","","html-keyboard-response","499","782498","0.0-1.0-725.0-0.0","0","0","27397","","7","","","75","80","","","2","80","training","adjacent","GF","7","6","L.jpg","Q.jpg","1","0","0","",""
"","feedback","","html-keyboard-response","500","783503","0.0-1.0-726.0-0.0","0","0","27397","","null","","","null","80","","","","","","","","","","","","","","","",""
"","time_out","","html-keyboard-response","501","785511","0.0-1.0-728.0-0.0","0","0","27397","","null","","","null","80","","","","","","","","","","","","","","","",""
"","ITI","","html-keyboard-response","502","786519","0.0-1.0-729.0","0","0","27397","","null","","","null","80","","","","","","","","","","","","","","","NaN",""
"","S1","","html-keyboard-response","503","786776","0.0-1.0-731.0","0","0","27397","","null","","","null","81","","","","","","","","","","","","","","","",""
"","ISI","","html-keyboard-response","504","788780","0.0-1.0-732.0","0","0","27397","","45","","","75","81","k","","","","","","","","","","","","","","",""
"","S2","","html-keyboard-response","505","789037","0.0-1.0-733.0","0","0","27397","","null","","","null","81","","NaN","","","","","","","","","","","","","",""
"","response","","html-keyboard-response","506","789116","0.0-1.0-734.0-0.0","0","0","27397","","77","","","75","81","","","2","81","training","adjacent","BC","2","3","P.jpg","N.jpg","1","1","1","",""
"","feedback","","html-keyboard-response","507","790124","0.0-1.0-735.0-0.0","0","0","27397","","null","","","null","81","","","","","","","","","","","","","","","",""
"","ITI","","html-keyboard-response","508","791133","0.0-1.0-738.0","0","0","27397","","null","","","null","81","","","","","","","","","","","","","","","NaN",""
"","S1","","html-keyboard-response","509","791389","0.0-1.0-740.0","0","0","27397","","null","","","null","82","","","","","","","","","","","","","","","",""
"","ISI","","html-keyboard-response","510","793393","0.0-1.0-741.0","0","0","27397","","53","","","75","82","k","","","","","","","","","","","","","","",""
"","S2","","html-keyboard-response","511","793650","0.0-1.0-742.0","0","0","27397","","null","","","null","82","","NaN","","","","","","","","","","","","","",""
"","response","","html-keyboard-response","512","793656","0.0-1.0-743.0-0.0","0","0","27397","","4","","","75","82","","","2","82","training","adjacent","ED","5","4","M.jpg","R.jpg","1","0","0","",""
"","feedback","","html-keyboard-response","513","794663","0.0-1.0-744.0-0.0","0","0","27397","","null","","","null","82","","","","","","","","","","","","","","","",""
"","time_out","","html-keyboard-response","514","796668","0.0-1.0-746.0-0.0","0","0","27397","","null","","","null","82","","","","","","","","","","","","","","","",""
"","ITI","","html-keyboard-response","515","797672","0.0-1.0-747.0","0","0","27397","","null","","","null","82","","","","","","","","","","","","","","","NaN",""
"","S1","","html-keyboard-response","516","797927","0.0-1.0-749.0","0","0","27397","","null","","","null","83","","","","","","","","","","","","","","","",""
"","ISI","","html-keyboard-response","517","799933","0.0-1.0-750.0","0","0","27397","","null","","","null","83","NaN","","","","","","","","","","","","","","",""
"","S2","","html-keyboard-response","518","800189","0.0-1.0-751.0","0","0","27397","","null","","","null","83","","NaN","","","","","","","","","","","","","",""
"","response","","html-keyboard-response","519","800215","0.0-1.0-752.0-0.0","0","0","27397","","23","","","68","83","","","2","83","training","adjacent","DE","4","5","R.jpg","M.jpg","0","1","0","",""
"","feedback","","html-keyboard-response","520","801223","0.0-1.0-753.0-0.0","0","0","27397","","null","","","null","83","","","","","","","","","","","","","","","",""
"","time_out","","html-keyboard-response","521","803229","0.0-1.0-755.0-0.0","0","0","27397","","null","","","null","83","","","","","","","","","","","","","","","",""
"","ITI","","html-keyboard-response","522","804237","0.0-1.0-756.0","0","0","27397","","null","","","null","83","","","","","","","","","","","","","","","NaN",""
"","S1","","html-keyboard-response","523","804492","0.0-1.0-758.0","0","0","27397","","null","","","null","84","","","","","","","","","","","","","","","",""
"","ISI","","html-keyboard-response","524","806497","0.0-1.0-759.0","0","0","27397","","38","","","75","84","k","","","","","","","","","","","","","","",""
"","S2","","html-keyboard-response","525","806754","0.0-1.0-760.0","0","0","27397","","null","","","null","84","","NaN","","","","","","","","","","","","","",""
"","response","","html-keyboard-response","526","806780","0.0-1.0-761.0-0.0","0","0","27397","","22","","","75","84","","","2","84","training","adjacent","GF","7","6","L.jpg","Q.jpg","1","0","0","",""
"","feedback","","html-keyboard-response","527","807789","0.0-1.0-762.0-0.0","0","0","27397","","null","","","null","84","","","","","","","","","","","","","","","",""
"","time_out","","html-keyboard-response","528","809794","0.0-1.0-764.0-0.0","0","0","27397","","null","","","null","84","","","","","","","","","","","","","","","",""
"","ITI","","html-keyboard-response","529","810802","0.0-1.0-765.0","0","0","27397","","null","","","null","84","","","","","","","","","","","","","","","NaN",""
"","S1","","html-keyboard-response","530","811057","0.0-1.0-767.0","0","0","27397","","null","","","null","85","","","","","","","","","","","","","","","",""
"","ISI","","html-keyboard-response","531","813063","0.0-1.0-768.0","0","0","27397","","1914","","","68","85","d","","","","","","","","","","","","","","",""
"","S2","","html-keyboard-response","532","813320","0.0-1.0-769.0","0","0","27397","","null","","","null","85","","NaN","","","","","","","","","","","","","",""
"","response","","html-keyboard-response","533","813387","0.0-1.0-770.0-0.0","0","0","27397","","64","","","68","85","","","2","85","training","adjacent","CD","3","4","N.jpg","R.jpg","0","1","0","",""
"","feedback","","html-keyboard-response","534","814392","0.0-1.0-771.0-0.0","0","0","27397","","null","","","null","85","","","","","","","","","","","","","","","",""
"","time_out","","html-keyboard-response","535","816397","0.0-1.0-773.0-0.0","0","0","27397","","null","","","null","85","","","","","","","","","","","","","","","",""
"","ITI","","html-keyboard-response","536","817402","0.0-1.0-774.0","0","0","27397","","null","","","null","85","","","","","","","","","","","","","","","NaN",""
"","S1","","html-keyboard-response","537","817658","0.0-1.0-776.0","0","0","27397","","null","","","null","86","","","","","","","","","","","","","","","",""
"","ISI","","html-keyboard-response","538","819666","0.0-1.0-777.0","0","0","27397","","69","","","75","86","k","","","","","","","","","","","","","","",""
"","S2","","html-keyboard-response","539","819906","0.0-1.0-778.0","0","0","27397","","235","","","75","86","","k","2","86","training","adjacent","DE","4","5","R.jpg","M.jpg","1","1","1","",""
"","feedback","","html-keyboard-response","540","820914","0.0-1.0-780.0-0.0","0","0","27397","","null","","","null","86","","","","","","","","","","","","","","","",""
"","ITI","","html-keyboard-response","541","821922","0.0-1.0-783.0","0","0","27397","","null","","","null","86","","","","","","","","","","","","","","","NaN",""
"","S1","","html-keyboard-response","542","822178","0.0-1.0-785.0","0","0","27397","","null","","","null","87","","","","","","","","","","","","","","","",""
"","ISI","","html-keyboard-response","543","824184","0.0-1.0-786.0","0","0","27397","","30","","","75","87","k","","","","","","","","","","","","","","",""
"","S2","","html-keyboard-response","544","824428","0.0-1.0-787.0","0","0","27397","","240","","","75","87","","k","2","87","training","adjacent","FG","6","7","Q.jpg","L.jpg","1","1","1","",""
"","feedback","","html-keyboard-response","545","825437","0.0-1.0-789.0-0.0","0","0","27397","","null","","","null","87","","","","","","","","","","","","","","","",""
"","ITI","","html-keyboard-response","546","826445","0.0-1.0-792.0","0","0","27397","","null","","","null","87","","","","","","","","","","","","","","","NaN",""
"","S1","","html-keyboard-response","547","826701","0.0-1.0-794.0","0","0","27397","","null","","","null","88","","","","","","","","","","","","","","","",""
"","ISI","","html-keyboard-response","548","828706","0.0-1.0-795.0","0","0","27397","","67","","","75","88","k","","","","","","","","","","","","","","",""
"","S2","","html-keyboard-response","549","828962","0.0-1.0-796.0","0","0","27397","","null","","","null","88","","NaN","","","","","","","","","","","","","",""
"","response","","html-keyboard-response","550","829008","0.0-1.0-797.0-0.0","0","0","27397","","42","","","75","88","","","2","88","training","adjacent","CD","3","4","N.jpg","R.jpg","1","1","1","",""
"","feedback","","html-keyboard-response","551","830013","0.0-1.0-798.0-0.0","0","0","27397","","null","","","null","88","","","","","","","","","","","","","","","",""
"","ITI","","html-keyboard-response","552","831021","0.0-1.0-801.0","0","0","27397","","838","","","75","88","","","","","","","","","","","","","","","k",""
"","S1","","html-keyboard-response","553","831277","0.0-1.0-803.0","0","0","27397","","null","","","null","89","","","","","","","","","","","","","","","",""
"","ISI","","html-keyboard-response","554","833282","0.0-1.0-804.0","0","0","27397","","79","","","75","89","k","","","","","","","","","","","","","","",""
"","S2","","html-keyboard-response","555","833538","0.0-1.0-805.0","0","0","27397","","null","","","null","89","","NaN","","","","","","","","","","","","","",""
"","response","","html-keyboard-response","556","833564","0.0-1.0-806.0-0.0","0","0","27397","","22","","","75","89","","","2","89","training","adjacent","CD","3","4","N.jpg","R.jpg","1","1","1","",""
"","feedback","","html-keyboard-response","557","834573","0.0-1.0-807.0-0.0","0","0","27397","","null","","","null","89","","","","","","","","","","","","","","","",""
"","ITI","","html-keyboard-response","558","835581","0.0-1.0-810.0","0","0","27397","","641","","","75","89","","","","","","","","","","","","","","","k",""
"","S1","","html-keyboard-response","559","835837","0.0-1.0-812.0","0","0","27397","","null","","","null","90","","","","","","","","","","","","","","","",""
"","ISI","","html-keyboard-response","560","837843","0.0-1.0-813.0","0","0","27397","","52","","","75","90","k","","","","","","","","","","","","","","",""
"","S2","","html-keyboard-response","561","838097","0.0-1.0-814.0","0","0","27397","","null","","","null","90","","NaN","","","","","","","","","","","","","",""
"","response","","html-keyboard-response","562","838124","0.0-1.0-815.0-0.0","0","0","27397","","23","","","75","90","","","2","90","training","adjacent","DC","4","3","R.jpg","N.jpg","1","0","0","",""
"","feedback","","html-keyboard-response","563","839131","0.0-1.0-816.0-0.0","0","0","27397","","null","","","null","90","","","","","","","","","","","","","","","",""
"","time_out","","html-keyboard-response","564","841138","0.0-1.0-818.0-0.0","0","0","27397","","null","","","null","90","","","","","","","","","","","","","","","",""
"","ITI","","html-keyboard-response","565","842146","0.0-1.0-819.0","0","0","27397","","null","","","null","90","","","","","","","","","","","","","","","NaN",""
"","S1","","html-keyboard-response","566","842403","0.0-1.0-821.0","0","0","27397","","null","","","null","91","","","","","","","","","","","","","","","",""
"","ISI","","html-keyboard-response","567","844407","0.0-1.0-822.0","0","0","27397","","42","","","75","91","k","","","","","","","","","","","","","","",""
"","S2","","html-keyboard-response","568","844664","0.0-1.0-823.0","0","0","27397","","null","","","null","91","","NaN","","","","","","","","","","","","","",""
"","response","","html-keyboard-response","569","844678","0.0-1.0-824.0-0.0","0","0","27397","","11","","","68","91","","","2","91","training","adjacent","CB","3","2","N.jpg","P.jpg","0","0","1","",""
"","feedback","","html-keyboard-response","570","845682","0.0-1.0-825.0-0.0","0","0","27397","","null","","","null","91","","","","","","","","","","","","","","","",""
"","ITI","","html-keyboard-response","571","846690","0.0-1.0-828.0","0","0","27397","","null","","","null","91","","","","","","","","","","","","","","","NaN",""
"","S1","","html-keyboard-response","572","846946","0.0-1.0-830.0","0","0","27397","","null","","","null","92","","","","","","","","","","","","","","","",""
"","ISI","","html-keyboard-response","573","848952","0.0-1.0-831.0","0","0","27397","","87","","","75","92","k","","","","","","","","","","","","","","",""
"","S2","","html-keyboard-response","574","849207","0.0-1.0-832.0","0","0","27397","","null","","","null","92","","NaN","","","","","","","","","","","","","",""
"","response","","html-keyboard-response","575","849231","0.0-1.0-833.0-0.0","0","0","27397","","20","","","68","92","","","2","92","training","adjacent","EF","5","6","M.jpg","Q.jpg","0","1","0","",""
"","feedback","","html-keyboard-response","576","850237","0.0-1.0-834.0-0.0","0","0","27397","","null","","","null","92","","","","","","","","","","","","","","","",""
"","time_out","","html-keyboard-response","577","852242","0.0-1.0-836.0-0.0","0","0","27397","","null","","","null","92","","","","","","","","","","","","","","","",""
"","ITI","","html-keyboard-response","578","853250","0.0-1.0-837.0","0","0","27397","","null","","","null","92","","","","","","","","","","","","","","","NaN",""
"","S1","","html-keyboard-response","579","853506","0.0-1.0-839.0","0","0","27397","","null","","","null","93","","","","","","","","","","","","","","","",""
"","ISI","","html-keyboard-response","580","855512","0.0-1.0-840.0","0","0","27397","","24","","","75","93","k","","","","","","","","","","","","","","",""
