"success","ttype","start_time","trial_type","trial_index","time_elapsed","internal_node_id","warning","missed_checkup","PID","view_history","rt","responses","repeat_instructions","key_press","index","keypress_isi","keypress_S2","block","trial_num","phase","group_type","pair_type","S1_stim","S2_stim","S1_img","S2_img","S1_chosen","S1_higher","accuracy","keypress_iti","total_bonus_tally"
"true","full_screen","d04142023hr0251","fullscreen","0","19777","0.0-0.0","0","0","78216","","","","","","","","","","","","","","","","","","","","","",""
"","instructions","","instructions","1","60757","0.0-1.0-0.0-0.0","0","0","78216","[{""page_index"":0,""viewing_time"":3843},{""page_index"":1,""viewing_time"":28520},{""page_index"":2,""viewing_time"":7616},{""page_index"":3,""viewing_time"":999}]","40979","","","","","","","","","","","","","","","","","","","",""
"","comprehension_check","","survey-multi-choice","2","80356","0.0-1.0-0.0-1.0","0","0","78216","","19597","{""Q0"":""True"",""Q1"":""D"",""Q2"":""Once the second image appears and while the screen 'MAKE A CHOICE' is shown"",""Q3"":""Green mark"",""Q4"":""either D or K""}","0","","","","","","","","","","","","","","","","","",""
"","start_exp","","html-keyboard-response","3","81961","0.0-1.0-1.0","0","0","78216","","1602","","","32","","","","","","","","","","","","","","","","",""
"","S1","","html-keyboard-response","4","82214","0.0-1.0-2.0","0","0","78216","","null","","","null","0","","","","","","","","","","","","","","","",""
"","ISI","","html-keyboard-response","5","83215","0.0-1.0-3.0","0","0","78216","","null","","","null","0","NaN","","","","","","","","","","","","","","",""
"","S2","","html-keyboard-response","6","83469","0.0-1.0-4.0","0","0","78216","","null","","","null","0","","NaN","","","","","","","","","","","","","",""
"","response","","html-keyboard-response","7","83657","0.0-1.0-5.0-0.0","0","0","78216","","187","","","68","0","","","1","0","training","adjacent","BA","2","1","N.jpg","L.jpg","1","0","0","",""
"","feedback","","html-keyboard-response","8","84659","0.0-1.0-6.0-0.0","0","0","78216","","null","","","null","0","","","","","","","","","","","","","","","",""
"","time_out","","html-keyboard-response","9","86662","0.0-1.0-8.0-0.0","0","0","78216","","null","","","null","0","","","","","","","","","","","","","","","",""
"","ITI","","html-keyboard-response","10","87665","0.0-1.0-9.0","0","0","78216","","null","","","null","0","","","","","","","","","","","","","","","NaN",""
"","S1","","html-keyboard-response","11","87917","0.0-1.0-11.0","0","0","78216","","null","","","null","1","","","","","","","","","","","","","","","",""
"","ISI","","html-keyboard-response","12","88919","0.0-1.0-12.0","0","0","78216","","114","","","68","1","d","","","","","","","","","","","","","","",""
"","S2","","html-keyboard-response","13","88968","0.0-1.0-13.0","0","0","78216","","47","","","68","1","","d","1","1","training","adjacent","FG","6","7","M.jpg","Q.jpg","1","1","1","",""
"","feedback","","html-keyboard-response","14","89972","0.0-1.0-15.0-0.0","0","0","78216","","null","","","null","1","","","","","","","","","","","","","","","",""
"","ITI","","html-keyboard-response","15","90975","0.0-1.0-18.0","0","0","78216","","null","","","null","1","","","","","","","","","","","","","","","NaN",""
"","S1","","html-keyboard-response","16","91227","0.0-1.0-20.0","0","0","78216","","null","","","null","2","","","","","","","","","","","","","","","",""
"","ISI","","html-keyboard-response","17","92229","0.0-1.0-21.0","0","0","78216","","297","","","68","2","d","","","","","","","","","","","","","","",""
"","S2","","html-keyboard-response","18","92471","0.0-1.0-22.0","0","0","78216","","241","","","68","2","","d","1","2","training","adjacent","FG","6","7","M.jpg","Q.jpg","1","1","1","",""
"","feedback","","html-keyboard-response","19","93473","0.0-1.0-24.0-0.0","0","0","78216","","null","","","null","2","","","","","","","","","","","","","","","",""
"","ITI","","html-keyboard-response","20","94475","0.0-1.0-27.0","0","0","78216","","221","","","75","2","","","","","","","","","","","","","","","k",""
"","S1","","html-keyboard-response","21","94727","0.0-1.0-29.0","0","0","78216","","null","","","null","3","","","","","","","","","","","","","","","",""
"","ISI","","html-keyboard-response","22","95730","0.0-1.0-30.0","0","0","78216","","132","","","75","3","k","","","","","","","","","","","","","","",""
"","S2","","html-keyboard-response","23","95799","0.0-1.0-31.0","0","0","78216","","67","","","75","3","","k","1","3","training","adjacent","BC","2","3","N.jpg","P.jpg","0","1","0","",""
"","feedback","","html-keyboard-response","24","96802","0.0-1.0-33.0-0.0","0","0","78216","","null","","","null","3","","","","","","","","","","","","","","","",""
"","time_out","","html-keyboard-response","25","98804","0.0-1.0-35.0-0.0","0","0","78216","","null","","","null","3","","","","","","","","","","","","","","","",""
"","ITI","","html-keyboard-response","26","99806","0.0-1.0-36.0","0","0","78216","","132","","","75","3","","","","","","","","","","","","","","","k",""
"","S1","","html-keyboard-response","27","100058","0.0-1.0-38.0","0","0","78216","","null","","","null","4","","","","","","","","","","","","","","","",""
"","ISI","","html-keyboard-response","28","101060","0.0-1.0-39.0","0","0","78216","","56","","","75","4","k","","","","","","","","","","","","","","",""
"","S2","","html-keyboard-response","29","101066","0.0-1.0-40.0","0","0","78216","","5","","","75","4","","k","1","4","training","adjacent","EF","5","6","R.jpg","M.jpg","0","1","0","",""
"","feedback","","html-keyboard-response","30","102068","0.0-1.0-42.0-0.0","0","0","78216","","null","","","null","4","","","","","","","","","","","","","","","",""
"","time_out","","html-keyboard-response","31","104071","0.0-1.0-44.0-0.0","0","0","78216","","null","","","null","4","","","","","","","","","","","","","","","",""
"","ITI","","html-keyboard-response","32","105073","0.0-1.0-45.0","0","0","78216","","84","","","75","4","","","","","","","","","","","","","","","k",""
"","S1","","html-keyboard-response","33","105324","0.0-1.0-47.0","0","0","78216","","null","","","null","5","","","","","","","","","","","","","","","",""
"","ISI","","html-keyboard-response","34","106327","0.0-1.0-48.0","0","0","78216","","71","","","75","5","k","","","","","","","","","","","","","","",""
"","S2","","html-keyboard-response","35","106535","0.0-1.0-49.0","0","0","78216","","207","","","68","5","","d","1","5","training","adjacent","BC","2","3","N.jpg","P.jpg","1","1","1","",""
"","feedback","","html-keyboard-response","36","107537","0.0-1.0-51.0-0.0","0","0","78216","","null","","","null","5","","","","","","","","","","","","","","","",""
"","ITI","","html-keyboard-response","37","108551","0.0-1.0-54.0","0","0","78216","","null","","","null","5","","","","","","","","","","","","","","","NaN",""
"","S1","","html-keyboard-response","38","108803","0.0-1.0-56.0","0","0","78216","","null","","","null","6","","","","","","","","","","","","","","","",""
"","ISI","","html-keyboard-response","39","109806","0.0-1.0-57.0","0","0","78216","","null","","","null","6","NaN","","","","","","","","","","","","","","",""
"","S2","","html-keyboard-response","40","110059","0.0-1.0-58.0","0","0","78216","","null","","","null","6","","NaN","","","","","","","","","","","","","",""
"","response","","html-keyboard-response","41","110396","0.0-1.0-59.0-0.0","0","0","78216","","336","","","75","6","","","1","6","training","adjacent","CB","3","2","P.jpg","N.jpg","0","0","1","",""
"","feedback","","html-keyboard-response","42","111399","0.0-1.0-60.0-0.0","0","0","78216","","null","","","null","6","","","","","","","","","","","","","","","",""
"","ITI","","html-keyboard-response","43","112401","0.0-1.0-63.0","0","0","78216","","null","","","null","6","","","","","","","","","","","","","","","NaN",""
"","S1","","html-keyboard-response","44","112653","0.0-1.0-65.0","0","0","78216","","null","","","null","7","","","","","","","","","","","","","","","",""
"","ISI","","html-keyboard-response","45","113655","0.0-1.0-66.0","0","0","78216","","null","","","null","7","NaN","","","","","","","","","","","","","","",""
"","S2","","html-keyboard-response","46","113907","0.0-1.0-67.0","0","0","78216","","null","","","null","7","","NaN","","","","","","","","","","","","","",""
"","response","","html-keyboard-response","47","114283","0.0-1.0-68.0-0.0","0","0","78216","","375","","","75","7","","","1","7","training","adjacent","AB","1","2","L.jpg","N.jpg","0","1","0","",""
"","feedback","","html-keyboard-response","48","115286","0.0-1.0-69.0-0.0","0","0","78216","","null","","","null","7","","","","","","","","","","","","","","","",""
"","time_out","","html-keyboard-response","49","117288","0.0-1.0-71.0-0.0","0","0","78216","","null","","","null","7","","","","","","","","","","","","","","","",""
"","ITI","","html-keyboard-response","50","118290","0.0-1.0-72.0","0","0","78216","","null","","","null","7","","","","","","","","","","","","","","","NaN",""
"","S1","","html-keyboard-response","51","118543","0.0-1.0-74.0","0","0","78216","","null","","","null","8","","","","","","","","","","","","","","","",""
"","ISI","","html-keyboard-response","52","119545","0.0-1.0-75.0","0","0","78216","","null","","","null","8","NaN","","","","","","","","","","","","","","",""
"","S2","","html-keyboard-response","53","119715","0.0-1.0-76.0","0","0","78216","","168","","","75","8","","k","1","8","training","adjacent","EF","5","6","R.jpg","M.jpg","0","1","0","",""
"","feedback","","html-keyboard-response","54","120717","0.0-1.0-78.0-0.0","0","0","78216","","null","","","null","8","","","","","","","","","","","","","","","",""
"","time_out","","html-keyboard-response","55","122719","0.0-1.0-80.0-0.0","0","0","78216","","null","","","null","8","","","","","","","","","","","","","","","",""
"","ITI","","html-keyboard-response","56","123721","0.0-1.0-81.0","0","0","78216","","null","","","null","8","","","","","","","","","","","","","","","NaN",""
"","S1","","html-keyboard-response","57","123973","0.0-1.0-83.0","0","0","78216","","null","","","null","9","","","","","","","","","","","","","","","",""
"","ISI","","html-keyboard-response","58","124975","0.0-1.0-84.0","0","0","78216","","null","","","null","9","NaN","","","","","","","","","","","","","","",""
"","S2","","html-keyboard-response","59","125227","0.0-1.0-85.0","0","0","78216","","null","","","null","9","","NaN","","","","","","","","","","","","","",""
"","response","","html-keyboard-response","60","125257","0.0-1.0-86.0-0.0","0","0","78216","","28","","","75","9","","","1","9","training","adjacent","BC","2","3","N.jpg","P.jpg","0","1","0","",""
"","feedback","","html-keyboard-response","61","126259","0.0-1.0-87.0-0.0","0","0","78216","","null","","","null","9","","","","","","","","","","","","","","","",""
"","time_out","","html-keyboard-response","62","128261","0.0-1.0-89.0-0.0","0","0","78216","","null","","","null","9","","","","","","","","","","","","","","","",""
"","ITI","","html-keyboard-response","63","129264","0.0-1.0-90.0","0","0","78216","","null","","","null","9","","","","","","","","","","","","","","","NaN",""
"","S1","","html-keyboard-response","64","129517","0.0-1.0-92.0","0","0","78216","","null","","","null","10","","","","","","","","","","","","","","","",""
"","ISI","","html-keyboard-response","65","130519","0.0-1.0-93.0","0","0","78216","","null","","","null","10","NaN","","","","","","","","","","","","","","",""
"","S2","","html-keyboard-response","66","130771","0.0-1.0-94.0","0","0","78216","","null","","","null","10","","NaN","","","","","","","","","","","","","",""
"","response","","html-keyboard-response","67","131047","0.0-1.0-95.0-0.0","0","0","78216","","275","","","75","10","","","1","10","training","adjacent","GF","7","6","Q.jpg","M.jpg","0","0","1","",""
"","feedback","","html-keyboard-response","68","132049","0.0-1.0-96.0-0.0","0","0","78216","","null","","","null","10","","","","","","","","","","","","","","","",""
"","ITI","","html-keyboard-response","69","133051","0.0-1.0-99.0","0","0","78216","","null","","","null","10","","","","","","","","","","","","","","","NaN",""
"","S1","","html-keyboard-response","70","133304","0.0-1.0-101.0","0","0","78216","","null","","","null","11","","","","","","","","","","","","","","","",""
"","ISI","","html-keyboard-response","71","134307","0.0-1.0-102.0","0","0","78216","","null","","","null","11","NaN","","","","","","","","","","","","","","",""
"","S2","","html-keyboard-response","72","134559","0.0-1.0-103.0","0","0","78216","","null","","","null","11","","NaN","","","","","","","","","","","","","",""
"","response","","html-keyboard-response","73","135216","0.0-1.0-104.0-0.0","0","0","78216","","656","","","75","11","","","1","11","training","adjacent","FE","6","5","M.jpg","R.jpg","0","0","1","",""
"","feedback","","html-keyboard-response","74","136219","0.0-1.0-105.0-0.0","0","0","78216","","null","","","null","11","","","","","","","","","","","","","","","",""
"","ITI","","html-keyboard-response","75","137221","0.0-1.0-108.0","0","0","78216","","null","","","null","11","","","","","","","","","","","","","","","NaN",""
"","S1","","html-keyboard-response","76","137474","0.0-1.0-110.0","0","0","78216","","null","","","null","12","","","","","","","","","","","","","","","",""
"","ISI","","html-keyboard-response","77","138477","0.0-1.0-111.0","0","0","78216","","null","","","null","12","NaN","","","","","","","","","","","","","","",""
"","S2","","html-keyboard-response","78","138657","0.0-1.0-112.0","0","0","78216","","179","","","75","12","","k","1","12","training","adjacent","DC","4","3","O.jpg","P.jpg","0","0","1","",""
"","feedback","","html-keyboard-response","79","139660","0.0-1.0-114.0-0.0","0","0","78216","","null","","","null","12","","","","","","","","","","","","","","","",""
"","ITI","","html-keyboard-response","80","140663","0.0-1.0-117.0","0","0","78216","","null","","","null","12","","","","","","","","","","","","","","","NaN",""
"","S1","","html-keyboard-response","81","140915","0.0-1.0-119.0","0","0","78216","","null","","","null","13","","","","","","","","","","","","","","","",""
"","ISI","","html-keyboard-response","82","141918","0.0-1.0-120.0","0","0","78216","","null","","","null","13","NaN","","","","","","","","","","","","","","",""
"","S2","","html-keyboard-response","83","142170","0.0-1.0-121.0","0","0","78216","","null","","","null","13","","NaN","","","","","","","","","","","","","",""
"","response","","html-keyboard-response","84","142264","0.0-1.0-122.0-0.0","0","0","78216","","93","","","75","13","","","1","13","training","adjacent","CB","3","2","P.jpg","N.jpg","0","0","1","",""
"","feedback","","html-keyboard-response","85","143267","0.0-1.0-123.0-0.0","0","0","78216","","null","","","null","13","","","","","","","","","","","","","","","",""
"","ITI","","html-keyboard-response","86","144269","0.0-1.0-126.0","0","0","78216","","null","","","null","13","","","","","","","","","","","","","","","NaN",""
"","S1","","html-keyboard-response","87","144522","0.0-1.0-128.0","0","0","78216","","null","","","null","14","","","","","","","","","","","","","","","",""
"","ISI","","html-keyboard-response","88","145527","0.0-1.0-129.0","0","0","78216","","148","","","75","14","k","","","","","","","","","","","","","","",""
"","S2","","html-keyboard-response","89","145619","0.0-1.0-130.0","0","0","78216","","90","","","75","14","","k","1","14","training","adjacent","GF","7","6","Q.jpg","M.jpg","0","0","1","",""
"","feedback","","html-keyboard-response","90","146621","0.0-1.0-132.0-0.0","0","0","78216","","null","","","null","14","","","","","","","","","","","","","","","",""
"","ITI","","html-keyboard-response","91","147624","0.0-1.0-135.0","0","0","78216","","null","","","null","14","","","","","","","","","","","","","","","NaN",""
"","S1","","html-keyboard-response","92","147876","0.0-1.0-137.0","0","0","78216","","null","","","null","15","","","","","","","","","","","","","","","",""
"","ISI","","html-keyboard-response","93","148878","0.0-1.0-138.0","0","0","78216","","null","","","null","15","NaN","","","","","","","","","","","","","","",""
"","S2","","html-keyboard-response","94","149090","0.0-1.0-139.0","0","0","78216","","212","","","75","15","","k","1","15","training","adjacent","CD","3","4","P.jpg","O.jpg","0","1","0","",""
"","feedback","","html-keyboard-response","95","150094","0.0-1.0-141.0-0.0","0","0","78216","","null","","","null","15","","","","","","","","","","","","","","","",""
"","time_out","","html-keyboard-response","96","152097","0.0-1.0-143.0-0.0","0","0","78216","","null","","","null","15","","","","","","","","","","","","","","","",""
"","ITI","","html-keyboard-response","97","153099","0.0-1.0-144.0","0","0","78216","","143","","","75","15","","","","","","","","","","","","","","","k",""
"","S1","","html-keyboard-response","98","153351","0.0-1.0-146.0","0","0","78216","","null","","","null","16","","","","","","","","","","","","","","","",""
"","ISI","","html-keyboard-response","99","154353","0.0-1.0-147.0","0","0","78216","","352","","","75","16","k","","","","","","","","","","","","","","",""
"","S2","","html-keyboard-response","100","154458","0.0-1.0-148.0","0","0","78216","","104","","","75","16","","k","1","16","training","adjacent","CD","3","4","P.jpg","O.jpg","0","1","0","",""
"","feedback","","html-keyboard-response","101","155461","0.0-1.0-150.0-0.0","0","0","78216","","null","","","null","16","","","","","","","","","","","","","","","",""
"","time_out","","html-keyboard-response","102","157464","0.0-1.0-152.0-0.0","0","0","78216","","null","","","null","16","","","","","","","","","","","","","","","",""
"","ITI","","html-keyboard-response","103","158467","0.0-1.0-153.0","0","0","78216","","null","","","null","16","","","","","","","","","","","","","","","NaN",""
"","S1","","html-keyboard-response","104","158719","0.0-1.0-155.0","0","0","78216","","null","","","null","17","","","","","","","","","","","","","","","",""
"","ISI","","html-keyboard-response","105","159721","0.0-1.0-156.0","0","0","78216","","null","","","null","17","NaN","","","","","","","","","","","","","","",""
"","S2","","html-keyboard-response","106","159986","0.0-1.0-157.0","0","0","78216","","null","","","null","17","","NaN","","","","","","","","","","","","","",""
"","response","","html-keyboard-response","107","160334","0.0-1.0-158.0-0.0","0","0","78216","","347","","","75","17","","","1","17","training","adjacent","DC","4","3","O.jpg","P.jpg","0","0","1","",""
"","feedback","","html-keyboard-response","108","161337","0.0-1.0-159.0-0.0","0","0","78216","","null","","","null","17","","","","","","","","","","","","","","","",""
"","ITI","","html-keyboard-response","109","162339","0.0-1.0-162.0","0","0","78216","","null","","","null","17","","","","","","","","","","","","","","","NaN",""
"","S1","","html-keyboard-response","110","162599","0.0-1.0-164.0","0","0","78216","","null","","","null","18","","","","","","","","","","","","","","","",""
"","ISI","","html-keyboard-response","111","163601","0.0-1.0-165.0","0","0","78216","","null","","","null","18","NaN","","","","","","","","","","","","","","",""
"","S2","","html-keyboard-response","112","163866","0.0-1.0-166.0","0","0","78216","","null","","","null","18","","NaN","","","","","","","","","","","","","",""
"","response","","html-keyboard-response","113","164271","0.0-1.0-167.0-0.0","0","0","78216","","404","","","75","18","","","1","18","training","adjacent","DE","4","5","O.jpg","R.jpg","0","1","0","",""
"","feedback","","html-keyboard-response","114","165274","0.0-1.0-168.0-0.0","0","0","78216","","null","","","null","18","","","","","","","","","","","","","","","",""
"","time_out","","html-keyboard-response","115","167287","0.0-1.0-170.0-0.0","0","0","78216","","null","","","null","18","","","","","","","","","","","","","","","",""
"","ITI","","html-keyboard-response","116","168288","0.0-1.0-171.0","0","0","78216","","null","","","null","18","","","","","","","","","","","","","","","NaN",""
"","S1","","html-keyboard-response","117","168541","0.0-1.0-173.0","0","0","78216","","null","","","null","19","","","","","","","","","","","","","","","",""
"","ISI","","html-keyboard-response","118","169543","0.0-1.0-174.0","0","0","78216","","350","","","75","19","k","","","","","","","","","","","","","","",""
"","S2","","html-keyboard-response","119","169697","0.0-1.0-175.0","0","0","78216","","153","","","75","19","","k","1","19","training","adjacent","DC","4","3","O.jpg","P.jpg","0","0","1","",""
"","feedback","","html-keyboard-response","120","170699","0.0-1.0-177.0-0.0","0","0","78216","","null","","","null","19","","","","","","","","","","","","","","","",""
"","ITI","","html-keyboard-response","121","171702","0.0-1.0-180.0","0","0","78216","","null","","","null","19","","","","","","","","","","","","","","","NaN",""
"","S1","","html-keyboard-response","122","171955","0.0-1.0-182.0","0","0","78216","","null","","","null","20","","","","","","","","","","","","","","","",""
"","ISI","","html-keyboard-response","123","172957","0.0-1.0-183.0","0","0","78216","","null","","","null","20","NaN","","","","","","","","","","","","","","",""
"","S2","","html-keyboard-response","124","173209","0.0-1.0-184.0","0","0","78216","","null","","","null","20","","NaN","","","","","","","","","","","","","",""
"","response","","html-keyboard-response","125","173570","0.0-1.0-185.0-0.0","0","0","78216","","360","","","75","20","","","1","20","training","adjacent","FG","6","7","M.jpg","Q.jpg","0","1","0","",""
"","feedback","","html-keyboard-response","126","174572","0.0-1.0-186.0-0.0","0","0","78216","","null","","","null","20","","","","","","","","","","","","","","","",""
"","time_out","","html-keyboard-response","127","176573","0.0-1.0-188.0-0.0","0","0","78216","","null","","","null","20","","","","","","","","","","","","","","","",""
"","ITI","","html-keyboard-response","128","177575","0.0-1.0-189.0","0","0","78216","","709","","","68","20","","","","","","","","","","","","","","","d",""
"","S1","","html-keyboard-response","129","177828","0.0-1.0-191.0","0","0","78216","","null","","","null","21","","","","","","","","","","","","","","","",""
"","ISI","","html-keyboard-response","130","178831","0.0-1.0-192.0","0","0","78216","","126","","","68","21","d","","","","","","","","","","","","","","",""
"","S2","","html-keyboard-response","131","179018","0.0-1.0-193.0","0","0","78216","","186","","","68","21","","d","1","21","training","adjacent","FE","6","5","M.jpg","R.jpg","1","0","0","",""
"","feedback","","html-keyboard-response","132","180020","0.0-1.0-195.0-0.0","0","0","78216","","null","","","null","21","","","","","","","","","","","","","","","",""
"","time_out","","html-keyboard-response","133","182022","0.0-1.0-197.0-0.0","0","0","78216","","null","","","null","21","","","","","","","","","","","","","","","",""
"","ITI","","html-keyboard-response","134","183024","0.0-1.0-198.0","0","0","78216","","335","","","75","21","","","","","","","","","","","","","","","k",""
"","S1","","html-keyboard-response","135","183276","0.0-1.0-200.0","0","0","78216","","null","","","null","22","","","","","","","","","","","","","","","",""
"","ISI","","html-keyboard-response","136","184278","0.0-1.0-201.0","0","0","78216","","98","","","75","22","k","","","","","","","","","","","","","","",""
"","S2","","html-keyboard-response","137","184307","0.0-1.0-202.0","0","0","78216","","28","","","75","22","","k","1","22","training","adjacent","GF","7","6","Q.jpg","M.jpg","0","0","1","",""
"","feedback","","html-keyboard-response","138","185309","0.0-1.0-204.0-0.0","0","0","78216","","null","","","null","22","","","","","","","","","","","","","","","",""
"","ITI","","html-keyboard-response","139","186311","0.0-1.0-207.0","0","0","78216","","149","","","75","22","","","","","","","","","","","","","","","k",""
"","S1","","html-keyboard-response","140","186562","0.0-1.0-209.0","0","0","78216","","null","","","null","23","","","","","","","","","","","","","","","",""
"","ISI","","html-keyboard-response","141","187564","0.0-1.0-210.0","0","0","78216","","120","","","75","23","k","","","","","","","","","","","","","","",""
"","S2","","html-keyboard-response","142","187648","0.0-1.0-211.0","0","0","78216","","82","","","75","23","","k","1","23","training","adjacent","CD","3","4","P.jpg","O.jpg","0","1","0","",""
"","feedback","","html-keyboard-response","143","188659","0.0-1.0-213.0-0.0","0","0","78216","","null","","","null","23","","","","","","","","","","","","","","","",""
"","time_out","","html-keyboard-response","144","190661","0.0-1.0-215.0-0.0","0","0","78216","","null","","","null","23","","","","","","","","","","","","","","","",""
"","ITI","","html-keyboard-response","145","191663","0.0-1.0-216.0","0","0","78216","","790","","","68","23","","","","","","","","","","","","","","","d",""
"","S1","","html-keyboard-response","146","191916","0.0-1.0-218.0","0","0","78216","","null","","","null","24","","","","","","","","","","","","","","","",""
"","ISI","","html-keyboard-response","147","192919","0.0-1.0-219.0","0","0","78216","","136","","","75","24","k","","","","","","","","","","","","","","",""
"","S2","","html-keyboard-response","148","193136","0.0-1.0-220.0","0","0","78216","","216","","","68","24","","d","1","24","training","adjacent","FE","6","5","M.jpg","R.jpg","1","0","0","",""
"","feedback","","html-keyboard-response","149","194139","0.0-1.0-222.0-0.0","0","0","78216","","null","","","null","24","","","","","","","","","","","","","","","",""
"","time_out","","html-keyboard-response","150","196141","0.0-1.0-224.0-0.0","0","0","78216","","null","","","null","24","","","","","","","","","","","","","","","",""
"","ITI","","html-keyboard-response","151","197144","0.0-1.0-225.0","0","0","78216","","35","","","68","24","","","","","","","","","","","","","","","d",""
"","S1","","html-keyboard-response","152","197396","0.0-1.0-227.0","0","0","78216","","null","","","null","25","","","","","","","","","","","","","","","",""
"","ISI","","html-keyboard-response","153","198398","0.0-1.0-228.0","0","0","78216","","163","","","68","25","d","","","","","","","","","","","","","","",""
"","S2","","html-keyboard-response","154","198554","0.0-1.0-229.0","0","0","78216","","155","","","75","25","","k","1","25","training","adjacent","EF","5","6","R.jpg","M.jpg","0","1","0","",""
"","feedback","","html-keyboard-response","155","199557","0.0-1.0-231.0-0.0","0","0","78216","","null","","","null","25","","","","","","","","","","","","","","","",""
"","time_out","","html-keyboard-response","156","201559","0.0-1.0-233.0-0.0","0","0","78216","","null","","","null","25","","","","","","","","","","","","","","","",""
"","ITI","","html-keyboard-response","157","202561","0.0-1.0-234.0","0","0","78216","","59","","","75","25","","","","","","","","","","","","","","","k",""
"","S1","","html-keyboard-response","158","202814","0.0-1.0-236.0","0","0","78216","","null","","","null","26","","","","","","","","","","","","","","","",""
"","ISI","","html-keyboard-response","159","203815","0.0-1.0-237.0","0","0","78216","","116","","","75","26","k","","","","","","","","","","","","","","",""
"","S2","","html-keyboard-response","160","203879","0.0-1.0-238.0","0","0","78216","","62","","","75","26","","k","1","26","training","adjacent","DE","4","5","O.jpg","R.jpg","0","1","0","",""
"","feedback","","html-keyboard-response","161","204881","0.0-1.0-240.0-0.0","0","0","78216","","null","","","null","26","","","","","","","","","","","","","","","",""
"","time_out","","html-keyboard-response","162","206883","0.0-1.0-242.0-0.0","0","0","78216","","null","","","null","26","","","","","","","","","","","","","","","",""
"","ITI","","html-keyboard-response","163","207884","0.0-1.0-243.0","0","0","78216","","90","","","75","26","","","","","","","","","","","","","","","k",""
"","S1","","html-keyboard-response","164","208137","0.0-1.0-245.0","0","0","78216","","null","","","null","27","","","","","","","","","","","","","","","",""
"","ISI","","html-keyboard-response","165","209140","0.0-1.0-246.0","0","0","78216","","70","","","75","27","k","","","","","","","","","","","","","","",""
"","S2","","html-keyboard-response","166","209236","0.0-1.0-247.0","0","0","78216","","95","","","75","27","","k","1","27","training","adjacent","DE","4","5","O.jpg","R.jpg","0","1","0","",""
"","feedback","","html-keyboard-response","167","210238","0.0-1.0-249.0-0.0","0","0","78216","","null","","","null","27","","","","","","","","","","","","","","","",""
"","time_out","","html-keyboard-response","168","212241","0.0-1.0-251.0-0.0","0","0","78216","","null","","","null","27","","","","","","","","","","","","","","","",""
"","ITI","","html-keyboard-response","169","213242","0.0-1.0-252.0","0","0","78216","","12","","","68","27","","","","","","","","","","","","","","","d",""
"","S1","","html-keyboard-response","170","213494","0.0-1.0-254.0","0","0","78216","","null","","","null","28","","","","","","","","","","","","","","","",""
"","ISI","","html-keyboard-response","171","214496","0.0-1.0-255.0","0","0","78216","","43","","","68","28","d","","","","","","","","","","","","","","",""
"","S2","","html-keyboard-response","172","214748","0.0-1.0-256.0","0","0","78216","","null","","","null","28","","NaN","","","","","","","","","","","","","",""
"","response","","html-keyboard-response","173","214756","0.0-1.0-257.0-0.0","0","0","78216","","6","","","75","28","","","1","28","training","adjacent","AB","1","2","L.jpg","N.jpg","0","1","0","",""
"","feedback","","html-keyboard-response","174","215758","0.0-1.0-258.0-0.0","0","0","78216","","null","","","null","28","","","","","","","","","","","","","","","",""
"","time_out","","html-keyboard-response","175","217760","0.0-1.0-260.0-0.0","0","0","78216","","null","","","null","28","","","","","","","","","","","","","","","",""
"","ITI","","html-keyboard-response","176","218761","0.0-1.0-261.0","0","0","78216","","42","","","68","28","","","","","","","","","","","","","","","d",""
"","S1","","html-keyboard-response","177","219013","0.0-1.0-263.0","0","0","78216","","null","","","null","29","","","","","","","","","","","","","","","",""
"","ISI","","html-keyboard-response","178","220015","0.0-1.0-264.0","0","0","78216","","148","","","68","29","d","","","","","","","","","","","","","","",""
"","S2","","html-keyboard-response","179","220094","0.0-1.0-265.0","0","0","78216","","78","","","68","29","","d","1","29","training","adjacent","GF","7","6","Q.jpg","M.jpg","1","0","0","",""
"","feedback","","html-keyboard-response","180","221097","0.0-1.0-267.0-0.0","0","0","78216","","null","","","null","29","","","","","","","","","","","","","","","",""
"","time_out","","html-keyboard-response","181","223099","0.0-1.0-269.0-0.0","0","0","78216","","null","","","null","29","","","","","","","","","","","","","","","",""
"","ITI","","html-keyboard-response","182","224102","0.0-1.0-270.0","0","0","78216","","352","","","75","29","","","","","","","","","","","","","","","k",""
"","S1","","html-keyboard-response","183","224369","0.0-1.0-272.0","0","0","78216","","null","","","null","30","","","","","","","","","","","","","","","",""
"","ISI","","html-keyboard-response","184","225371","0.0-1.0-273.0","0","0","78216","","20","","","75","30","k","","","","","","","","","","","","","","",""
"","S2","","html-keyboard-response","185","225442","0.0-1.0-274.0","0","0","78216","","70","","","75","30","","k","1","30","training","adjacent","BA","2","1","N.jpg","L.jpg","0","0","1","",""
"","feedback","","html-keyboard-response","186","226445","0.0-1.0-276.0-0.0","0","0","78216","","null","","","null","30","","","","","","","","","","","","","","","",""
"","ITI","","html-keyboard-response","187","227447","0.0-1.0-279.0","0","0","78216","","50","","","75","30","","","","","","","","","","","","","","","k",""
"","S1","","html-keyboard-response","188","227700","0.0-1.0-281.0","0","0","78216","","null","","","null","31","","","","","","","","","","","","","","","",""
"","ISI","","html-keyboard-response","189","228703","0.0-1.0-282.0","0","0","78216","","508","","","75","31","k","","","","","","","","","","","","","","",""
"","S2","","html-keyboard-response","190","228956","0.0-1.0-283.0","0","0","78216","","null","","","null","31","","NaN","","","","","","","","","","","","","",""
"","response","","html-keyboard-response","191","229561","0.0-1.0-284.0-0.0","0","0","78216","","603","","","75","31","","","1","31","training","adjacent","DC","4","3","O.jpg","P.jpg","0","0","1","",""
"","feedback","","html-keyboard-response","192","230563","0.0-1.0-285.0-0.0","0","0","78216","","null","","","null","31","","","","","","","","","","","","","","","",""
"","ITI","","html-keyboard-response","193","231566","0.0-1.0-288.0","0","0","78216","","715","","","75","31","","","","","","","","","","","","","","","k",""
"","S1","","html-keyboard-response","194","231818","0.0-1.0-290.0","0","0","78216","","null","","","null","32","","","","","","","","","","","","","","","",""
"","ISI","","html-keyboard-response","195","232820","0.0-1.0-291.0","0","0","78216","","865","","","75","32","k","","","","","","","","","","","","","","",""
"","S2","","html-keyboard-response","196","232879","0.0-1.0-292.0","0","0","78216","","57","","","75","32","","k","1","32","training","adjacent","BA","2","1","N.jpg","L.jpg","0","0","1","",""
"","feedback","","html-keyboard-response","197","233882","0.0-1.0-294.0-0.0","0","0","78216","","null","","","null","32","","","","","","","","","","","","","","","",""
"","ITI","","html-keyboard-response","198","234884","0.0-1.0-297.0","0","0","78216","","137","","","75","32","","","","","","","","","","","","","","","k",""
"","S1","","html-keyboard-response","199","235137","0.0-1.0-299.0","0","0","78216","","null","","","null","33","","","","","","","","","","","","","","","",""
"","ISI","","html-keyboard-response","200","236138","0.0-1.0-300.0","0","0","78216","","32","","","68","33","d","","","","","","","","","","","","","","",""
"","S2","","html-keyboard-response","201","236392","0.0-1.0-301.0","0","0","78216","","null","","","null","33","","NaN","","","","","","","","","","","","","",""
"","response","","html-keyboard-response","202","236442","0.0-1.0-302.0-0.0","0","0","78216","","49","","","68","33","","","1","33","training","adjacent","FG","6","7","M.jpg","Q.jpg","1","1","1","",""
"","feedback","","html-keyboard-response","203","237444","0.0-1.0-303.0-0.0","0","0","78216","","null","","","null","33","","","","","","","","","","","","","","","",""
"","ITI","","html-keyboard-response","204","238446","0.0-1.0-306.0","0","0","78216","","218","","","75","33","","","","","","","","","","","","","","","k",""
"","S1","","html-keyboard-response","205","238698","0.0-1.0-308.0","0","0","78216","","null","","","null","34","","","","","","","","","","","","","","","",""
"","ISI","","html-keyboard-response","206","239700","0.0-1.0-309.0","0","0","78216","","29","","","75","34","k","","","","","","","","","","","","","","",""
"","S2","","html-keyboard-response","207","239953","0.0-1.0-310.0","0","0","78216","","null","","","null","34","","NaN","","","","","","","","","","","","","",""
"","response","","html-keyboard-response","208","240036","0.0-1.0-311.0-0.0","0","0","78216","","82","","","75","34","","","1","34","training","adjacent","CD","3","4","P.jpg","O.jpg","0","1","0","",""
"","feedback","","html-keyboard-response","209","241038","0.0-1.0-312.0-0.0","0","0","78216","","null","","","null","34","","","","","","","","","","","","","","","",""
"","time_out","","html-keyboard-response","210","243041","0.0-1.0-314.0-0.0","0","0","78216","","null","","","null","34","","","","","","","","","","","","","","","",""
"","ITI","","html-keyboard-response","211","244043","0.0-1.0-315.0","0","0","78216","","94","","","75","34","","","","","","","","","","","","","","","k",""
"","S1","","html-keyboard-response","212","244296","0.0-1.0-317.0","0","0","78216","","null","","","null","35","","","","","","","","","","","","","","","",""
"","ISI","","html-keyboard-response","213","245299","0.0-1.0-318.0","0","0","78216","","182","","","75","35","k","","","","","","","","","","","","","","",""
"","S2","","html-keyboard-response","214","245550","0.0-1.0-319.0","0","0","78216","","null","","","null","35","","NaN","","","","","","","","","","","","","",""
"","response","","html-keyboard-response","215","245648","0.0-1.0-320.0-0.0","0","0","78216","","96","","","68","35","","","1","35","training","adjacent","CB","3","2","P.jpg","N.jpg","1","0","0","",""
"","feedback","","html-keyboard-response","216","246650","0.0-1.0-321.0-0.0","0","0","78216","","null","","","null","35","","","","","","","","","","","","","","","",""
"","time_out","","html-keyboard-response","217","248653","0.0-1.0-323.0-0.0","0","0","78216","","null","","","null","35","","","","","","","","","","","","","","","",""
"","ITI","","html-keyboard-response","218","249656","0.0-1.0-324.0","0","0","78216","","229","","","75","35","","","","","","","","","","","","","","","k",""
"","S1","","html-keyboard-response","219","249909","0.0-1.0-326.0","0","0","78216","","null","","","null","36","","","","","","","","","","","","","","","",""
"","ISI","","html-keyboard-response","220","250911","0.0-1.0-327.0","0","0","78216","","210","","","75","36","k","","","","","","","","","","","","","","",""
"","S2","","html-keyboard-response","221","251165","0.0-1.0-328.0","0","0","78216","","null","","","null","36","","NaN","","","","","","","","","","","","","",""
"","response","","html-keyboard-response","222","251170","0.0-1.0-329.0-0.0","0","0","78216","","4","","","68","36","","","1","36","training","adjacent","AB","1","2","L.jpg","N.jpg","1","1","1","",""
"","feedback","","html-keyboard-response","223","252173","0.0-1.0-330.0-0.0","0","0","78216","","null","","","null","36","","","","","","","","","","","","","","","",""
"","ITI","","html-keyboard-response","224","253175","0.0-1.0-333.0","0","0","78216","","936","","","68","36","","","","","","","","","","","","","","","d",""
"","S1","","html-keyboard-response","225","253427","0.0-1.0-335.0","0","0","78216","","null","","","null","37","","","","","","","","","","","","","","","",""
"","ISI","","html-keyboard-response","226","254430","0.0-1.0-336.0","0","0","78216","","70","","","75","37","k","","","","","","","","","","","","","","",""
"","S2","","html-keyboard-response","227","254621","0.0-1.0-337.0","0","0","78216","","190","","","68","37","","d","1","37","training","adjacent","BC","2","3","N.jpg","P.jpg","1","1","1","",""
"","feedback","","html-keyboard-response","228","255623","0.0-1.0-339.0-0.0","0","0","78216","","null","","","null","37","","","","","","","","","","","","","","","",""
"","ITI","","html-keyboard-response","229","256626","0.0-1.0-342.0","0","0","78216","","null","","","null","37","","","","","","","","","","","","","","","NaN",""
"","S1","","html-keyboard-response","230","256878","0.0-1.0-344.0","0","0","78216","","null","","","null","38","","","","","","","","","","","","","","","",""
"","ISI","","html-keyboard-response","231","257882","0.0-1.0-345.0","0","0","78216","","648","","","68","38","d","","","","","","","","","","","","","","",""
"","S2","","html-keyboard-response","232","258012","0.0-1.0-346.0","0","0","78216","","129","","","75","38","","k","1","38","training","adjacent","EF","5","6","R.jpg","M.jpg","0","1","0","",""
"","feedback","","html-keyboard-response","233","259015","0.0-1.0-348.0-0.0","0","0","78216","","null","","","null","38","","","","","","","","","","","","","","","",""
"","time_out","","html-keyboard-response","234","261017","0.0-1.0-350.0-0.0","0","0","78216","","null","","","null","38","","","","","","","","","","","","","","","",""
"","ITI","","html-keyboard-response","235","262020","0.0-1.0-351.0","0","0","78216","","284","","","68","38","","","","","","","","","","","","","","","d",""
"","S1","","html-keyboard-response","236","262272","0.0-1.0-353.0","0","0","78216","","null","","","null","39","","","","","","","","","","","","","","","",""
"","ISI","","html-keyboard-response","237","263275","0.0-1.0-354.0","0","0","78216","","69","","","75","39","k","","","","","","","","","","","","","","",""
"","S2","","html-keyboard-response","238","263458","0.0-1.0-355.0","0","0","78216","","182","","","75","39","","k","1","39","training","adjacent","ED","5","4","R.jpg","O.jpg","0","0","1","",""
"","feedback","","html-keyboard-response","239","264461","0.0-1.0-357.0-0.0","0","0","78216","","null","","","null","39","","","","","","","","","","","","","","","",""
"","ITI","","html-keyboard-response","240","265463","0.0-1.0-360.0","0","0","78216","","4","","","68","39","","","","","","","","","","","","","","","d",""
"","S1","","html-keyboard-response","241","265716","0.0-1.0-362.0","0","0","78216","","null","","","null","40","","","","","","","","","","","","","","","",""
"","ISI","","html-keyboard-response","242","266718","0.0-1.0-363.0","0","0","78216","","235","","","68","40","d","","","","","","","","","","","","","","",""
"","S2","","html-keyboard-response","243","266883","0.0-1.0-364.0","0","0","78216","","164","","","68","40","","d","1","40","training","adjacent","AB","1","2","L.jpg","N.jpg","1","1","1","",""
"","feedback","","html-keyboard-response","244","267886","0.0-1.0-366.0-0.0","0","0","78216","","null","","","null","40","","","","","","","","","","","","","","","",""
"","ITI","","html-keyboard-response","245","268888","0.0-1.0-369.0","0","0","78216","","203","","","68","40","","","","","","","","","","","","","","","d",""
"","S1","","html-keyboard-response","246","269141","0.0-1.0-371.0","0","0","78216","","null","","","null","41","","","","","","","","","","","","","","","",""
"","ISI","","html-keyboard-response","247","270144","0.0-1.0-372.0","0","0","78216","","29","","","75","41","k","","","","","","","","","","","","","","",""
"","S2","","html-keyboard-response","248","270340","0.0-1.0-373.0","0","0","78216","","195","","","68","41","","d","1","41","training","adjacent","ED","5","4","R.jpg","O.jpg","1","0","0","",""
"","feedback","","html-keyboard-response","249","271343","0.0-1.0-375.0-0.0","0","0","78216","","null","","","null","41","","","","","","","","","","","","","","","",""
"","time_out","","html-keyboard-response","250","273345","0.0-1.0-377.0-0.0","0","0","78216","","null","","","null","41","","","","","","","","","","","","","","","",""
"","ITI","","html-keyboard-response","251","274347","0.0-1.0-378.0","0","0","78216","","55","","","68","41","","","","","","","","","","","","","","","d",""
"","S1","","html-keyboard-response","252","274600","0.0-1.0-380.0","0","0","78216","","null","","","null","42","","","","","","","","","","","","","","","",""
"","ISI","","html-keyboard-response","253","275602","0.0-1.0-381.0","0","0","78216","","21","","","68","42","d","","","","","","","","","","","","","","",""
"","S2","","html-keyboard-response","254","275692","0.0-1.0-382.0","0","0","78216","","89","","","75","42","","k","1","42","training","adjacent","CB","3","2","P.jpg","N.jpg","0","0","1","",""
"","feedback","","html-keyboard-response","255","276694","0.0-1.0-384.0-0.0","0","0","78216","","null","","","null","42","","","","","","","","","","","","","","","",""
"","ITI","","html-keyboard-response","256","277696","0.0-1.0-387.0","0","0","78216","","225","","","68","42","","","","","","","","","","","","","","","d",""
"","S1","","html-keyboard-response","257","277948","0.0-1.0-389.0","0","0","78216","","null","","","null","43","","","","","","","","","","","","","","","",""
"","ISI","","html-keyboard-response","258","278950","0.0-1.0-390.0","0","0","78216","","303","","","68","43","d","","","","","","","","","","","","","","",""
"","S2","","html-keyboard-response","259","279044","0.0-1.0-391.0","0","0","78216","","92","","","68","43","","d","1","43","training","adjacent","BA","2","1","N.jpg","L.jpg","1","0","0","",""
"","feedback","","html-keyboard-response","260","280047","0.0-1.0-393.0-0.0","0","0","78216","","null","","","null","43","","","","","","","","","","","","","","","",""
"","time_out","","html-keyboard-response","261","282049","0.0-1.0-395.0-0.0","0","0","78216","","null","","","null","43","","","","","","","","","","","","","","","",""
"","ITI","","html-keyboard-response","262","283050","0.0-1.0-396.0","0","0","78216","","501","","","68","43","","","","","","","","","","","","","","","d",""
"","S1","","html-keyboard-response","263","283303","0.0-1.0-398.0","0","0","78216","","null","","","null","44","","","","","","","","","","","","","","","",""
"","ISI","","html-keyboard-response","264","284305","0.0-1.0-399.0","0","0","78216","","89","","","75","44","k","","","","","","","","","","","","","","",""
"","S2","","html-keyboard-response","265","284384","0.0-1.0-400.0","0","0","78216","","78","","","75","44","","k","1","44","training","adjacent","ED","5","4","R.jpg","O.jpg","0","0","1","",""
"","feedback","","html-keyboard-response","266","285387","0.0-1.0-402.0-0.0","0","0","78216","","null","","","null","44","","","","","","","","","","","","","","","",""
"","ITI","","html-keyboard-response","267","286389","0.0-1.0-405.0","0","0","78216","","22","","","68","44","","","","","","","","","","","","","","","d",""
"","S1","","html-keyboard-response","268","286642","0.0-1.0-407.0","0","0","78216","","null","","","null","45","","","","","","","","","","","","","","","",""
"","ISI","","html-keyboard-response","269","287644","0.0-1.0-408.0","0","0","78216","","126","","","68","45","d","","","","","","","","","","","","","","",""
"","S2","","html-keyboard-response","270","287741","0.0-1.0-409.0","0","0","78216","","96","","","68","45","","d","1","45","training","adjacent","ED","5","4","R.jpg","O.jpg","1","0","0","",""
"","feedback","","html-keyboard-response","271","288743","0.0-1.0-411.0-0.0","0","0","78216","","null","","","null","45","","","","","","","","","","","","","","","",""
"","time_out","","html-keyboard-response","272","290745","0.0-1.0-413.0-0.0","0","0","78216","","null","","","null","45","","","","","","","","","","","","","","","",""
"","ITI","","html-keyboard-response","273","291747","0.0-1.0-414.0","0","0","78216","","323","","","68","45","","","","","","","","","","","","","","","d",""
"","S1","","html-keyboard-response","274","292001","0.0-1.0-416.0","0","0","78216","","null","","","null","46","","","","","","","","","","","","","","","",""
"","ISI","","html-keyboard-response","275","293003","0.0-1.0-417.0","0","0","78216","","179","","","68","46","d","","","","","","","","","","","","","","",""
"","S2","","html-keyboard-response","276","293255","0.0-1.0-418.0","0","0","78216","","null","","","null","46","","NaN","","","","","","","","","","","","","",""
"","response","","html-keyboard-response","277","293271","0.0-1.0-419.0-0.0","0","0","78216","","14","","","68","46","","","1","46","training","adjacent","FE","6","5","M.jpg","R.jpg","1","0","0","",""
"","feedback","","html-keyboard-response","278","294274","0.0-1.0-420.0-0.0","0","0","78216","","null","","","null","46","","","","","","","","","","","","","","","",""
"","time_out","","html-keyboard-response","279","296276","0.0-1.0-422.0-0.0","0","0","78216","","null","","","null","46","","","","","","","","","","","","","","","",""
"","ITI","","html-keyboard-response","280","297287","0.0-1.0-423.0","0","0","78216","","817","","","68","46","","","","","","","","","","","","","","","d",""
"","S1","","html-keyboard-response","281","297540","0.0-1.0-425.0","0","0","78216","","null","","","null","47","","","","","","","","","","","","","","","",""
"","ISI","","html-keyboard-response","282","298543","0.0-1.0-426.0","0","0","78216","","133","","","75","47","k","","","","","","","","","","","","","","",""
"","S2","","html-keyboard-response","283","298796","0.0-1.0-427.0","0","0","78216","","null","","","null","47","","NaN","","","","","","","","","","","","","",""
"","response","","html-keyboard-response","284","298853","0.0-1.0-428.0-0.0","0","0","78216","","56","","","68","47","","","1","47","training","adjacent","DE","4","5","O.jpg","R.jpg","1","1","1","",""
"","feedback","","html-keyboard-response","285","299855","0.0-1.0-429.0-0.0","0","0","78216","","null","","","null","47","","","","","","","","","","","","","","","",""
"","ITI","","html-keyboard-response","286","300858","0.0-1.0-432.0","0","0","78216","","166","","","68","47","","","","","","","","","","","","","","","d",""
"","block_over","","html-keyboard-response","287","306936","0.0-1.0-433.0-0.0","0","0","78216","","6077","","","32","47","","","","","","","","","","","","","","","",""
"","S1","","html-keyboard-response","288","307188","0.0-1.0-434.0","0","0","78216","","null","","","null","48","","","","","","","","","","","","","","","",""
"","ISI","","html-keyboard-response","289","308190","0.0-1.0-435.0","0","0","78216","","350","","","68","48","d","","","","","","","","","","","","","","",""
"","S2","","html-keyboard-response","290","308443","0.0-1.0-436.0","0","0","78216","","null","","","null","48","","NaN","","","","","","","","","","","","","",""
"","response","","html-keyboard-response","291","308994","0.0-1.0-437.0-0.0","0","0","78216","","550","","","75","48","","","2","48","training","adjacent","DE","4","5","O.jpg","R.jpg","0","1","0","",""
"","feedback","","html-keyboard-response","292","309995","0.0-1.0-438.0-0.0","0","0","78216","","null","","","null","48","","","","","","","","","","","","","","","",""
"","time_out","","html-keyboard-response","293","311998","0.0-1.0-440.0-0.0","0","0","78216","","null","","","null","48","","","","","","","","","","","","","","","",""
"","ITI","","html-keyboard-response","294","312999","0.0-1.0-441.0","0","0","78216","","322","","","68","48","","","","","","","","","","","","","","","d",""
"","S1","","html-keyboard-response","295","313251","0.0-1.0-443.0","0","0","78216","","null","","","null","49","","","","","","","","","","","","","","","",""
"","ISI","","html-keyboard-response","296","314253","0.0-1.0-444.0","0","0","78216","","null","","","null","49","NaN","","","","","","","","","","","","","","",""
"","S2","","html-keyboard-response","297","314506","0.0-1.0-445.0","0","0","78216","","null","","","null","49","","NaN","","","","","","","","","","","","","",""
"","response","","html-keyboard-response","298","315128","0.0-1.0-446.0-0.0","0","0","78216","","621","","","75","49","","","2","49","training","adjacent","ED","5","4","R.jpg","O.jpg","0","0","1","",""
"","feedback","","html-keyboard-response","299","316129","0.0-1.0-447.0-0.0","0","0","78216","","null","","","null","49","","","","","","","","","","","","","","","",""
"","ITI","","html-keyboard-response","300","317132","0.0-1.0-450.0","0","0","78216","","null","","","null","49","","","","","","","","","","","","","","","NaN",""
"","S1","","html-keyboard-response","301","317384","0.0-1.0-452.0","0","0","78216","","null","","","null","50","","","","","","","","","","","","","","","",""
"","ISI","","html-keyboard-response","302","318386","0.0-1.0-453.0","0","0","78216","","587","","","75","50","k","","","","","","","","","","","","","","",""
"","S2","","html-keyboard-response","303","318527","0.0-1.0-454.0","0","0","78216","","140","","","75","50","","k","2","50","training","adjacent","DC","4","3","O.jpg","P.jpg","0","0","1","",""
"","feedback","","html-keyboard-response","304","319529","0.0-1.0-456.0-0.0","0","0","78216","","null","","","null","50","","","","","","","","","","","","","","","",""
"","ITI","","html-keyboard-response","305","320534","0.0-1.0-459.0","0","0","78216","","3","","","75","50","","","","","","","","","","","","","","","k",""
"","S1","","html-keyboard-response","306","320787","0.0-1.0-461.0","0","0","78216","","null","","","null","51","","","","","","","","","","","","","","","",""
"","ISI","","html-keyboard-response","307","321789","0.0-1.0-462.0","0","0","78216","","484","","","75","51","k","","","","","","","","","","","","","","",""
"","S2","","html-keyboard-response","308","322015","0.0-1.0-463.0","0","0","78216","","224","","","75","51","","k","2","51","training","adjacent","EF","5","6","R.jpg","M.jpg","0","1","0","",""
"","feedback","","html-keyboard-response","309","323018","0.0-1.0-465.0-0.0","0","0","78216","","null","","","null","51","","","","","","","","","","","","","","","",""
"","time_out","","html-keyboard-response","310","325021","0.0-1.0-467.0-0.0","0","0","78216","","null","","","null","51","","","","","","","","","","","","","","","",""
"","ITI","","html-keyboard-response","311","326023","0.0-1.0-468.0","0","0","78216","","null","","","null","51","","","","","","","","","","","","","","","NaN",""
"","S1","","html-keyboard-response","312","326277","0.0-1.0-470.0","0","0","78216","","null","","","null","52","","","","","","","","","","","","","","","",""
"","ISI","","html-keyboard-response","313","327278","0.0-1.0-471.0","0","0","78216","","52","","","68","52","d","","","","","","","","","","","","","","",""
"","S2","","html-keyboard-response","314","327472","0.0-1.0-472.0","0","0","78216","","191","","","68","52","","d","2","52","training","adjacent","CD","3","4","P.jpg","O.jpg","1","1","1","",""
"","feedback","","html-keyboard-response","315","328474","0.0-1.0-474.0-0.0","0","0","78216","","null","","","null","52","","","","","","","","","","","","","","","",""
"","ITI","","html-keyboard-response","316","329477","0.0-1.0-477.0","0","0","78216","","null","","","null","52","","","","","","","","","","","","","","","NaN",""
"","S1","","html-keyboard-response","317","329730","0.0-1.0-479.0","0","0","78216","","null","","","null","53","","","","","","","","","","","","","","","",""
"","ISI","","html-keyboard-response","318","330732","0.0-1.0-480.0","0","0","78216","","265","","","68","53","d","","","","","","","","","","","","","","",""
"","S2","","html-keyboard-response","319","330984","0.0-1.0-481.0","0","0","78216","","250","","","75","53","","k","2","53","training","adjacent","FG","6","7","M.jpg","Q.jpg","0","1","0","",""
"","feedback","","html-keyboard-response","320","331986","0.0-1.0-483.0-0.0","0","0","78216","","null","","","null","53","","","","","","","","","","","","","","","",""
"","time_out","","html-keyboard-response","321","333989","0.0-1.0-485.0-0.0","0","0","78216","","null","","","null","53","","","","","","","","","","","","","","","",""
"","ITI","","html-keyboard-response","322","334990","0.0-1.0-486.0","0","0","78216","","514","","","75","53","","","","","","","","","","","","","","","k",""
"","S1","","html-keyboard-response","323","335242","0.0-1.0-488.0","0","0","78216","","null","","","null","54","","","","","","","","","","","","","","","",""
"","ISI","","html-keyboard-response","324","336244","0.0-1.0-489.0","0","0","78216","","84","","","68","54","d","","","","","","","","","","","","","","",""
"","S2","","html-keyboard-response","325","336381","0.0-1.0-490.0","0","0","78216","","135","","","75","54","","k","2","54","training","adjacent","EF","5","6","R.jpg","M.jpg","0","1","0","",""
"","feedback","","html-keyboard-response","326","337384","0.0-1.0-492.0-0.0","0","0","78216","","null","","","null","54","","","","","","","","","","","","","","","",""
"","time_out","","html-keyboard-response","327","339386","0.0-1.0-494.0-0.0","0","0","78216","","null","","","null","54","","","","","","","","","","","","","","","",""
"","ITI","","html-keyboard-response","328","340388","0.0-1.0-495.0","0","0","78216","","351","","","68","54","","","","","","","","","","","","","","","d",""
"","S1","","html-keyboard-response","329","340641","0.0-1.0-497.0","0","0","78216","","null","","","null","55","","","","","","","","","","","","","","","",""
"","ISI","","html-keyboard-response","330","341644","0.0-1.0-498.0","0","0","78216","","174","","","75","55","k","","","","","","","","","","","","","","",""
"","S2","","html-keyboard-response","331","341664","0.0-1.0-499.0","0","0","78216","","19","","","75","55","","k","2","55","training","adjacent","FG","6","7","M.jpg","Q.jpg","0","1","0","",""
"","feedback","","html-keyboard-response","332","342666","0.0-1.0-501.0-0.0","0","0","78216","","null","","","null","55","","","","","","","","","","","","","","","",""
"","time_out","","html-keyboard-response","333","344669","0.0-1.0-503.0-0.0","0","0","78216","","null","","","null","55","","","","","","","","","","","","","","","",""
"","ITI","","html-keyboard-response","334","345671","0.0-1.0-504.0","0","0","78216","","318","","","68","55","","","","","","","","","","","","","","","d",""
"","S1","","html-keyboard-response","335","345923","0.0-1.0-506.0","0","0","78216","","null","","","null","56","","","","","","","","","","","","","","","",""
"","ISI","","html-keyboard-response","336","346925","0.0-1.0-507.0","0","0","78216","","494","","","75","56","k","","","","","","","","","","","","","","",""
"","S2","","html-keyboard-response","337","347007","0.0-1.0-508.0","0","0","78216","","80","","","68","56","","d","2","56","training","adjacent","CD","3","4","P.jpg","O.jpg","1","1","1","",""
"","feedback","","html-keyboard-response","338","348010","0.0-1.0-510.0-0.0","0","0","78216","","null","","","null","56","","","","","","","","","","","","","","","",""
"","ITI","","html-keyboard-response","339","349013","0.0-1.0-513.0","0","0","78216","","506","","","68","56","","","","","","","","","","","","","","","d",""
"","S1","","html-keyboard-response","340","349264","0.0-1.0-515.0","0","0","78216","","null","","","null","57","","","","","","","","","","","","","","","",""
"","ISI","","html-keyboard-response","341","350266","0.0-1.0-516.0","0","0","78216","","173","","","75","57","k","","","","","","","","","","","","","","",""
"","S2","","html-keyboard-response","342","350409","0.0-1.0-517.0","0","0","78216","","142","","","75","57","","k","2","57","training","adjacent","BC","2","3","N.jpg","P.jpg","0","1","0","",""
"","feedback","","html-keyboard-response","343","351412","0.0-1.0-519.0-0.0","0","0","78216","","null","","","null","57","","","","","","","","","","","","","","","",""
"","time_out","","html-keyboard-response","344","353414","0.0-1.0-521.0-0.0","0","0","78216","","null","","","null","57","","","","","","","","","","","","","","","",""
"","ITI","","html-keyboard-response","345","354416","0.0-1.0-522.0","0","0","78216","","134","","","75","57","","","","","","","","","","","","","","","k",""
"","S1","","html-keyboard-response","346","354668","0.0-1.0-524.0","0","0","78216","","null","","","null","58","","","","","","","","","","","","","","","",""
"","ISI","","html-keyboard-response","347","355671","0.0-1.0-525.0","0","0","78216","","263","","","75","58","k","","","","","","","","","","","","","","",""
"","S2","","html-keyboard-response","348","355924","0.0-1.0-526.0","0","0","78216","","null","","","null","58","","NaN","","","","","","","","","","","","","",""
"","response","","html-keyboard-response","349","356724","0.0-1.0-527.0-0.0","0","0","78216","","799","","","68","58","","","2","58","training","adjacent","DC","4","3","O.jpg","P.jpg","1","0","0","",""
"","feedback","","html-keyboard-response","350","357727","0.0-1.0-528.0-0.0","0","0","78216","","null","","","null","58","","","","","","","","","","","","","","","",""
"","time_out","","html-keyboard-response","351","359730","0.0-1.0-530.0-0.0","0","0","78216","","null","","","null","58","","","","","","","","","","","","","","","",""
"","ITI","","html-keyboard-response","352","360732","0.0-1.0-531.0","0","0","78216","","213","","","75","58","","","","","","","","","","","","","","","k",""
"","S1","","html-keyboard-response","353","360985","0.0-1.0-533.0","0","0","78216","","null","","","null","59","","","","","","","","","","","","","","","",""
"","ISI","","html-keyboard-response","354","361987","0.0-1.0-534.0","0","0","78216","","64","","","75","59","k","","","","","","","","","","","","","","",""
"","S2","","html-keyboard-response","355","362096","0.0-1.0-535.0","0","0","78216","","108","","","68","59","","d","2","59","training","adjacent","FE","6","5","M.jpg","R.jpg","1","0","0","",""
"","feedback","","html-keyboard-response","356","363098","0.0-1.0-537.0-0.0","0","0","78216","","null","","","null","59","","","","","","","","","","","","","","","",""
"","time_out","","html-keyboard-response","357","365100","0.0-1.0-539.0-0.0","0","0","78216","","null","","","null","59","","","","","","","","","","","","","","","",""
"","ITI","","html-keyboard-response","358","366103","0.0-1.0-540.0","0","0","78216","","98","","","75","59","","","","","","","","","","","","","","","k",""
"","S1","","html-keyboard-response","359","366355","0.0-1.0-542.0","0","0","78216","","null","","","null","60","","","","","","","","","","","","","","","",""
"","ISI","","html-keyboard-response","360","367357","0.0-1.0-543.0","0","0","78216","","14","","","68","60","d","","","","","","","","","","","","","","",""
"","S2","","html-keyboard-response","361","367397","0.0-1.0-544.0","0","0","78216","","38","","","75","60","","k","2","60","training","adjacent","EF","5","6","R.jpg","M.jpg","0","1","0","",""
"","feedback","","html-keyboard-response","362","368400","0.0-1.0-546.0-0.0","0","0","78216","","null","","","null","60","","","","","","","","","","","","","","","",""
"","time_out","","html-keyboard-response","363","370401","0.0-1.0-548.0-0.0","0","0","78216","","null","","","null","60","","","","","","","","","","","","","","","",""
"","ITI","","html-keyboard-response","364","371403","0.0-1.0-549.0","0","0","78216","","261","","","75","60","","","","","","","","","","","","","","","k",""
"","S1","","html-keyboard-response","365","371655","0.0-1.0-551.0","0","0","78216","","null","","","null","61","","","","","","","","","","","","","","","",""
"","ISI","","html-keyboard-response","366","372657","0.0-1.0-552.0","0","0","78216","","127","","","75","61","k","","","","","","","","","","","","","","",""
"","S2","","html-keyboard-response","367","372763","0.0-1.0-553.0","0","0","78216","","105","","","68","61","","d","2","61","training","adjacent","ED","5","4","R.jpg","O.jpg","1","0","0","",""
"","feedback","","html-keyboard-response","368","373766","0.0-1.0-555.0-0.0","0","0","78216","","null","","","null","61","","","","","","","","","","","","","","","",""
"","time_out","","html-keyboard-response","369","375768","0.0-1.0-557.0-0.0","0","0","78216","","null","","","null","61","","","","","","","","","","","","","","","",""
"","ITI","","html-keyboard-response","370","376771","0.0-1.0-558.0","0","0","78216","","82","","","75","61","","","","","","","","","","","","","","","k",""
"","S1","","html-keyboard-response","371","377023","0.0-1.0-560.0","0","0","78216","","null","","","null","62","","","","","","","","","","","","","","","",""
"","ISI","","html-keyboard-response","372","378026","0.0-1.0-561.0","0","0","78216","","305","","","68","62","d","","","","","","","","","","","","","","",""
"","S2","","html-keyboard-response","373","378278","0.0-1.0-562.0","0","0","78216","","null","","","null","62","","NaN","","","","","","","","","","","","","",""
"","response","","html-keyboard-response","374","378597","0.0-1.0-563.0-0.0","0","0","78216","","318","","","68","62","","","2","62","training","adjacent","CB","3","2","P.jpg","N.jpg","1","0","0","",""
"","feedback","","html-keyboard-response","375","379599","0.0-1.0-564.0-0.0","0","0","78216","","null","","","null","62","","","","","","","","","","","","","","","",""
"","time_out","","html-keyboard-response","376","381601","0.0-1.0-566.0-0.0","0","0","78216","","null","","","null","62","","","","","","","","","","","","","","","",""
"","ITI","","html-keyboard-response","377","382603","0.0-1.0-567.0","0","0","78216","","153","","","68","62","","","","","","","","","","","","","","","d",""
"","S1","","html-keyboard-response","378","382856","0.0-1.0-569.0","0","0","78216","","null","","","null","63","","","","","","","","","","","","","","","",""
"","ISI","","html-keyboard-response","379","383858","0.0-1.0-570.0","0","0","78216","","45","","","75","63","k","","","","","","","","","","","","","","",""
"","S2","","html-keyboard-response","380","383999","0.0-1.0-571.0","0","0","78216","","140","","","75","63","","k","2","63","training","adjacent","EF","5","6","R.jpg","M.jpg","0","1","0","",""
"","feedback","","html-keyboard-response","381","385002","0.0-1.0-573.0-0.0","0","0","78216","","null","","","null","63","","","","","","","","","","","","","","","",""
"","time_out","","html-keyboard-response","382","387004","0.0-1.0-575.0-0.0","0","0","78216","","null","","","null","63","","","","","","","","","","","","","","","",""
"","ITI","","html-keyboard-response","383","388006","0.0-1.0-576.0","0","0","78216","","154","","","68","63","","","","","","","","","","","","","","","d",""
"","S1","","html-keyboard-response","384","388258","0.0-1.0-578.0","0","0","78216","","null","","","null","64","","","","","","","","","","","","","","","",""
"","ISI","","html-keyboard-response","385","389260","0.0-1.0-579.0","0","0","78216","","102","","","75","64","k","","","","","","","","","","","","","","",""
"","S2","","html-keyboard-response","386","389261","0.0-1.0-580.0","0","0","78216","","0","","","68","64","","d","2","64","training","adjacent","DE","4","5","O.jpg","R.jpg","1","1","1","",""
"","feedback","","html-keyboard-response","387","390263","0.0-1.0-582.0-0.0","0","0","78216","","null","","","null","64","","","","","","","","","","","","","","","",""
"","ITI","","html-keyboard-response","388","391266","0.0-1.0-585.0","0","0","78216","","null","","","null","64","","","","","","","","","","","","","","","NaN",""
"","S1","","html-keyboard-response","389","391519","0.0-1.0-587.0","0","0","78216","","null","","","null","65","","","","","","","","","","","","","","","",""
"","ISI","","html-keyboard-response","390","392522","0.0-1.0-588.0","0","0","78216","","null","","","null","65","NaN","","","","","","","","","","","","","","",""
"","S2","","html-keyboard-response","391","392775","0.0-1.0-589.0","0","0","78216","","null","","","null","65","","NaN","","","","","","","","","","","","","",""
"","response","","html-keyboard-response","392","393103","0.0-1.0-590.0-0.0","0","0","78216","","327","","","68","65","","","2","65","training","adjacent","AB","1","2","L.jpg","N.jpg","1","1","1","",""
"","feedback","","html-keyboard-response","393","394106","0.0-1.0-591.0-0.0","0","0","78216","","null","","","null","65","","","","","","","","","","","","","","","",""
"","ITI","","html-keyboard-response","394","395109","0.0-1.0-594.0","0","0","78216","","null","","","null","65","","","","","","","","","","","","","","","NaN",""
"","S1","","html-keyboard-response","395","395361","0.0-1.0-596.0","0","0","78216","","null","","","null","66","","","","","","","","","","","","","","","",""
"","ISI","","html-keyboard-response","396","396363","0.0-1.0-597.0","0","0","78216","","60","","","68","66","d","","","","","","","","","","","","","","",""
"","S2","","html-keyboard-response","397","396616","0.0-1.0-598.0","0","0","78216","","null","","","null","66","","NaN","","","","","","","","","","","","","",""
"","response","","html-keyboard-response","398","396884","0.0-1.0-599.0-0.0","0","0","78216","","267","","","68","66","","","2","66","training","adjacent","DE","4","5","O.jpg","R.jpg","1","1","1","",""
"","feedback","","html-keyboard-response","399","397886","0.0-1.0-600.0-0.0","0","0","78216","","null","","","null","66","","","","","","","","","","","","","","","",""
"","ITI","","html-keyboard-response","400","398897","0.0-1.0-603.0","0","0","78216","","null","","","null","66","","","","","","","","","","","","","","","NaN",""
"","S1","","html-keyboard-response","401","399149","0.0-1.0-605.0","0","0","78216","","null","","","null","67","","","","","","","","","","","","","","","",""
"","ISI","","html-keyboard-response","402","400151","0.0-1.0-606.0","0","0","78216","","844","","","68","67","d","","","","","","","","","","","","","","",""
"","S2","","html-keyboard-response","403","400403","0.0-1.0-607.0","0","0","78216","","null","","","null","67","","NaN","","","","","","","","","","","","","",""
"","response","","html-keyboard-response","404","400593","0.0-1.0-608.0-0.0","0","0","78216","","189","","","68","67","","","2","67","training","adjacent","FG","6","7","M.jpg","Q.jpg","1","1","1","",""
"","feedback","","html-keyboard-response","405","401596","0.0-1.0-609.0-0.0","0","0","78216","","null","","","null","67","","","","","","","","","","","","","","","",""
"","ITI","","html-keyboard-response","406","402598","0.0-1.0-612.0","0","0","78216","","null","","","null","67","","","","","","","","","","","","","","","NaN",""
"","S1","","html-keyboard-response","407","402850","0.0-1.0-614.0","0","0","78216","","null","","","null","68","","","","","","","","","","","","","","","",""
"","ISI","","html-keyboard-response","408","403852","0.0-1.0-615.0","0","0","78216","","350","","","68","68","d","","","","","","","","","","","","","","",""
"","S2","","html-keyboard-response","409","403954","0.0-1.0-616.0","0","0","78216","","101","","","68","68","","d","2","68","training","adjacent","AB","1","2","L.jpg","N.jpg","1","1","1","",""
"","feedback","","html-keyboard-response","410","404957","0.0-1.0-618.0-0.0","0","0","78216","","null","","","null","68","","","","","","","","","","","","","","","",""
"","ITI","","html-keyboard-response","411","405959","0.0-1.0-621.0","0","0","78216","","null","","","null","68","","","","","","","","","","","","","","","NaN",""
"","S1","","html-keyboard-response","412","406212","0.0-1.0-623.0","0","0","78216","","null","","","null","69","","","","","","","","","","","","","","","",""
"","ISI","","html-keyboard-response","413","407214","0.0-1.0-624.0","0","0","78216","","441","","","68","69","d","","","","","","","","","","","","","","",""
"","S2","","html-keyboard-response","414","407431","0.0-1.0-625.0","0","0","78216","","216","","","75","69","","k","2","69","training","adjacent","CB","3","2","P.jpg","N.jpg","0","0","1","",""
"","feedback","","html-keyboard-response","415","408434","0.0-1.0-627.0-0.0","0","0","78216","","null","","","null","69","","","","","","","","","","","","","","","",""
"","ITI","","html-keyboard-response","416","409437","0.0-1.0-630.0","0","0","78216","","null","","","null","69","","","","","","","","","","","","","","","NaN",""
"","S1","","html-keyboard-response","417","409689","0.0-1.0-632.0","0","0","78216","","null","","","null","70","","","","","","","","","","","","","","","",""
"","ISI","","html-keyboard-response","418","410691","0.0-1.0-633.0","0","0","78216","","657","","","68","70","d","","","","","","","","","","","","","","",""
"","S2","","html-keyboard-response","419","410721","0.0-1.0-634.0","0","0","78216","","29","","","68","70","","d","2","70","training","adjacent","BC","2","3","N.jpg","P.jpg","1","1","1","",""
"","feedback","","html-keyboard-response","420","411723","0.0-1.0-636.0-0.0","0","0","78216","","null","","","null","70","","","","","","","","","","","","","","","",""
"","ITI","","html-keyboard-response","421","412725","0.0-1.0-639.0","0","0","78216","","329","","","68","70","","","","","","","","","","","","","","","d",""
"","S1","","html-keyboard-response","422","412978","0.0-1.0-641.0","0","0","78216","","null","","","null","71","","","","","","","","","","","","","","","",""
"","ISI","","html-keyboard-response","423","413980","0.0-1.0-642.0","0","0","78216","","3","","","68","71","d","","","","","","","","","","","","","","",""
"","S2","","html-keyboard-response","424","414149","0.0-1.0-643.0","0","0","78216","","168","","","68","71","","d","2","71","training","adjacent","CD","3","4","P.jpg","O.jpg","1","1","1","",""
"","feedback","","html-keyboard-response","425","415152","0.0-1.0-645.0-0.0","0","0","78216","","null","","","null","71","","","","","","","","","","","","","","","",""
"","ITI","","html-keyboard-response","426","416165","0.0-1.0-648.0","0","0","78216","","880","","","68","71","","","","","","","","","","","","","","","d",""
"","S1","","html-keyboard-response","427","416418","0.0-1.0-650.0","0","0","78216","","null","","","null","72","","","","","","","","","","","","","","","",""
"","ISI","","html-keyboard-response","428","417420","0.0-1.0-651.0","0","0","78216","","483","","","68","72","d","","","","","","","","","","","","","","",""
"","S2","","html-keyboard-response","429","417673","0.0-1.0-652.0","0","0","78216","","null","","","null","72","","NaN","","","","","","","","","","","","","",""
"","response","","html-keyboard-response","430","417854","0.0-1.0-653.0-0.0","0","0","78216","","180","","","68","72","","","2","72","training","adjacent","GF","7","6","Q.jpg","M.jpg","1","0","0","",""
"","feedback","","html-keyboard-response","431","418857","0.0-1.0-654.0-0.0","0","0","78216","","null","","","null","72","","","","","","","","","","","","","","","",""
"","time_out","","html-keyboard-response","432","420859","0.0-1.0-656.0-0.0","0","0","78216","","null","","","null","72","","","","","","","","","","","","","","","",""
"","ITI","","html-keyboard-response","433","421861","0.0-1.0-657.0","0","0","78216","","153","","","75","72","","","","","","","","","","","","","","","k",""
"","S1","","html-keyboard-response","434","422114","0.0-1.0-659.0","0","0","78216","","null","","","null","73","","","","","","","","","","","","","","","",""
"","ISI","","html-keyboard-response","435","423117","0.0-1.0-660.0","0","0","78216","","95","","","75","73","k","","","","","","","","","","","","","","",""
"","S2","","html-keyboard-response","436","423209","0.0-1.0-661.0","0","0","78216","","91","","","75","73","","k","2","73","training","adjacent","ED","5","4","R.jpg","O.jpg","0","0","1","",""
"","feedback","","html-keyboard-response","437","424211","0.0-1.0-663.0-0.0","0","0","78216","","null","","","null","73","","","","","","","","","","","","","","","",""
"","ITI","","html-keyboard-response","438","425214","0.0-1.0-666.0","0","0","78216","","null","","","null","73","","","","","","","","","","","","","","","NaN",""
"","S1","","html-keyboard-response","439","425465","0.0-1.0-668.0","0","0","78216","","null","","","null","74","","","","","","","","","","","","","","","",""
"","ISI","","html-keyboard-response","440","426467","0.0-1.0-669.0","0","0","78216","","451","","","75","74","k","","","","","","","","","","","","","","",""
"","S2","","html-keyboard-response","441","426531","0.0-1.0-670.0","0","0","78216","","62","","","75","74","","k","2","74","training","adjacent","BA","2","1","N.jpg","L.jpg","0","0","1","",""
"","feedback","","html-keyboard-response","442","427533","0.0-1.0-672.0-0.0","0","0","78216","","null","","","null","74","","","","","","","","","","","","","","","",""
"","ITI","","html-keyboard-response","443","428535","0.0-1.0-675.0","0","0","78216","","73","","","75","74","","","","","","","","","","","","","","","k",""
"","S1","","html-keyboard-response","444","428788","0.0-1.0-677.0","0","0","78216","","null","","","null","75","","","","","","","","","","","","","","","",""
"","ISI","","html-keyboard-response","445","429789","0.0-1.0-678.0","0","0","78216","","13","","","75","75","k","","","","","","","","","","","","","","",""
"","S2","","html-keyboard-response","446","430042","0.0-1.0-679.0","0","0","78216","","null","","","null","75","","NaN","","","","","","","","","","","","","",""
"","response","","html-keyboard-response","447","430069","0.0-1.0-680.0-0.0","0","0","78216","","26","","","75","75","","","2","75","training","adjacent","FG","6","7","M.jpg","Q.jpg","0","1","0","",""
"","feedback","","html-keyboard-response","448","431072","0.0-1.0-681.0-0.0","0","0","78216","","null","","","null","75","","","","","","","","","","","","","","","",""
"","time_out","","html-keyboard-response","449","433074","0.0-1.0-683.0-0.0","0","0","78216","","null","","","null","75","","","","","","","","","","","","","","","",""
"","ITI","","html-keyboard-response","450","434077","0.0-1.0-684.0","0","0","78216","","104","","","68","75","","","","","","","","","","","","","","","d",""
"","S1","","html-keyboard-response","451","434329","0.0-1.0-686.0","0","0","78216","","null","","","null","76","","","","","","","","","","","","","","","",""
"","ISI","","html-keyboard-response","452","435332","0.0-1.0-687.0","0","0","78216","","99","","","68","76","d","","","","","","","","","","","","","","",""
"","S2","","html-keyboard-response","453","435565","0.0-1.0-688.0","0","0","78216","","231","","","75","76","","k","2","76","training","adjacent","CB","3","2","P.jpg","N.jpg","0","0","1","",""
"","feedback","","html-keyboard-response","454","436568","0.0-1.0-690.0-0.0","0","0","78216","","null","","","null","76","","","","","","","","","","","","","","","",""
"","ITI","","html-keyboard-response","455","437570","0.0-1.0-693.0","0","0","78216","","null","","","null","76","","","","","","","","","","","","","","","NaN",""
"","S1","","html-keyboard-response","456","437823","0.0-1.0-695.0","0","0","78216","","null","","","null","77","","","","","","","","","","","","","","","",""
"","ISI","","html-keyboard-response","457","438824","0.0-1.0-696.0","0","0","78216","","236","","","75","77","k","","","","","","","","","","","","","","",""
"","S2","","html-keyboard-response","458","438997","0.0-1.0-697.0","0","0","78216","","171","","","75","77","","k","2","77","training","adjacent","BA","2","1","N.jpg","L.jpg","0","0","1","",""
"","feedback","","html-keyboard-response","459","439999","0.0-1.0-699.0-0.0","0","0","78216","","null","","","null","77","","","","","","","","","","","","","","","",""
"","ITI","","html-keyboard-response","460","441001","0.0-1.0-702.0","0","0","78216","","277","","","75","77","","","","","","","","","","","","","","","k",""
"","S1","","html-keyboard-response","461","441254","0.0-1.0-704.0","0","0","78216","","null","","","null","78","","","","","","","","","","","","","","","",""
"","ISI","","html-keyboard-response","462","442256","0.0-1.0-705.0","0","0","78216","","124","","","68","78","d","","","","","","","","","","","","","","",""
"","S2","","html-keyboard-response","463","442484","0.0-1.0-706.0","0","0","78216","","227","","","75","78","","k","2","78","training","adjacent","ED","5","4","R.jpg","O.jpg","0","0","1","",""
"","feedback","","html-keyboard-response","464","443487","0.0-1.0-708.0-0.0","0","0","78216","","null","","","null","78","","","","","","","","","","","","","","","",""
"","ITI","","html-keyboard-response","465","444489","0.0-1.0-711.0","0","0","78216","","92","","","75","78","","","","","","","","","","","","","","","k",""
"","S1","","html-keyboard-response","466","444742","0.0-1.0-713.0","0","0","78216","","null","","","null","79","","","","","","","","","","","","","","","",""
"","ISI","","html-keyboard-response","467","445743","0.0-1.0-714.0","0","0","78216","","164","","","75","79","k","","","","","","","","","","","","","","",""
"","S2","","html-keyboard-response","468","445783","0.0-1.0-715.0","0","0","78216","","38","","","75","79","","k","2","79","training","adjacent","CD","3","4","P.jpg","O.jpg","0","1","0","",""
"","feedback","","html-keyboard-response","469","446786","0.0-1.0-717.0-0.0","0","0","78216","","null","","","null","79","","","","","","","","","","","","","","","",""
"","time_out","","html-keyboard-response","470","448788","0.0-1.0-719.0-0.0","0","0","78216","","null","","","null","79","","","","","","","","","","","","","","","",""
"","ITI","","html-keyboard-response","471","449791","0.0-1.0-720.0","0","0","78216","","238","","","75","79","","","","","","","","","","","","","","","k",""
"","S1","","html-keyboard-response","472","450044","0.0-1.0-722.0","0","0","78216","","null","","","null","80","","","","","","","","","","","","","","","",""
"","ISI","","html-keyboard-response","473","451047","0.0-1.0-723.0","0","0","78216","","111","","","75","80","k","","","","","","","","","","","","","","",""
"","S2","","html-keyboard-response","474","451136","0.0-1.0-724.0","0","0","78216","","88","","","75","80","","k","2","80","training","adjacent","BC","2","3","N.jpg","P.jpg","0","1","0","",""
"","feedback","","html-keyboard-response","475","452139","0.0-1.0-726.0-0.0","0","0","78216","","null","","","null","80","","","","","","","","","","","","","","","",""
"","time_out","","html-keyboard-response","476","454143","0.0-1.0-728.0-0.0","0","0","78216","","null","","","null","80","","","","","","","","","","","","","","","",""
"","ITI","","html-keyboard-response","477","455145","0.0-1.0-729.0","0","0","78216","","117","","","68","80","","","","","","","","","","","","","","","d",""
"","S1","","html-keyboard-response","478","455397","0.0-1.0-731.0","0","0","78216","","null","","","null","81","","","","","","","","","","","","","","","",""
"","ISI","","html-keyboard-response","479","456399","0.0-1.0-732.0","0","0","78216","","267","","","68","81","d","","","","","","","","","","","","","","",""
"","S2","","html-keyboard-response","480","456446","0.0-1.0-733.0","0","0","78216","","45","","","68","81","","d","2","81","training","adjacent","BC","2","3","N.jpg","P.jpg","1","1","1","",""
"","feedback","","html-keyboard-response","481","457448","0.0-1.0-735.0-0.0","0","0","78216","","null","","","null","81","","","","","","","","","","","","","","","",""
"","ITI","","html-keyboard-response","482","458451","0.0-1.0-738.0","0","0","78216","","145","","","68","81","","","","","","","","","","","","","","","d",""
"","S1","","html-keyboard-response","483","458704","0.0-1.0-740.0","0","0","78216","","null","","","null","82","","","","","","","","","","","","","","","",""
"","ISI","","html-keyboard-response","484","459706","0.0-1.0-741.0","0","0","78216","","369","","","68","82","d","","","","","","","","","","","","","","",""
"","S2","","html-keyboard-response","485","459876","0.0-1.0-742.0","0","0","78216","","168","","","75","82","","k","2","82","training","adjacent","FE","6","5","M.jpg","R.jpg","0","0","1","",""
"","feedback","","html-keyboard-response","486","460879","0.0-1.0-744.0-0.0","0","0","78216","","null","","","null","82","","","","","","","","","","","","","","","",""
"","ITI","","html-keyboard-response","487","461881","0.0-1.0-747.0","0","0","78216","","841","","","75","82","","","","","","","","","","","","","","","k",""
"","S1","","html-keyboard-response","488","462133","0.0-1.0-749.0","0","0","78216","","null","","","null","83","","","","","","","","","","","","","","","",""
"","ISI","","html-keyboard-response","489","463135","0.0-1.0-750.0","0","0","78216","","51","","","75","83","k","","","","","","","","","","","","","","",""
"","S2","","html-keyboard-response","490","463310","0.0-1.0-751.0","0","0","78216","","173","","","75","83","","k","2","83","training","adjacent","BA","2","1","N.jpg","L.jpg","0","0","1","",""
"","feedback","","html-keyboard-response","491","464312","0.0-1.0-753.0-0.0","0","0","78216","","null","","","null","83","","","","","","","","","","","","","","","",""
"","ITI","","html-keyboard-response","492","465315","0.0-1.0-756.0","0","0","78216","","112","","","75","83","","","","","","","","","","","","","","","k",""
"","S1","","html-keyboard-response","493","465567","0.0-1.0-758.0","0","0","78216","","null","","","null","84","","","","","","","","","","","","","","","",""
"","ISI","","html-keyboard-response","494","466570","0.0-1.0-759.0","0","0","78216","","345","","","75","84","k","","","","","","","","","","","","","","",""
"","S2","","html-keyboard-response","495","466619","0.0-1.0-760.0","0","0","78216","","49","","","75","84","","k","2","84","training","adjacent","DC","4","3","O.jpg","P.jpg","0","0","1","",""
"","feedback","","html-keyboard-response","496","467621","0.0-1.0-762.0-0.0","0","0","78216","","null","","","null","84","","","","","","","","","","","","","","","",""
"","ITI","","html-keyboard-response","497","468623","0.0-1.0-765.0","0","0","78216","","137","","","75","84","","","","","","","","","","","","","","","k",""
"","S1","","html-keyboard-response","498","468876","0.0-1.0-767.0","0","0","78216","","null","","","null","85","","","","","","","","","","","","","","","",""
"","ISI","","html-keyboard-response","499","469877","0.0-1.0-768.0","0","0","78216","","null","","","null","85","NaN","","","","","","","","","","","","","","",""
"","S2","","html-keyboard-response","500","470130","0.0-1.0-769.0","0","0","78216","","null","","","null","85","","NaN","","","","","","","","","","","","","",""
"","response","","html-keyboard-response","501","471565","0.0-1.0-770.0-0.0","0","0","78216","","1433","","","68","85","","","2","85","training","adjacent","GF","7","6","Q.jpg","M.jpg","1","0","0","",""
"","feedback","","html-keyboard-response","502","472567","0.0-1.0-771.0-0.0","0","0","78216","","null","","","null","85","","","","","","","","","","","","","","","",""
"","time_out","","html-keyboard-response","503","474569","0.0-1.0-773.0-0.0","0","0","78216","","null","","","null","85","","","","","","","","","","","","","","","",""
"","ITI","","html-keyboard-response","504","475571","0.0-1.0-774.0","0","0","78216","","64","","","75","85","","","","","","","","","","","","","","","k",""
"","S1","","html-keyboard-response","505","475824","0.0-1.0-776.0","0","0","78216","","null","","","null","86","","","","","","","","","","","","","","","",""
"","ISI","","html-keyboard-response","506","476825","0.0-1.0-777.0","0","0","78216","","184","","","68","86","d","","","","","","","","","","","","","","",""
"","S2","","html-keyboard-response","507","477077","0.0-1.0-778.0","0","0","78216","","null","","","null","86","","NaN","","","","","","","","","","","","","",""
"","response","","html-keyboard-response","508","477233","0.0-1.0-779.0-0.0","0","0","78216","","155","","","68","86","","","2","86","training","adjacent","GF","7","6","Q.jpg","M.jpg","1","0","0","",""
"","feedback","","html-keyboard-response","509","478237","0.0-1.0-780.0-0.0","0","0","78216","","null","","","null","86","","","","","","","","","","","","","","","",""
"","time_out","","html-keyboard-response","510","480239","0.0-1.0-782.0-0.0","0","0","78216","","null","","","null","86","","","","","","","","","","","","","","","",""
"","ITI","","html-keyboard-response","511","481241","0.0-1.0-783.0","0","0","78216","","83","","","75","86","","","","","","","","","","","","","","","k",""
"","S1","","html-keyboard-response","512","481495","0.0-1.0-785.0","0","0","78216","","null","","","null","87","","","","","","","","","","","","","","","",""
"","ISI","","html-keyboard-response","513","482498","0.0-1.0-786.0","0","0","78216","","185","","","75","87","k","","","","","","","","","","","","","","",""
"","S2","","html-keyboard-response","514","482751","0.0-1.0-787.0","0","0","78216","","null","","","null","87","","NaN","","","","","","","","","","","","","",""
"","response","","html-keyboard-response","515","482811","0.0-1.0-788.0-0.0","0","0","78216","","59","","","68","87","","","2","87","training","adjacent","DC","4","3","O.jpg","P.jpg","1","0","0","",""
"","feedback","","html-keyboard-response","516","483814","0.0-1.0-789.0-0.0","0","0","78216","","null","","","null","87","","","","","","","","","","","","","","","",""
"","time_out","","html-keyboard-response","517","485817","0.0-1.0-791.0-0.0","0","0","78216","","null","","","null","87","","","","","","","","","","","","","","","",""
"","ITI","","html-keyboard-response","518","486819","0.0-1.0-792.0","0","0","78216","","88","","","75","87","","","","","","","","","","","","","","","k",""
"","S1","","html-keyboard-response","519","487071","0.0-1.0-794.0","0","0","78216","","null","","","null","88","","","","","","","","","","","","","","","",""
"","ISI","","html-keyboard-response","520","488073","0.0-1.0-795.0","0","0","78216","","347","","","68","88","d","","","","","","","","","","","","","","",""
"","S2","","html-keyboard-response","521","488183","0.0-1.0-796.0","0","0","78216","","109","","","68","88","","d","2","88","training","adjacent","AB","1","2","L.jpg","N.jpg","1","1","1","",""
"","feedback","","html-keyboard-response","522","489186","0.0-1.0-798.0-0.0","0","0","78216","","null","","","null","88","","","","","","","","","","","","","","","",""
"","ITI","","html-keyboard-response","523","490188","0.0-1.0-801.0","0","0","78216","","null","","","null","88","","","","","","","","","","","","","","","NaN",""
"","S1","","html-keyboard-response","524","490441","0.0-1.0-803.0","0","0","78216","","null","","","null","89","","","","","","","","","","","","","","","",""
"","ISI","","html-keyboard-response","525","491443","0.0-1.0-804.0","0","0","78216","","202","","","75","89","k","","","","","","","","","","","","","","",""
"","S2","","html-keyboard-response","526","491595","0.0-1.0-805.0","0","0","78216","","151","","","75","89","","k","2","89","training","adjacent","FE","6","5","M.jpg","R.jpg","0","0","1","",""
"","feedback","","html-keyboard-response","527","492597","0.0-1.0-807.0-0.0","0","0","78216","","null","","","null","89","","","","","","","","","","","","","","","",""
"","ITI","","html-keyboard-response","528","493600","0.0-1.0-810.0","0","0","78216","","null","","","null","89","","","","","","","","","","","","","","","NaN",""
"","S1","","html-keyboard-response","529","493853","0.0-1.0-812.0","0","0","78216","","null","","","null","90","","","","","","","","","","","","","","","",""
"","ISI","","html-keyboard-response","530","494855","0.0-1.0-813.0","0","0","78216","","469","","","75","90","k","","","","","","","","","","","","","","",""
"","S2","","html-keyboard-response","531","495079","0.0-1.0-814.0","0","0","78216","","223","","","75","90","","k","2","90","training","adjacent","DE","4","5","O.jpg","R.jpg","0","1","0","",""
"","feedback","","html-keyboard-response","532","496097","0.0-1.0-816.0-0.0","0","0","78216","","null","","","null","90","","","","","","","","","","","","","","","",""
"","time_out","","html-keyboard-response","533","498101","0.0-1.0-818.0-0.0","0","0","78216","","null","","","null","90","","","","","","","","","","","","","","","",""
"","ITI","","html-keyboard-response","534","499104","0.0-1.0-819.0","0","0","78216","","null","","","null","90","","","","","","","","","","","","","","","NaN",""
"","S1","","html-keyboard-response","535","499357","0.0-1.0-821.0","0","0","78216","","null","","","null","91","","","","","","","","","","","","","","","",""
"","ISI","","html-keyboard-response","536","500359","0.0-1.0-822.0","0","0","78216","","null","","","null","91","NaN","","","","","","","","","","","","","","",""
"","S2","","html-keyboard-response","537","500611","0.0-1.0-823.0","0","0","78216","","null","","","null","91","","NaN","","","","","","","","","","","","","",""
"","response","","html-keyboard-response","538","500722","0.0-1.0-824.0-0.0","0","0","78216","","110","","","68","91","","","2","91","training","adjacent","CB","3","2","P.jpg","N.jpg","1","0","0","",""
"","feedback","","html-keyboard-response","539","501724","0.0-1.0-825.0-0.0","0","0","78216","","null","","","null","91","","","","","","","","","","","","","","","",""
"","time_out","","html-keyboard-response","540","503735","0.0-1.0-827.0-0.0","0","0","78216","","null","","","null","91","","","","","","","","","","","","","","","",""
"","ITI","","html-keyboard-response","541","504737","0.0-1.0-828.0","0","0","78216","","35","","","75","91","","","","","","","","","","","","","","","k",""
"","S1","","html-keyboard-response","542","504989","0.0-1.0-830.0","0","0","78216","","null","","","null","92","","","","","","","","","","","","","","","",""
"","ISI","","html-keyboard-response","543","505991","0.0-1.0-831.0","0","0","78216","","23","","","68","92","d","","","","","","","","","","","","","","",""
"","S2","","html-keyboard-response","544","506041","0.0-1.0-832.0","0","0","78216","","50","","","75","92","","k","2","92","training","adjacent","FE","6","5","M.jpg","R.jpg","0","0","1","",""
"","feedback","","html-keyboard-response","545","507044","0.0-1.0-834.0-0.0","0","0","78216","","null","","","null","92","","","","","","","","","","","","","","","",""
"","ITI","","html-keyboard-response","546","508047","0.0-1.0-837.0","0","0","78216","","8","","","75","92","","","","","","","","","","","","","","","k",""
"","S1","","html-keyboard-response","547","508299","0.0-1.0-839.0","0","0","78216","","null","","","null","93","","","","","","","","","","","","","","","",""
"","ISI","","html-keyboard-response","548","509301","0.0-1.0-840.0","0","0","78216","","15","","","68","93","d","","","","","","","","","","","","","","",""
"","S2","","html-keyboard-response","549","509413","0.0-1.0-841.0","0","0","78216","","111","","","75","93","","k","2","93","training","adjacent","AB","1","2","L.jpg","N.jpg","0","1","0","",""
"","feedback","","html-keyboard-response","550","510414","0.0-1.0-843.0-0.0","0","0","78216","","null","","","null","93","","","","","","","","","","","","","","","",""
"","time_out","","html-keyboard-response","551","512417","0.0-1.0-845.0-0.0","0","0","78216","","null","","","null","93","","","","","","","","","","","","","","","",""
"","ITI","","html-keyboard-response","552","513419","0.0-1.0-846.0","0","0","78216","","319","","","68","93","","","","","","","","","","","","","","","d",""
"","S1","","html-keyboard-response","553","513671","0.0-1.0-848.0","0","0","78216","","null","","","null","94","","","","","","","","","","","","","","","",""
"","ISI","","html-keyboard-response","554","514674","0.0-1.0-849.0","0","0","78216","","27","","","75","94","k","","","","","","","","","","","","","","",""
"","S2","","html-keyboard-response","555","514762","0.0-1.0-850.0","0","0","78216","","88","","","75","94","","k","2","94","training","adjacent","GF","7","6","Q.jpg","M.jpg","0","0","1","",""
"","feedback","","html-keyboard-response","556","515765","0.0-1.0-852.0-0.0","0","0","78216","","null","","","null","94","","","","","","","","","","","","","","","",""
"","ITI","","html-keyboard-response","557","516767","0.0-1.0-855.0","0","0","78216","","23","","","75","94","","","","","","","","","","","","","","","k",""
"","S1","","html-keyboard-response","558","517019","0.0-1.0-857.0","0","0","78216","","null","","","null","95","","","","","","","","","","","","","","","",""
"","ISI","","html-keyboard-response","559","518021","0.0-1.0-858.0","0","0","78216","","95","","","75","95","k","","","","","","","","","","","","","","",""
"","S2","","html-keyboard-response","560","518195","0.0-1.0-859.0","0","0","78216","","173","","","75","95","","k","2","95","training","adjacent","BA","2","1","N.jpg","L.jpg","0","0","1","",""
"","feedback","","html-keyboard-response","561","519197","0.0-1.0-861.0-0.0","0","0","78216","","null","","","null","95","","","","","","","","","","","","","","","",""
"","ITI","","html-keyboard-response","562","520200","0.0-1.0-864.0","0","0","78216","","101","","","75","95","","","","","","","","","","","","","","","k",""
"","block_over","","html-keyboard-response","563","521428","0.0-1.0-865.0-0.0","0","0","78216","","1227","","","32","95","","","","","","","","","","","","","","","",""
"","S1","","html-keyboard-response","564","521681","0.0-1.0-866.0","0","0","78216","","null","","","null","96","","","","","","","","","","","","","","","",""
"","ISI","","html-keyboard-response","565","522683","0.0-1.0-867.0","0","0","78216","","243","","","68","96","d","","","","","","","","","","","","","","",""
"","S2","","html-keyboard-response","566","522843","0.0-1.0-868.0","0","0","78216","","159","","","75","96","","k","3","96","training","adjacent","FE","6","5","M.jpg","R.jpg","0","0","1","",""
"","feedback","","html-keyboard-response","567","523845","0.0-1.0-870.0-0.0","0","0","78216","","null","","","null","96","","","","","","","","","","","","","","","",""
"","ITI","","html-keyboard-response","568","524847","0.0-1.0-873.0","0","0","78216","","8","","","32","96","","","","","","","","","","","","","","","space",""
"","S1","","html-keyboard-response","569","525101","0.0-1.0-875.0","0","0","78216","","null","","","null","97","","","","","","","","","","","","","","","",""
"","ISI","","html-keyboard-response","570","526103","0.0-1.0-876.0","0","0","78216","","92","","","75","97","k","","","","","","","","","","","","","","",""
"","S2","","html-keyboard-response","571","526163","0.0-1.0-877.0","0","0","78216","","59","","","75","97","","k","3","97","training","adjacent","FG","6","7","M.jpg","Q.jpg","0","1","0","",""
"","feedback","","html-keyboard-response","572","527167","0.0-1.0-879.0-0.0","0","0","78216","","null","","","null","97","","","","","","","","","","","","","","","",""
"","time_out","","html-keyboard-response","573","529168","0.0-1.0-881.0-0.0","0","0","78216","","null","","","null","97","","","","","","","","","","","","","","","",""
"","ITI","","html-keyboard-response","574","530171","0.0-1.0-882.0","0","0","78216","","28","","","75","97","","","","","","","","","","","","","","","k",""
"","S1","","html-keyboard-response","575","530423","0.0-1.0-884.0","0","0","78216","","null","","","null","98","","","","","","","","","","","","","","","",""
"","ISI","","html-keyboard-response","576","531425","0.0-1.0-885.0","0","0","78216","","83","","","75","98","k","","","","","","","","","","","","","","",""
"","S2","","html-keyboard-response","577","531433","0.0-1.0-886.0","0","0","78216","","5","","","75","98","","k","3","98","training","adjacent","FE","6","5","M.jpg","R.jpg","0","0","1","",""
"","feedback","","html-keyboard-response","578","532435","0.0-1.0-888.0-0.0","0","0","78216","","null","","","null","98","","","","","","","","","","","","","","","",""
"","ITI","","html-keyboard-response","579","533438","0.0-1.0-891.0","0","0","78216","","null","","","null","98","","","","","","","","","","","","","","","NaN",""
"","S1","","html-keyboard-response","580","533691","0.0-1.0-893.0","0","0","78216","","null","","","null","99","","","","","","","","","","","","","","","",""
"","ISI","","html-keyboard-response","581","534693","0.0-1.0-894.0","0","0","78216","","168","","","75","99","k","","","","","","","","","","","","","","",""
"","S2","","html-keyboard-response","582","534946","0.0-1.0-895.0","0","0","78216","","null","","","null","99","","NaN","","","","","","","","","","","","","",""
"","response","","html-keyboard-response","583","535313","0.0-1.0-896.0-0.0","0","0","78216","","366","","","75","99","","","3","99","training","adjacent","CB","3","2","P.jpg","N.jpg","0","0","1","",""
"","feedback","","html-keyboard-response","584","536316","0.0-1.0-897.0-0.0","0","0","78216","","null","","","null","99","","","","","","","","","","","","","","","",""
"","ITI","","html-keyboard-response","585","537319","0.0-1.0-900.0","0","0","78216","","116","","","75","99","","","","","","","","","","","","","","","k",""
"","S1","","html-keyboard-response","586","537571","0.0-1.0-902.0","0","0","78216","","null","","","null","100","","","","","","","","","","","","","","","",""
"","ISI","","html-keyboard-response","587","538573","0.0-1.0-903.0","0","0","78216","","301","","","75","100","k","","","","","","","","","","","","","","",""
"","S2","","html-keyboard-response","588","538826","0.0-1.0-904.0","0","0","78216","","null","","","null","100","","NaN","","","","","","","","","","","","","",""
