"success","ttype","start_time","trial_type","trial_index","time_elapsed","internal_node_id","warning","missed_checkup","PID","view_history","rt","responses","repeat_instructions","key_press","index","keypress_isi","keypress_S2","block","trial_num","phase","group_type","pair_type","S1_stim","S2_stim","S1_img","S2_img","S1_chosen","S1_higher","accuracy","keypress_iti","total_bonus_tally"
"true","full_screen","d03032023hr2347","fullscreen","0","10852","0.0-0.0","0","0","81354","","","","","","","","","","","","","","","","","","","","","",""
"","instructions","","instructions","1","72769","0.0-1.0-0.0-0.0","0","0","81354","[{""page_index"":0,""viewing_time"":22373},{""page_index"":1,""viewing_time"":18947},{""page_index"":2,""viewing_time"":17010},{""page_index"":3,""viewing_time"":3583}]","61914","","","","","","","","","","","","","","","","","","","",""
"","comprehension_check","","survey-multi-choice","2","123722","0.0-1.0-0.0-1.0","0","0","81354","","50948","{""Q0"":""True"",""Q1"":""D"",""Q2"":""Only when the screen 'MAKE A CHOICE' is shown"",""Q3"":""Red cross"",""Q4"":""either D or K""}","1","","","","","","","","","","","","","","","","","",""
"","missed_instruction_checkup","","html-keyboard-response","3","129515","0.0-1.0-0.0-2.0-0.0","0","1","81354","","5790","","","32","","","","","","","","","","","","","","","","",""
"","instructions","","instructions","4","176718","0.0-1.0-0.1-0.1","0","0","81354","[{""page_index"":0,""viewing_time"":6942},{""page_index"":1,""viewing_time"":26858},{""page_index"":2,""viewing_time"":11752},{""page_index"":3,""viewing_time"":1648}]","47201","","","","","","","","","","","","","","","","","","","",""
"","comprehension_check","","survey-multi-choice","5","220780","0.0-1.0-0.1-1.1","0","0","81354","","44057","{""Q0"":""True"",""Q1"":""D"",""Q2"":""Only when the screen 'MAKE A CHOICE' is shown"",""Q3"":""Green mark"",""Q4"":""either D or K""}","1","","","","","","","","","","","","","","","","","",""
"","missed_instruction_checkup","","html-keyboard-response","6","224887","0.0-1.0-0.1-2.1-0.1","0","1","81354","","4105","","","32","","","","","","","","","","","","","","","","",""
"","instructions","","instructions","7","253992","0.0-1.0-0.2-0.2","0","0","81354","[{""page_index"":0,""viewing_time"":5870},{""page_index"":1,""viewing_time"":17877},{""page_index"":2,""viewing_time"":3279},{""page_index"":3,""viewing_time"":2077}]","29104","","","","","","","","","","","","","","","","","","","",""
"","comprehension_check","","survey-multi-choice","8","283334","0.0-1.0-0.2-1.2","0","0","81354","","29338","{""Q0"":""True"",""Q1"":""D"",""Q2"":""Once the second image appears and while the screen 'MAKE A CHOICE' is shown"",""Q3"":""Green mark"",""Q4"":""either D or K""}","0","","","","","","","","","","","","","","","","","",""
"","start_exp","","html-keyboard-response","9","290783","0.0-1.0-1.0","0","0","81354","","7446","","","32","","","","","","","","","","","","","","","","",""
"","S1","","html-keyboard-response","10","291076","0.0-1.0-2.0","0","0","81354","","null","","","null","0","","","","","","","","","","","","","","","",""
"","ISI","","html-keyboard-response","11","291579","0.0-1.0-3.0","0","0","81354","","null","","","null","0","NaN","","","","","","","","","","","","","","",""
"","S2","","html-keyboard-response","12","291833","0.0-1.0-4.0","0","0","81354","","null","","","null","0","","NaN","","","","","","","","","","","","","",""
"","response","","html-keyboard-response","13","293603","0.0-1.0-5.0-0.0","0","0","81354","","null","","","null","0","","","1","0","training","adjacent","BC","2","3","N.jpg","P.jpg","NaN","1","0","",""
"","too_slow_prompt","","html-keyboard-response","14","294607","0.0-1.0-7.0-0.0","1","0","81354","","null","","","null","","","","","","","","","","","","","","","","",""
"","time_out","","html-keyboard-response","15","296613","0.0-1.0-8.0-0.0","0","0","81354","","null","","","null","0","","","","","","","","","","","","","","","",""
"","ITI","","html-keyboard-response","16","297623","0.0-1.0-9.0","0","0","81354","","null","","","null","0","","","","","","","","","","","","","","","NaN",""
"","S1","","html-keyboard-response","17","297895","0.0-1.0-11.0","0","0","81354","","null","","","null","1","","","","","","","","","","","","","","","",""
"","ISI","","html-keyboard-response","18","298409","0.0-1.0-12.0","0","0","81354","","null","","","null","1","NaN","","","","","","","","","","","","","","",""
"","S2","","html-keyboard-response","19","298663","0.0-1.0-13.0","0","0","81354","","null","","","null","1","","NaN","","","","","","","","","","","","","",""
"","response","","html-keyboard-response","20","299234","0.0-1.0-14.0-0.0","0","0","81354","","559","","","68","1","","","1","1","training","adjacent","CD","3","4","P.jpg","L.jpg","1","1","1","",""
"","feedback","","html-keyboard-response","21","300238","0.0-1.0-15.0-0.0","0","0","81354","","null","","","null","1","","","","","","","","","","","","","","","",""
"","ITI","","html-keyboard-response","22","301250","0.0-1.0-18.0","0","0","81354","","null","","","null","1","","","","","","","","","","","","","","","NaN",""
"","S1","","html-keyboard-response","23","301508","0.0-1.0-20.0","0","0","81354","","null","","","null","2","","","","","","","","","","","","","","","",""
"","ISI","","html-keyboard-response","24","302033","0.0-1.0-21.0","0","0","81354","","null","","","null","2","NaN","","","","","","","","","","","","","","",""
"","S2","","html-keyboard-response","25","302296","0.0-1.0-22.0","0","0","81354","","null","","","null","2","","NaN","","","","","","","","","","","","","",""
"","response","","html-keyboard-response","26","303142","0.0-1.0-23.0-0.0","0","0","81354","","843","","","75","2","","","1","2","training","adjacent","CD","3","4","P.jpg","L.jpg","0","1","0","",""
"","feedback","","html-keyboard-response","27","304153","0.0-1.0-24.0-0.0","0","0","81354","","null","","","null","2","","","","","","","","","","","","","","","",""
"","time_out","","html-keyboard-response","28","306232","0.0-1.0-26.0-0.0","0","0","81354","","null","","","null","2","","","","","","","","","","","","","","","",""
"","ITI","","html-keyboard-response","29","307238","0.0-1.0-27.0","0","0","81354","","null","","","null","2","","","","","","","","","","","","","","","NaN",""
"","S1","","html-keyboard-response","30","307498","0.0-1.0-29.0","0","0","81354","","null","","","null","3","","","","","","","","","","","","","","","",""
"","ISI","","html-keyboard-response","31","308004","0.0-1.0-30.0","0","0","81354","","null","","","null","3","NaN","","","","","","","","","","","","","","",""
"","S2","","html-keyboard-response","32","308077","0.0-1.0-31.0","0","0","81354","","72","","","68","3","","d","1","3","training","adjacent","ED","5","4","Q.jpg","L.jpg","1","0","0","",""
"","feedback","","html-keyboard-response","33","309087","0.0-1.0-33.0-0.0","0","0","81354","","null","","","null","3","","","","","","","","","","","","","","","",""
"","time_out","","html-keyboard-response","34","311095","0.0-1.0-35.0-0.0","0","0","81354","","null","","","null","3","","","","","","","","","","","","","","","",""
"","ITI","","html-keyboard-response","35","312136","0.0-1.0-36.0","0","0","81354","","null","","","null","3","","","","","","","","","","","","","","","NaN",""
"","S1","","html-keyboard-response","36","312402","0.0-1.0-38.0","0","0","81354","","null","","","null","4","","","","","","","","","","","","","","","",""
"","ISI","","html-keyboard-response","37","312907","0.0-1.0-39.0","0","0","81354","","null","","","null","4","NaN","","","","","","","","","","","","","","",""
"","S2","","html-keyboard-response","38","313164","0.0-1.0-40.0","0","0","81354","","null","","","null","4","","NaN","","","","","","","","","","","","","",""
"","response","","html-keyboard-response","39","313738","0.0-1.0-41.0-0.0","0","0","81354","","574","","","68","4","","","1","4","training","adjacent","DE","4","5","L.jpg","Q.jpg","1","1","1","",""
"","feedback","","html-keyboard-response","40","314762","0.0-1.0-42.0-0.0","0","0","81354","","null","","","null","4","","","","","","","","","","","","","","","",""
"","ITI","","html-keyboard-response","41","315765","0.0-1.0-45.0","0","0","81354","","null","","","null","4","","","","","","","","","","","","","","","NaN",""
"","S1","","html-keyboard-response","42","316025","0.0-1.0-47.0","0","0","81354","","null","","","null","5","","","","","","","","","","","","","","","",""
"","ISI","","html-keyboard-response","43","316531","0.0-1.0-48.0","0","0","81354","","null","","","null","5","NaN","","","","","","","","","","","","","","",""
"","S2","","html-keyboard-response","44","316785","0.0-1.0-49.0","0","0","81354","","null","","","null","5","","NaN","","","","","","","","","","","","","",""
"","response","","html-keyboard-response","45","317569","0.0-1.0-50.0-0.0","0","0","81354","","781","","","68","5","","","1","5","training","adjacent","DE","4","5","L.jpg","Q.jpg","1","1","1","",""
"","feedback","","html-keyboard-response","46","318575","0.0-1.0-51.0-0.0","0","0","81354","","null","","","null","5","","","","","","","","","","","","","","","",""
"","ITI","","html-keyboard-response","47","319584","0.0-1.0-54.0","0","0","81354","","null","","","null","5","","","","","","","","","","","","","","","NaN",""
"","S1","","html-keyboard-response","48","319987","0.0-1.0-56.0","0","0","81354","","null","","","null","6","","","","","","","","","","","","","","","",""
"","ISI","","html-keyboard-response","49","320491","0.0-1.0-57.0","0","0","81354","","null","","","null","6","NaN","","","","","","","","","","","","","","",""
"","S2","","html-keyboard-response","50","320771","0.0-1.0-58.0","0","0","81354","","null","","","null","6","","NaN","","","","","","","","","","","","","",""
"","response","","html-keyboard-response","51","321239","0.0-1.0-59.0-0.0","0","0","81354","","464","","","68","6","","","1","6","training","adjacent","CD","3","4","P.jpg","L.jpg","1","1","1","",""
"","feedback","","html-keyboard-response","52","322243","0.0-1.0-60.0-0.0","0","0","81354","","null","","","null","6","","","","","","","","","","","","","","","",""
"","ITI","","html-keyboard-response","53","323248","0.0-1.0-63.0","0","0","81354","","null","","","null","6","","","","","","","","","","","","","","","NaN",""
"","S1","","html-keyboard-response","54","323504","0.0-1.0-65.0","0","0","81354","","null","","","null","7","","","","","","","","","","","","","","","",""
"","ISI","","html-keyboard-response","55","324018","0.0-1.0-66.0","0","0","81354","","null","","","null","7","NaN","","","","","","","","","","","","","","",""
"","S2","","html-keyboard-response","56","324276","0.0-1.0-67.0","0","0","81354","","null","","","null","7","","NaN","","","","","","","","","","","","","",""
"","response","","html-keyboard-response","57","324978","0.0-1.0-68.0-0.0","0","0","81354","","699","","","68","7","","","1","7","training","adjacent","BA","2","1","N.jpg","R.jpg","1","0","0","",""
"","feedback","","html-keyboard-response","58","325996","0.0-1.0-69.0-0.0","0","0","81354","","null","","","null","7","","","","","","","","","","","","","","","",""
"","time_out","","html-keyboard-response","59","328021","0.0-1.0-71.0-0.0","0","0","81354","","null","","","null","7","","","","","","","","","","","","","","","",""
"","ITI","","html-keyboard-response","60","329022","0.0-1.0-72.0","0","0","81354","","null","","","null","7","","","","","","","","","","","","","","","NaN",""
"","S1","","html-keyboard-response","61","329279","0.0-1.0-74.0","0","0","81354","","null","","","null","8","","","","","","","","","","","","","","","",""
"","ISI","","html-keyboard-response","62","329782","0.0-1.0-75.0","0","0","81354","","null","","","null","8","NaN","","","","","","","","","","","","","","",""
"","S2","","html-keyboard-response","63","330060","0.0-1.0-76.0","0","0","81354","","null","","","null","8","","NaN","","","","","","","","","","","","","",""
"","response","","html-keyboard-response","64","330887","0.0-1.0-77.0-0.0","0","0","81354","","825","","","68","8","","","1","8","training","adjacent","DE","4","5","L.jpg","Q.jpg","1","1","1","",""
"","feedback","","html-keyboard-response","65","331892","0.0-1.0-78.0-0.0","0","0","81354","","null","","","null","8","","","","","","","","","","","","","","","",""
"","ITI","","html-keyboard-response","66","332948","0.0-1.0-81.0","0","0","81354","","null","","","null","8","","","","","","","","","","","","","","","NaN",""
"","S1","","html-keyboard-response","67","333208","0.0-1.0-83.0","0","0","81354","","null","","","null","9","","","","","","","","","","","","","","","",""
"","ISI","","html-keyboard-response","68","333717","0.0-1.0-84.0","0","0","81354","","null","","","null","9","NaN","","","","","","","","","","","","","","",""
"","S2","","html-keyboard-response","69","333976","0.0-1.0-85.0","0","0","81354","","null","","","null","9","","NaN","","","","","","","","","","","","","",""
"","response","","html-keyboard-response","70","334753","0.0-1.0-86.0-0.0","0","0","81354","","775","","","68","9","","","1","9","training","adjacent","DC","4","3","L.jpg","P.jpg","1","0","0","",""
"","feedback","","html-keyboard-response","71","335755","0.0-1.0-87.0-0.0","0","0","81354","","null","","","null","9","","","","","","","","","","","","","","","",""
"","time_out","","html-keyboard-response","72","337758","0.0-1.0-89.0-0.0","0","0","81354","","null","","","null","9","","","","","","","","","","","","","","","",""
"","ITI","","html-keyboard-response","73","338760","0.0-1.0-90.0","0","0","81354","","null","","","null","9","","","","","","","","","","","","","","","NaN",""
"","S1","","html-keyboard-response","74","339022","0.0-1.0-92.0","0","0","81354","","null","","","null","10","","","","","","","","","","","","","","","",""
"","ISI","","html-keyboard-response","75","339530","0.0-1.0-93.0","0","0","81354","","109","","","75","10","k","","","","","","","","","","","","","","",""
"","S2","","html-keyboard-response","76","339785","0.0-1.0-94.0","0","0","81354","","null","","","null","10","","NaN","","","","","","","","","","","","","",""
"","response","","html-keyboard-response","77","340774","0.0-1.0-95.0-0.0","0","0","81354","","986","","","75","10","","","1","10","training","adjacent","BC","2","3","N.jpg","P.jpg","0","1","0","",""
"","feedback","","html-keyboard-response","78","341779","0.0-1.0-96.0-0.0","0","0","81354","","null","","","null","10","","","","","","","","","","","","","","","",""
"","time_out","","html-keyboard-response","79","343783","0.0-1.0-98.0-0.0","0","0","81354","","null","","","null","10","","","","","","","","","","","","","","","",""
"","ITI","","html-keyboard-response","80","344807","0.0-1.0-99.0","0","0","81354","","null","","","null","10","","","","","","","","","","","","","","","NaN",""
"","S1","","html-keyboard-response","81","345062","0.0-1.0-101.0","0","0","81354","","null","","","null","11","","","","","","","","","","","","","","","",""
"","ISI","","html-keyboard-response","82","345566","0.0-1.0-102.0","0","0","81354","","null","","","null","11","NaN","","","","","","","","","","","","","","",""
"","S2","","html-keyboard-response","83","345827","0.0-1.0-103.0","0","0","81354","","null","","","null","11","","NaN","","","","","","","","","","","","","",""
"","response","","html-keyboard-response","84","346611","0.0-1.0-104.0-0.0","0","0","81354","","783","","","68","11","","","1","11","training","adjacent","FG","6","7","M.jpg","O.jpg","1","1","1","",""
"","feedback","","html-keyboard-response","85","347631","0.0-1.0-105.0-0.0","0","0","81354","","null","","","null","11","","","","","","","","","","","","","","","",""
"","ITI","","html-keyboard-response","86","348636","0.0-1.0-108.0","0","0","81354","","null","","","null","11","","","","","","","","","","","","","","","NaN",""
"","S1","","html-keyboard-response","87","348897","0.0-1.0-110.0","0","0","81354","","null","","","null","12","","","","","","","","","","","","","","","",""
"","ISI","","html-keyboard-response","88","349404","0.0-1.0-111.0","0","0","81354","","null","","","null","12","NaN","","","","","","","","","","","","","","",""
"","S2","","html-keyboard-response","89","349659","0.0-1.0-112.0","0","0","81354","","null","","","null","12","","NaN","","","","","","","","","","","","","",""
"","response","","html-keyboard-response","90","350487","0.0-1.0-113.0-0.0","0","0","81354","","827","","","68","12","","","1","12","training","adjacent","EF","5","6","Q.jpg","M.jpg","1","1","1","",""
"","feedback","","html-keyboard-response","91","351491","0.0-1.0-114.0-0.0","0","0","81354","","null","","","null","12","","","","","","","","","","","","","","","",""
"","ITI","","html-keyboard-response","92","352496","0.0-1.0-117.0","0","0","81354","","null","","","null","12","","","","","","","","","","","","","","","NaN",""
"","S1","","html-keyboard-response","93","352760","0.0-1.0-119.0","0","0","81354","","null","","","null","13","","","","","","","","","","","","","","","",""
"","ISI","","html-keyboard-response","94","353265","0.0-1.0-120.0","0","0","81354","","null","","","null","13","NaN","","","","","","","","","","","","","","",""
"","S2","","html-keyboard-response","95","353520","0.0-1.0-121.0","0","0","81354","","null","","","null","13","","NaN","","","","","","","","","","","","","",""
"","response","","html-keyboard-response","96","354338","0.0-1.0-122.0-0.0","0","0","81354","","816","","","68","13","","","1","13","training","adjacent","AB","1","2","R.jpg","N.jpg","1","1","1","",""
"","feedback","","html-keyboard-response","97","355346","0.0-1.0-123.0-0.0","0","0","81354","","null","","","null","13","","","","","","","","","","","","","","","",""
"","ITI","","html-keyboard-response","98","356360","0.0-1.0-126.0","0","0","81354","","null","","","null","13","","","","","","","","","","","","","","","NaN",""
"","S1","","html-keyboard-response","99","356620","0.0-1.0-128.0","0","0","81354","","null","","","null","14","","","","","","","","","","","","","","","",""
"","ISI","","html-keyboard-response","100","357155","0.0-1.0-129.0","0","0","81354","","null","","","null","14","NaN","","","","","","","","","","","","","","",""
"","S2","","html-keyboard-response","101","357406","0.0-1.0-130.0","0","0","81354","","null","","","null","14","","NaN","","","","","","","","","","","","","",""
"","response","","html-keyboard-response","102","357927","0.0-1.0-131.0-0.0","0","0","81354","","519","","","68","14","","","1","14","training","adjacent","DE","4","5","L.jpg","Q.jpg","1","1","1","",""
"","feedback","","html-keyboard-response","103","358933","0.0-1.0-132.0-0.0","0","0","81354","","null","","","null","14","","","","","","","","","","","","","","","",""
"","ITI","","html-keyboard-response","104","359939","0.0-1.0-135.0","0","0","81354","","null","","","null","14","","","","","","","","","","","","","","","NaN",""
"","S1","","html-keyboard-response","105","360194","0.0-1.0-137.0","0","0","81354","","null","","","null","15","","","","","","","","","","","","","","","",""
"","ISI","","html-keyboard-response","106","360721","0.0-1.0-138.0","0","0","81354","","null","","","null","15","NaN","","","","","","","","","","","","","","",""
"","S2","","html-keyboard-response","107","360977","0.0-1.0-139.0","0","0","81354","","null","","","null","15","","NaN","","","","","","","","","","","","","",""
"","response","","html-keyboard-response","108","361812","0.0-1.0-140.0-0.0","0","0","81354","","833","","","68","15","","","1","15","training","adjacent","GF","7","6","O.jpg","M.jpg","1","0","0","",""
"","feedback","","html-keyboard-response","109","362835","0.0-1.0-141.0-0.0","0","0","81354","","null","","","null","15","","","","","","","","","","","","","","","",""
"","time_out","","html-keyboard-response","110","364836","0.0-1.0-143.0-0.0","0","0","81354","","null","","","null","15","","","","","","","","","","","","","","","",""
"","ITI","","html-keyboard-response","111","365837","0.0-1.0-144.0","0","0","81354","","null","","","null","15","","","","","","","","","","","","","","","NaN",""
"","S1","","html-keyboard-response","112","366099","0.0-1.0-146.0","0","0","81354","","null","","","null","16","","","","","","","","","","","","","","","",""
"","ISI","","html-keyboard-response","113","366607","0.0-1.0-147.0","0","0","81354","","null","","","null","16","NaN","","","","","","","","","","","","","","",""
"","S2","","html-keyboard-response","114","366886","0.0-1.0-148.0","0","0","81354","","null","","","null","16","","NaN","","","","","","","","","","","","","",""
"","response","","html-keyboard-response","115","367859","0.0-1.0-149.0-0.0","0","0","81354","","970","","","68","16","","","1","16","training","adjacent","CB","3","2","P.jpg","N.jpg","1","0","0","",""
"","feedback","","html-keyboard-response","116","368870","0.0-1.0-150.0-0.0","0","0","81354","","null","","","null","16","","","","","","","","","","","","","","","",""
"","time_out","","html-keyboard-response","117","370876","0.0-1.0-152.0-0.0","0","0","81354","","null","","","null","16","","","","","","","","","","","","","","","",""
"","ITI","","html-keyboard-response","118","371879","0.0-1.0-153.0","0","0","81354","","null","","","null","16","","","","","","","","","","","","","","","NaN",""
"","S1","","html-keyboard-response","119","372157","0.0-1.0-155.0","0","0","81354","","null","","","null","17","","","","","","","","","","","","","","","",""
"","ISI","","html-keyboard-response","120","372667","0.0-1.0-156.0","0","0","81354","","null","","","null","17","NaN","","","","","","","","","","","","","","",""
"","S2","","html-keyboard-response","121","372925","0.0-1.0-157.0","0","0","81354","","null","","","null","17","","NaN","","","","","","","","","","","","","",""
"","response","","html-keyboard-response","122","373634","0.0-1.0-158.0-0.0","0","0","81354","","706","","","68","17","","","1","17","training","adjacent","EF","5","6","Q.jpg","M.jpg","1","1","1","",""
"","feedback","","html-keyboard-response","123","374637","0.0-1.0-159.0-0.0","0","0","81354","","null","","","null","17","","","","","","","","","","","","","","","",""
"","ITI","","html-keyboard-response","124","375640","0.0-1.0-162.0","0","0","81354","","null","","","null","17","","","","","","","","","","","","","","","NaN",""
"","S1","","html-keyboard-response","125","375897","0.0-1.0-164.0","0","0","81354","","null","","","null","18","","","","","","","","","","","","","","","",""
"","ISI","","html-keyboard-response","126","376406","0.0-1.0-165.0","0","0","81354","","null","","","null","18","NaN","","","","","","","","","","","","","","",""
"","S2","","html-keyboard-response","127","376659","0.0-1.0-166.0","0","0","81354","","null","","","null","18","","NaN","","","","","","","","","","","","","",""
"","response","","html-keyboard-response","128","377457","0.0-1.0-167.0-0.0","0","0","81354","","796","","","68","18","","","1","18","training","adjacent","FE","6","5","M.jpg","Q.jpg","1","0","0","",""
"","feedback","","html-keyboard-response","129","378459","0.0-1.0-168.0-0.0","0","0","81354","","null","","","null","18","","","","","","","","","","","","","","","",""
"","time_out","","html-keyboard-response","130","380465","0.0-1.0-170.0-0.0","0","0","81354","","null","","","null","18","","","","","","","","","","","","","","","",""
"","ITI","","html-keyboard-response","131","381467","0.0-1.0-171.0","0","0","81354","","null","","","null","18","","","","","","","","","","","","","","","NaN",""
"","S1","","html-keyboard-response","132","381723","0.0-1.0-173.0","0","0","81354","","null","","","null","19","","","","","","","","","","","","","","","",""
"","ISI","","html-keyboard-response","133","382234","0.0-1.0-174.0","0","0","81354","","null","","","null","19","NaN","","","","","","","","","","","","","","",""
"","S2","","html-keyboard-response","134","382490","0.0-1.0-175.0","0","0","81354","","null","","","null","19","","NaN","","","","","","","","","","","","","",""
"","response","","html-keyboard-response","135","383315","0.0-1.0-176.0-0.0","0","0","81354","","823","","","68","19","","","1","19","training","adjacent","BC","2","3","N.jpg","P.jpg","1","1","1","",""
"","feedback","","html-keyboard-response","136","384320","0.0-1.0-177.0-0.0","0","0","81354","","null","","","null","19","","","","","","","","","","","","","","","",""
"","ITI","","html-keyboard-response","137","385326","0.0-1.0-180.0","0","0","81354","","null","","","null","19","","","","","","","","","","","","","","","NaN",""
"","S1","","html-keyboard-response","138","385581","0.0-1.0-182.0","0","0","81354","","null","","","null","20","","","","","","","","","","","","","","","",""
"","ISI","","html-keyboard-response","139","386082","0.0-1.0-183.0","0","0","81354","","null","","","null","20","NaN","","","","","","","","","","","","","","",""
"","S2","","html-keyboard-response","140","386355","0.0-1.0-184.0","0","0","81354","","null","","","null","20","","NaN","","","","","","","","","","","","","",""
"","response","","html-keyboard-response","141","387222","0.0-1.0-185.0-0.0","0","0","81354","","866","","","75","20","","","1","20","training","adjacent","CB","3","2","P.jpg","N.jpg","0","0","1","",""
"","feedback","","html-keyboard-response","142","388246","0.0-1.0-186.0-0.0","0","0","81354","","null","","","null","20","","","","","","","","","","","","","","","",""
"","ITI","","html-keyboard-response","143","389255","0.0-1.0-189.0","0","0","81354","","null","","","null","20","","","","","","","","","","","","","","","NaN",""
"","S1","","html-keyboard-response","144","389509","0.0-1.0-191.0","0","0","81354","","null","","","null","21","","","","","","","","","","","","","","","",""
"","ISI","","html-keyboard-response","145","390095","0.0-1.0-192.0","0","0","81354","","null","","","null","21","NaN","","","","","","","","","","","","","","",""
"","S2","","html-keyboard-response","146","390349","0.0-1.0-193.0","0","0","81354","","null","","","null","21","","NaN","","","","","","","","","","","","","",""
"","response","","html-keyboard-response","147","391198","0.0-1.0-194.0-0.0","0","0","81354","","847","","","68","21","","","1","21","training","adjacent","BA","2","1","N.jpg","R.jpg","1","0","0","",""
"","feedback","","html-keyboard-response","148","392210","0.0-1.0-195.0-0.0","0","0","81354","","null","","","null","21","","","","","","","","","","","","","","","",""
"","time_out","","html-keyboard-response","149","394216","0.0-1.0-197.0-0.0","0","0","81354","","null","","","null","21","","","","","","","","","","","","","","","",""
"","ITI","","html-keyboard-response","150","395226","0.0-1.0-198.0","0","0","81354","","null","","","null","21","","","","","","","","","","","","","","","NaN",""
"","S1","","html-keyboard-response","151","395485","0.0-1.0-200.0","0","0","81354","","null","","","null","22","","","","","","","","","","","","","","","",""
"","ISI","","html-keyboard-response","152","395989","0.0-1.0-201.0","0","0","81354","","null","","","null","22","NaN","","","","","","","","","","","","","","",""
"","S2","","html-keyboard-response","153","396280","0.0-1.0-202.0","0","0","81354","","null","","","null","22","","NaN","","","","","","","","","","","","","",""
"","response","","html-keyboard-response","154","396671","0.0-1.0-203.0-0.0","0","0","81354","","388","","","68","22","","","1","22","training","adjacent","GF","7","6","O.jpg","M.jpg","1","0","0","",""
"","feedback","","html-keyboard-response","155","397673","0.0-1.0-204.0-0.0","0","0","81354","","null","","","null","22","","","","","","","","","","","","","","","",""
"","time_out","","html-keyboard-response","156","399681","0.0-1.0-206.0-0.0","0","0","81354","","null","","","null","22","","","","","","","","","","","","","","","",""
"","ITI","","html-keyboard-response","157","400688","0.0-1.0-207.0","0","0","81354","","null","","","null","22","","","","","","","","","","","","","","","NaN",""
"","S1","","html-keyboard-response","158","400958","0.0-1.0-209.0","0","0","81354","","null","","","null","23","","","","","","","","","","","","","","","",""
"","ISI","","html-keyboard-response","159","401466","0.0-1.0-210.0","0","0","81354","","null","","","null","23","NaN","","","","","","","","","","","","","","",""
"","S2","","html-keyboard-response","160","401723","0.0-1.0-211.0","0","0","81354","","null","","","null","23","","NaN","","","","","","","","","","","","","",""
"","response","","html-keyboard-response","161","402273","0.0-1.0-212.0-0.0","0","0","81354","","548","","","75","23","","","1","23","training","adjacent","GF","7","6","O.jpg","M.jpg","0","0","1","",""
"","feedback","","html-keyboard-response","162","403283","0.0-1.0-213.0-0.0","0","0","81354","","null","","","null","23","","","","","","","","","","","","","","","",""
"","ITI","","html-keyboard-response","163","404290","0.0-1.0-216.0","0","0","81354","","null","","","null","23","","","","","","","","","","","","","","","NaN",""
"","S1","","html-keyboard-response","164","404547","0.0-1.0-218.0","0","0","81354","","null","","","null","24","","","","","","","","","","","","","","","",""
"","ISI","","html-keyboard-response","165","405078","0.0-1.0-219.0","0","0","81354","","null","","","null","24","NaN","","","","","","","","","","","","","","",""
"","S2","","html-keyboard-response","166","405337","0.0-1.0-220.0","0","0","81354","","null","","","null","24","","NaN","","","","","","","","","","","","","",""
"","response","","html-keyboard-response","167","405904","0.0-1.0-221.0-0.0","0","0","81354","","564","","","75","24","","","1","24","training","adjacent","AB","1","2","R.jpg","N.jpg","0","1","0","",""
"","feedback","","html-keyboard-response","168","406991","0.0-1.0-222.0-0.0","0","0","81354","","null","","","null","24","","","","","","","","","","","","","","","",""
"","time_out","","html-keyboard-response","169","409028","0.0-1.0-224.0-0.0","0","0","81354","","null","","","null","24","","","","","","","","","","","","","","","",""
"","ITI","","html-keyboard-response","170","410032","0.0-1.0-225.0","0","0","81354","","null","","","null","24","","","","","","","","","","","","","","","NaN",""
"","S1","","html-keyboard-response","171","410286","0.0-1.0-227.0","0","0","81354","","null","","","null","25","","","","","","","","","","","","","","","",""
"","ISI","","html-keyboard-response","172","410902","0.0-1.0-228.0","0","0","81354","","null","","","null","25","NaN","","","","","","","","","","","","","","",""
"","S2","","html-keyboard-response","173","411172","0.0-1.0-229.0","0","0","81354","","null","","","null","25","","NaN","","","","","","","","","","","","","",""
"","response","","html-keyboard-response","174","412186","0.0-1.0-230.0-0.0","0","0","81354","","1011","","","68","25","","","1","25","training","adjacent","BC","2","3","N.jpg","P.jpg","1","1","1","",""
"","feedback","","html-keyboard-response","175","413194","0.0-1.0-231.0-0.0","0","0","81354","","null","","","null","25","","","","","","","","","","","","","","","",""
"","ITI","","html-keyboard-response","176","414204","0.0-1.0-234.0","0","0","81354","","null","","","null","25","","","","","","","","","","","","","","","NaN",""
"","S1","","html-keyboard-response","177","414465","0.0-1.0-236.0","0","0","81354","","null","","","null","26","","","","","","","","","","","","","","","",""
"","ISI","","html-keyboard-response","178","414977","0.0-1.0-237.0","0","0","81354","","null","","","null","26","NaN","","","","","","","","","","","","","","",""
"","S2","","html-keyboard-response","179","415233","0.0-1.0-238.0","0","0","81354","","null","","","null","26","","NaN","","","","","","","","","","","","","",""
"","response","","html-keyboard-response","180","415999","0.0-1.0-239.0-0.0","0","0","81354","","765","","","68","26","","","1","26","training","adjacent","ED","5","4","Q.jpg","L.jpg","1","0","0","",""
"","feedback","","html-keyboard-response","181","417026","0.0-1.0-240.0-0.0","0","0","81354","","null","","","null","26","","","","","","","","","","","","","","","",""
"","time_out","","html-keyboard-response","182","419028","0.0-1.0-242.0-0.0","0","0","81354","","null","","","null","26","","","","","","","","","","","","","","","",""
"","ITI","","html-keyboard-response","183","420032","0.0-1.0-243.0","0","0","81354","","null","","","null","26","","","","","","","","","","","","","","","NaN",""
"","S1","","html-keyboard-response","184","420288","0.0-1.0-245.0","0","0","81354","","null","","","null","27","","","","","","","","","","","","","","","",""
"","ISI","","html-keyboard-response","185","420796","0.0-1.0-246.0","0","0","81354","","null","","","null","27","NaN","","","","","","","","","","","","","","",""
"","S2","","html-keyboard-response","186","421054","0.0-1.0-247.0","0","0","81354","","null","","","null","27","","NaN","","","","","","","","","","","","","",""
"","response","","html-keyboard-response","187","421554","0.0-1.0-248.0-0.0","0","0","81354","","499","","","68","27","","","1","27","training","adjacent","BA","2","1","N.jpg","R.jpg","1","0","0","",""
"","feedback","","html-keyboard-response","188","422599","0.0-1.0-249.0-0.0","0","0","81354","","null","","","null","27","","","","","","","","","","","","","","","",""
"","time_out","","html-keyboard-response","189","424604","0.0-1.0-251.0-0.0","0","0","81354","","null","","","null","27","","","","","","","","","","","","","","","",""
"","ITI","","html-keyboard-response","190","425614","0.0-1.0-252.0","0","0","81354","","null","","","null","27","","","","","","","","","","","","","","","NaN",""
"","S1","","html-keyboard-response","191","425869","0.0-1.0-254.0","0","0","81354","","null","","","null","28","","","","","","","","","","","","","","","",""
"","ISI","","html-keyboard-response","192","426373","0.0-1.0-255.0","0","0","81354","","null","","","null","28","NaN","","","","","","","","","","","","","","",""
"","S2","","html-keyboard-response","193","426630","0.0-1.0-256.0","0","0","81354","","null","","","null","28","","NaN","","","","","","","","","","","","","",""
"","response","","html-keyboard-response","194","427138","0.0-1.0-257.0-0.0","0","0","81354","","506","","","75","28","","","1","28","training","adjacent","AB","1","2","R.jpg","N.jpg","0","1","0","",""
"","feedback","","html-keyboard-response","195","428144","0.0-1.0-258.0-0.0","0","0","81354","","null","","","null","28","","","","","","","","","","","","","","","",""
"","time_out","","html-keyboard-response","196","430148","0.0-1.0-260.0-0.0","0","0","81354","","null","","","null","28","","","","","","","","","","","","","","","",""
"","ITI","","html-keyboard-response","197","431152","0.0-1.0-261.0","0","0","81354","","null","","","null","28","","","","","","","","","","","","","","","NaN",""
"","S1","","html-keyboard-response","198","431405","0.0-1.0-263.0","0","0","81354","","null","","","null","29","","","","","","","","","","","","","","","",""
"","ISI","","html-keyboard-response","199","431930","0.0-1.0-264.0","0","0","81354","","null","","","null","29","NaN","","","","","","","","","","","","","","",""
"","S2","","html-keyboard-response","200","432186","0.0-1.0-265.0","0","0","81354","","null","","","null","29","","NaN","","","","","","","","","","","","","",""
"","response","","html-keyboard-response","201","432943","0.0-1.0-266.0-0.0","0","0","81354","","756","","","68","29","","","1","29","training","adjacent","CB","3","2","P.jpg","N.jpg","1","0","0","",""
"","feedback","","html-keyboard-response","202","433954","0.0-1.0-267.0-0.0","0","0","81354","","null","","","null","29","","","","","","","","","","","","","","","",""
"","time_out","","html-keyboard-response","203","435957","0.0-1.0-269.0-0.0","0","0","81354","","null","","","null","29","","","","","","","","","","","","","","","",""
"","ITI","","html-keyboard-response","204","436967","0.0-1.0-270.0","0","0","81354","","null","","","null","29","","","","","","","","","","","","","","","NaN",""
"","S1","","html-keyboard-response","205","437226","0.0-1.0-272.0","0","0","81354","","null","","","null","30","","","","","","","","","","","","","","","",""
"","ISI","","html-keyboard-response","206","437737","0.0-1.0-273.0","0","0","81354","","null","","","null","30","NaN","","","","","","","","","","","","","","",""
"","S2","","html-keyboard-response","207","438025","0.0-1.0-274.0","0","0","81354","","null","","","null","30","","NaN","","","","","","","","","","","","","",""
"","response","","html-keyboard-response","208","439097","0.0-1.0-275.0-0.0","0","0","81354","","1068","","","68","30","","","1","30","training","adjacent","CB","3","2","P.jpg","N.jpg","1","0","0","",""
"","feedback","","html-keyboard-response","209","440101","0.0-1.0-276.0-0.0","0","0","81354","","null","","","null","30","","","","","","","","","","","","","","","",""
"","time_out","","html-keyboard-response","210","442115","0.0-1.0-278.0-0.0","0","0","81354","","null","","","null","30","","","","","","","","","","","","","","","",""
"","ITI","","html-keyboard-response","211","443171","0.0-1.0-279.0","0","0","81354","","null","","","null","30","","","","","","","","","","","","","","","NaN",""
"","S1","","html-keyboard-response","212","443428","0.0-1.0-281.0","0","0","81354","","null","","","null","31","","","","","","","","","","","","","","","",""
"","ISI","","html-keyboard-response","213","443936","0.0-1.0-282.0","0","0","81354","","null","","","null","31","NaN","","","","","","","","","","","","","","",""
"","S2","","html-keyboard-response","214","444189","0.0-1.0-283.0","0","0","81354","","null","","","null","31","","NaN","","","","","","","","","","","","","",""
"","response","","html-keyboard-response","215","445262","0.0-1.0-284.0-0.0","0","0","81354","","1067","","","75","31","","","1","31","training","adjacent","FE","6","5","M.jpg","Q.jpg","0","0","1","",""
"","feedback","","html-keyboard-response","216","446264","0.0-1.0-285.0-0.0","0","0","81354","","null","","","null","31","","","","","","","","","","","","","","","",""
"","ITI","","html-keyboard-response","217","447269","0.0-1.0-288.0","0","0","81354","","null","","","null","31","","","","","","","","","","","","","","","NaN",""
"","S1","","html-keyboard-response","218","447526","0.0-1.0-290.0","0","0","81354","","null","","","null","32","","","","","","","","","","","","","","","",""
"","ISI","","html-keyboard-response","219","448032","0.0-1.0-291.0","0","0","81354","","null","","","null","32","NaN","","","","","","","","","","","","","","",""
"","S2","","html-keyboard-response","220","448287","0.0-1.0-292.0","0","0","81354","","null","","","null","32","","NaN","","","","","","","","","","","","","",""
"","response","","html-keyboard-response","221","449060","0.0-1.0-293.0-0.0","0","0","81354","","771","","","75","32","","","1","32","training","adjacent","ED","5","4","Q.jpg","L.jpg","0","0","1","",""
"","feedback","","html-keyboard-response","222","450067","0.0-1.0-294.0-0.0","0","0","81354","","null","","","null","32","","","","","","","","","","","","","","","",""
"","ITI","","html-keyboard-response","223","451070","0.0-1.0-297.0","0","0","81354","","null","","","null","32","","","","","","","","","","","","","","","NaN",""
"","S1","","html-keyboard-response","224","451448","0.0-1.0-299.0","0","0","81354","","null","","","null","33","","","","","","","","","","","","","","","",""
"","ISI","","html-keyboard-response","225","451963","0.0-1.0-300.0","0","0","81354","","null","","","null","33","NaN","","","","","","","","","","","","","","",""
"","S2","","html-keyboard-response","226","452220","0.0-1.0-301.0","0","0","81354","","null","","","null","33","","NaN","","","","","","","","","","","","","",""
"","response","","html-keyboard-response","227","452789","0.0-1.0-302.0-0.0","0","0","81354","","568","","","75","33","","","1","33","training","adjacent","FG","6","7","M.jpg","O.jpg","0","1","0","",""
"","feedback","","html-keyboard-response","228","453850","0.0-1.0-303.0-0.0","0","0","81354","","null","","","null","33","","","","","","","","","","","","","","","",""
"","time_out","","html-keyboard-response","229","455854","0.0-1.0-305.0-0.0","0","0","81354","","null","","","null","33","","","","","","","","","","","","","","","",""
"","ITI","","html-keyboard-response","230","456860","0.0-1.0-306.0","0","0","81354","","null","","","null","33","","","","","","","","","","","","","","","NaN",""
"","S1","","html-keyboard-response","231","457116","0.0-1.0-308.0","0","0","81354","","null","","","null","34","","","","","","","","","","","","","","","",""
"","ISI","","html-keyboard-response","232","457649","0.0-1.0-309.0","0","0","81354","","null","","","null","34","NaN","","","","","","","","","","","","","","",""
"","S2","","html-keyboard-response","233","457915","0.0-1.0-310.0","0","0","81354","","null","","","null","34","","NaN","","","","","","","","","","","","","",""
"","response","","html-keyboard-response","234","458743","0.0-1.0-311.0-0.0","0","0","81354","","825","","","68","34","","","1","34","training","adjacent","BA","2","1","N.jpg","R.jpg","1","0","0","",""
"","feedback","","html-keyboard-response","235","459753","0.0-1.0-312.0-0.0","0","0","81354","","null","","","null","34","","","","","","","","","","","","","","","",""
"","time_out","","html-keyboard-response","236","461766","0.0-1.0-314.0-0.0","0","0","81354","","null","","","null","34","","","","","","","","","","","","","","","",""
"","ITI","","html-keyboard-response","237","462774","0.0-1.0-315.0","0","0","81354","","null","","","null","34","","","","","","","","","","","","","","","NaN",""
"","S1","","html-keyboard-response","238","463029","0.0-1.0-317.0","0","0","81354","","null","","","null","35","","","","","","","","","","","","","","","",""
"","ISI","","html-keyboard-response","239","463540","0.0-1.0-318.0","0","0","81354","","null","","","null","35","NaN","","","","","","","","","","","","","","",""
"","S2","","html-keyboard-response","240","463796","0.0-1.0-319.0","0","0","81354","","null","","","null","35","","NaN","","","","","","","","","","","","","",""
"","response","","html-keyboard-response","241","464267","0.0-1.0-320.0-0.0","0","0","81354","","469","","","75","35","","","1","35","training","adjacent","FE","6","5","M.jpg","Q.jpg","0","0","1","",""
"","feedback","","html-keyboard-response","242","465274","0.0-1.0-321.0-0.0","0","0","81354","","null","","","null","35","","","","","","","","","","","","","","","",""
"","ITI","","html-keyboard-response","243","466279","0.0-1.0-324.0","0","0","81354","","null","","","null","35","","","","","","","","","","","","","","","NaN",""
"","S1","","html-keyboard-response","244","466536","0.0-1.0-326.0","0","0","81354","","null","","","null","36","","","","","","","","","","","","","","","",""
"","ISI","","html-keyboard-response","245","467043","0.0-1.0-327.0","0","0","81354","","null","","","null","36","NaN","","","","","","","","","","","","","","",""
"","S2","","html-keyboard-response","246","467301","0.0-1.0-328.0","0","0","81354","","null","","","null","36","","NaN","","","","","","","","","","","","","",""
"","response","","html-keyboard-response","247","468050","0.0-1.0-329.0-0.0","0","0","81354","","748","","","75","36","","","1","36","training","adjacent","GF","7","6","O.jpg","M.jpg","0","0","1","",""
"","feedback","","html-keyboard-response","248","469059","0.0-1.0-330.0-0.0","0","0","81354","","null","","","null","36","","","","","","","","","","","","","","","",""
"","ITI","","html-keyboard-response","249","470073","0.0-1.0-333.0","0","0","81354","","null","","","null","36","","","","","","","","","","","","","","","NaN",""
"","S1","","html-keyboard-response","250","470329","0.0-1.0-335.0","0","0","81354","","null","","","null","37","","","","","","","","","","","","","","","",""
"","ISI","","html-keyboard-response","251","470835","0.0-1.0-336.0","0","0","81354","","null","","","null","37","NaN","","","","","","","","","","","","","","",""
"","S2","","html-keyboard-response","252","471091","0.0-1.0-337.0","0","0","81354","","null","","","null","37","","NaN","","","","","","","","","","","","","",""
"","response","","html-keyboard-response","253","471935","0.0-1.0-338.0-0.0","0","0","81354","","842","","","75","37","","","1","37","training","adjacent","AB","1","2","R.jpg","N.jpg","0","1","0","",""
"","feedback","","html-keyboard-response","254","472939","0.0-1.0-339.0-0.0","0","0","81354","","null","","","null","37","","","","","","","","","","","","","","","",""
"","time_out","","html-keyboard-response","255","474944","0.0-1.0-341.0-0.0","0","0","81354","","null","","","null","37","","","","","","","","","","","","","","","",""
"","ITI","","html-keyboard-response","256","476074","0.0-1.0-342.0","0","0","81354","","null","","","null","37","","","","","","","","","","","","","","","NaN",""
"","S1","","html-keyboard-response","257","476332","0.0-1.0-344.0","0","0","81354","","null","","","null","38","","","","","","","","","","","","","","","",""
"","ISI","","html-keyboard-response","258","476840","0.0-1.0-345.0","0","0","81354","","null","","","null","38","NaN","","","","","","","","","","","","","","",""
"","S2","","html-keyboard-response","259","477105","0.0-1.0-346.0","0","0","81354","","null","","","null","38","","NaN","","","","","","","","","","","","","",""
"","response","","html-keyboard-response","260","478052","0.0-1.0-347.0-0.0","0","0","81354","","945","","","68","38","","","1","38","training","adjacent","EF","5","6","Q.jpg","M.jpg","1","1","1","",""
"","feedback","","html-keyboard-response","261","479062","0.0-1.0-348.0-0.0","0","0","81354","","null","","","null","38","","","","","","","","","","","","","","","",""
"","ITI","","html-keyboard-response","262","480082","0.0-1.0-351.0","0","0","81354","","null","","","null","38","","","","","","","","","","","","","","","NaN",""
"","S1","","html-keyboard-response","263","480348","0.0-1.0-353.0","0","0","81354","","null","","","null","39","","","","","","","","","","","","","","","",""
"","ISI","","html-keyboard-response","264","480856","0.0-1.0-354.0","0","0","81354","","null","","","null","39","NaN","","","","","","","","","","","","","","",""
"","S2","","html-keyboard-response","265","481116","0.0-1.0-355.0","0","0","81354","","null","","","null","39","","NaN","","","","","","","","","","","","","",""
"","response","","html-keyboard-response","266","481867","0.0-1.0-356.0-0.0","0","0","81354","","750","","","75","39","","","1","39","training","adjacent","DC","4","3","L.jpg","P.jpg","0","0","1","",""
"","feedback","","html-keyboard-response","267","482874","0.0-1.0-357.0-0.0","0","0","81354","","null","","","null","39","","","","","","","","","","","","","","","",""
"","ITI","","html-keyboard-response","268","483882","0.0-1.0-360.0","0","0","81354","","null","","","null","39","","","","","","","","","","","","","","","NaN",""
"","S1","","html-keyboard-response","269","484187","0.0-1.0-362.0","0","0","81354","","null","","","null","40","","","","","","","","","","","","","","","",""
"","ISI","","html-keyboard-response","270","484696","0.0-1.0-363.0","0","0","81354","","null","","","null","40","NaN","","","","","","","","","","","","","","",""
"","S2","","html-keyboard-response","271","484957","0.0-1.0-364.0","0","0","81354","","null","","","null","40","","NaN","","","","","","","","","","","","","",""
"","response","","html-keyboard-response","272","485817","0.0-1.0-365.0-0.0","0","0","81354","","858","","","75","40","","","1","40","training","adjacent","FG","6","7","M.jpg","O.jpg","0","1","0","",""
"","feedback","","html-keyboard-response","273","486819","0.0-1.0-366.0-0.0","0","0","81354","","null","","","null","40","","","","","","","","","","","","","","","",""
"","time_out","","html-keyboard-response","274","488829","0.0-1.0-368.0-0.0","0","0","81354","","null","","","null","40","","","","","","","","","","","","","","","",""
"","ITI","","html-keyboard-response","275","489840","0.0-1.0-369.0","0","0","81354","","null","","","null","40","","","","","","","","","","","","","","","NaN",""
"","S1","","html-keyboard-response","276","490173","0.0-1.0-371.0","0","0","81354","","null","","","null","41","","","","","","","","","","","","","","","",""
"","ISI","","html-keyboard-response","277","490677","0.0-1.0-372.0","0","0","81354","","null","","","null","41","NaN","","","","","","","","","","","","","","",""
"","S2","","html-keyboard-response","278","490933","0.0-1.0-373.0","0","0","81354","","null","","","null","41","","NaN","","","","","","","","","","","","","",""
"","response","","html-keyboard-response","279","491729","0.0-1.0-374.0-0.0","0","0","81354","","794","","","75","41","","","1","41","training","adjacent","CD","3","4","P.jpg","L.jpg","0","1","0","",""
"","feedback","","html-keyboard-response","280","492737","0.0-1.0-375.0-0.0","0","0","81354","","null","","","null","41","","","","","","","","","","","","","","","",""
"","time_out","","html-keyboard-response","281","494740","0.0-1.0-377.0-0.0","0","0","81354","","null","","","null","41","","","","","","","","","","","","","","","",""
"","ITI","","html-keyboard-response","282","495752","0.0-1.0-378.0","0","0","81354","","null","","","null","41","","","","","","","","","","","","","","","NaN",""
"","S1","","html-keyboard-response","283","496009","0.0-1.0-380.0","0","0","81354","","null","","","null","42","","","","","","","","","","","","","","","",""
"","ISI","","html-keyboard-response","284","496516","0.0-1.0-381.0","0","0","81354","","null","","","null","42","NaN","","","","","","","","","","","","","","",""
"","S2","","html-keyboard-response","285","496778","0.0-1.0-382.0","0","0","81354","","null","","","null","42","","NaN","","","","","","","","","","","","","",""
"","response","","html-keyboard-response","286","497315","0.0-1.0-383.0-0.0","0","0","81354","","536","","","68","42","","","1","42","training","adjacent","FE","6","5","M.jpg","Q.jpg","1","0","0","",""
"","feedback","","html-keyboard-response","287","498319","0.0-1.0-384.0-0.0","0","0","81354","","null","","","null","42","","","","","","","","","","","","","","","",""
"","time_out","","html-keyboard-response","288","500321","0.0-1.0-386.0-0.0","0","0","81354","","null","","","null","42","","","","","","","","","","","","","","","",""
"","ITI","","html-keyboard-response","289","501328","0.0-1.0-387.0","0","0","81354","","null","","","null","42","","","","","","","","","","","","","","","NaN",""
"","S1","","html-keyboard-response","290","501586","0.0-1.0-389.0","0","0","81354","","null","","","null","43","","","","","","","","","","","","","","","",""
"","ISI","","html-keyboard-response","291","502171","0.0-1.0-390.0","0","0","81354","","null","","","null","43","NaN","","","","","","","","","","","","","","",""
"","S2","","html-keyboard-response","292","502426","0.0-1.0-391.0","0","0","81354","","null","","","null","43","","NaN","","","","","","","","","","","","","",""
"","response","","html-keyboard-response","293","502929","0.0-1.0-392.0-0.0","0","0","81354","","500","","","75","43","","","1","43","training","adjacent","DC","4","3","L.jpg","P.jpg","0","0","1","",""
"","feedback","","html-keyboard-response","294","504004","0.0-1.0-393.0-0.0","0","0","81354","","null","","","null","43","","","","","","","","","","","","","","","",""
"","ITI","","html-keyboard-response","295","505012","0.0-1.0-396.0","0","0","81354","","null","","","null","43","","","","","","","","","","","","","","","NaN",""
"","S1","","html-keyboard-response","296","505266","0.0-1.0-398.0","0","0","81354","","null","","","null","44","","","","","","","","","","","","","","","",""
"","ISI","","html-keyboard-response","297","505777","0.0-1.0-399.0","0","0","81354","","null","","","null","44","NaN","","","","","","","","","","","","","","",""
"","S2","","html-keyboard-response","298","506114","0.0-1.0-400.0","0","0","81354","","null","","","null","44","","NaN","","","","","","","","","","","","","",""
"","response","","html-keyboard-response","299","506966","0.0-1.0-401.0-0.0","0","0","81354","","849","","","68","44","","","1","44","training","adjacent","DC","4","3","L.jpg","P.jpg","1","0","0","",""
"","feedback","","html-keyboard-response","300","507984","0.0-1.0-402.0-0.0","0","0","81354","","null","","","null","44","","","","","","","","","","","","","","","",""
"","time_out","","html-keyboard-response","301","510011","0.0-1.0-404.0-0.0","0","0","81354","","null","","","null","44","","","","","","","","","","","","","","","",""
"","ITI","","html-keyboard-response","302","511015","0.0-1.0-405.0","0","0","81354","","null","","","null","44","","","","","","","","","","","","","","","NaN",""
"","S1","","html-keyboard-response","303","511273","0.0-1.0-407.0","0","0","81354","","null","","","null","45","","","","","","","","","","","","","","","",""
"","ISI","","html-keyboard-response","304","511794","0.0-1.0-408.0","0","0","81354","","null","","","null","45","NaN","","","","","","","","","","","","","","",""
"","S2","","html-keyboard-response","305","512129","0.0-1.0-409.0","0","0","81354","","null","","","null","45","","NaN","","","","","","","","","","","","","",""
"","response","","html-keyboard-response","306","512784","0.0-1.0-410.0-0.0","0","0","81354","","654","","","75","45","","","1","45","training","adjacent","FG","6","7","M.jpg","O.jpg","0","1","0","",""
"","feedback","","html-keyboard-response","307","513791","0.0-1.0-411.0-0.0","0","0","81354","","null","","","null","45","","","","","","","","","","","","","","","",""
"","time_out","","html-keyboard-response","308","515836","0.0-1.0-413.0-0.0","0","0","81354","","null","","","null","45","","","","","","","","","","","","","","","",""
"","ITI","","html-keyboard-response","309","516840","0.0-1.0-414.0","0","0","81354","","null","","","null","45","","","","","","","","","","","","","","","NaN",""
"","S1","","html-keyboard-response","310","517098","0.0-1.0-416.0","0","0","81354","","null","","","null","46","","","","","","","","","","","","","","","",""
"","ISI","","html-keyboard-response","311","517681","0.0-1.0-417.0","0","0","81354","","null","","","null","46","NaN","","","","","","","","","","","","","","",""
"","S2","","html-keyboard-response","312","517948","0.0-1.0-418.0","0","0","81354","","null","","","null","46","","NaN","","","","","","","","","","","","","",""
"","response","","html-keyboard-response","313","518935","0.0-1.0-419.0-0.0","0","0","81354","","986","","","75","46","","","1","46","training","adjacent","EF","5","6","Q.jpg","M.jpg","0","1","0","",""
"","feedback","","html-keyboard-response","314","519951","0.0-1.0-420.0-0.0","0","0","81354","","null","","","null","46","","","","","","","","","","","","","","","",""
"","time_out","","html-keyboard-response","315","521957","0.0-1.0-422.0-0.0","0","0","81354","","null","","","null","46","","","","","","","","","","","","","","","",""
"","ITI","","html-keyboard-response","316","522963","0.0-1.0-423.0","0","0","81354","","null","","","null","46","","","","","","","","","","","","","","","NaN",""
"","S1","","html-keyboard-response","317","523221","0.0-1.0-425.0","0","0","81354","","null","","","null","47","","","","","","","","","","","","","","","",""
"","ISI","","html-keyboard-response","318","523727","0.0-1.0-426.0","0","0","81354","","null","","","null","47","NaN","","","","","","","","","","","","","","",""
"","S2","","html-keyboard-response","319","524004","0.0-1.0-427.0","0","0","81354","","null","","","null","47","","NaN","","","","","","","","","","","","","",""
"","response","","html-keyboard-response","320","525035","0.0-1.0-428.0-0.0","0","0","81354","","1030","","","75","47","","","1","47","training","adjacent","ED","5","4","Q.jpg","L.jpg","0","0","1","",""
"","feedback","","html-keyboard-response","321","526040","0.0-1.0-429.0-0.0","0","0","81354","","null","","","null","47","","","","","","","","","","","","","","","",""
"","ITI","","html-keyboard-response","322","527053","0.0-1.0-432.0","0","0","81354","","null","","","null","47","","","","","","","","","","","","","","","NaN",""
"","block_over","","html-keyboard-response","323","536437","0.0-1.0-433.0-0.0","0","0","81354","","9381","","","32","47","","","","","","","","","","","","","","","",""
"","S1","","html-keyboard-response","324","536688","0.0-1.0-434.0","0","0","81354","","null","","","null","48","","","","","","","","","","","","","","","",""
"","ISI","","html-keyboard-response","325","537192","0.0-1.0-435.0","0","0","81354","","null","","","null","48","NaN","","","","","","","","","","","","","","",""
"","S2","","html-keyboard-response","326","537448","0.0-1.0-436.0","0","0","81354","","null","","","null","48","","NaN","","","","","","","","","","","","","",""
"","response","","html-keyboard-response","327","538371","0.0-1.0-437.0-0.0","0","0","81354","","921","","","68","48","","","2","48","training","adjacent","BC","2","3","N.jpg","P.jpg","1","1","1","",""
"","feedback","","html-keyboard-response","328","539377","0.0-1.0-438.0-0.0","0","0","81354","","null","","","null","48","","","","","","","","","","","","","","","",""
"","ITI","","html-keyboard-response","329","540381","0.0-1.0-441.0","0","0","81354","","null","","","null","48","","","","","","","","","","","","","","","NaN",""
"","S1","","html-keyboard-response","330","540638","0.0-1.0-443.0","0","0","81354","","null","","","null","49","","","","","","","","","","","","","","","",""
"","ISI","","html-keyboard-response","331","541143","0.0-1.0-444.0","0","0","81354","","null","","","null","49","NaN","","","","","","","","","","","","","","",""
"","S2","","html-keyboard-response","332","541403","0.0-1.0-445.0","0","0","81354","","null","","","null","49","","NaN","","","","","","","","","","","","","",""
"","response","","html-keyboard-response","333","542411","0.0-1.0-446.0-0.0","0","0","81354","","1007","","","75","49","","","2","49","training","adjacent","BA","2","1","N.jpg","R.jpg","0","0","1","",""
"","feedback","","html-keyboard-response","334","543415","0.0-1.0-447.0-0.0","0","0","81354","","null","","","null","49","","","","","","","","","","","","","","","",""
"","ITI","","html-keyboard-response","335","544421","0.0-1.0-450.0","0","0","81354","","null","","","null","49","","","","","","","","","","","","","","","NaN",""
"","S1","","html-keyboard-response","336","544679","0.0-1.0-452.0","0","0","81354","","null","","","null","50","","","","","","","","","","","","","","","",""
"","ISI","","html-keyboard-response","337","545183","0.0-1.0-453.0","0","0","81354","","null","","","null","50","NaN","","","","","","","","","","","","","","",""
"","S2","","html-keyboard-response","338","545441","0.0-1.0-454.0","0","0","81354","","null","","","null","50","","NaN","","","","","","","","","","","","","",""
"","response","","html-keyboard-response","339","546292","0.0-1.0-455.0-0.0","0","0","81354","","849","","","75","50","","","2","50","training","adjacent","BA","2","1","N.jpg","R.jpg","0","0","1","",""
"","feedback","","html-keyboard-response","340","547295","0.0-1.0-456.0-0.0","0","0","81354","","null","","","null","50","","","","","","","","","","","","","","","",""
"","ITI","","html-keyboard-response","341","548298","0.0-1.0-459.0","0","0","81354","","null","","","null","50","","","","","","","","","","","","","","","NaN",""
"","S1","","html-keyboard-response","342","548550","0.0-1.0-461.0","0","0","81354","","null","","","null","51","","","","","","","","","","","","","","","",""
"","ISI","","html-keyboard-response","343","549054","0.0-1.0-462.0","0","0","81354","","null","","","null","51","NaN","","","","","","","","","","","","","","",""
"","S2","","html-keyboard-response","344","549308","0.0-1.0-463.0","0","0","81354","","null","","","null","51","","NaN","","","","","","","","","","","","","",""
"","response","","html-keyboard-response","345","550240","0.0-1.0-464.0-0.0","0","0","81354","","931","","","75","51","","","2","51","training","adjacent","DE","4","5","L.jpg","Q.jpg","0","1","0","",""
"","feedback","","html-keyboard-response","346","551244","0.0-1.0-465.0-0.0","0","0","81354","","null","","","null","51","","","","","","","","","","","","","","","",""
"","time_out","","html-keyboard-response","347","553258","0.0-1.0-467.0-0.0","0","0","81354","","null","","","null","51","","","","","","","","","","","","","","","",""
"","ITI","","html-keyboard-response","348","554263","0.0-1.0-468.0","0","0","81354","","null","","","null","51","","","","","","","","","","","","","","","NaN",""
"","S1","","html-keyboard-response","349","554525","0.0-1.0-470.0","0","0","81354","","null","","","null","52","","","","","","","","","","","","","","","",""
"","ISI","","html-keyboard-response","350","555029","0.0-1.0-471.0","0","0","81354","","null","","","null","52","NaN","","","","","","","","","","","","","","",""
"","S2","","html-keyboard-response","351","555285","0.0-1.0-472.0","0","0","81354","","null","","","null","52","","NaN","","","","","","","","","","","","","",""
"","response","","html-keyboard-response","352","556242","0.0-1.0-473.0-0.0","0","0","81354","","953","","","68","52","","","2","52","training","adjacent","BC","2","3","N.jpg","P.jpg","1","1","1","",""
"","feedback","","html-keyboard-response","353","557248","0.0-1.0-474.0-0.0","0","0","81354","","null","","","null","52","","","","","","","","","","","","","","","",""
"","ITI","","html-keyboard-response","354","558251","0.0-1.0-477.0","0","0","81354","","null","","","null","52","","","","","","","","","","","","","","","NaN",""
"","S1","","html-keyboard-response","355","558506","0.0-1.0-479.0","0","0","81354","","null","","","null","53","","","","","","","","","","","","","","","",""
"","ISI","","html-keyboard-response","356","559009","0.0-1.0-480.0","0","0","81354","","null","","","null","53","NaN","","","","","","","","","","","","","","",""
"","S2","","html-keyboard-response","357","559262","0.0-1.0-481.0","0","0","81354","","null","","","null","53","","NaN","","","","","","","","","","","","","",""
"","response","","html-keyboard-response","358","560272","0.0-1.0-482.0-0.0","0","0","81354","","1009","","","75","53","","","2","53","training","adjacent","CB","3","2","P.jpg","N.jpg","0","0","1","",""
"","feedback","","html-keyboard-response","359","561276","0.0-1.0-483.0-0.0","0","0","81354","","null","","","null","53","","","","","","","","","","","","","","","",""
"","ITI","","html-keyboard-response","360","562279","0.0-1.0-486.0","0","0","81354","","null","","","null","53","","","","","","","","","","","","","","","NaN",""
"","S1","","html-keyboard-response","361","562534","0.0-1.0-488.0","0","0","81354","","null","","","null","54","","","","","","","","","","","","","","","",""
"","ISI","","html-keyboard-response","362","563041","0.0-1.0-489.0","0","0","81354","","null","","","null","54","NaN","","","","","","","","","","","","","","",""
"","S2","","html-keyboard-response","363","563319","0.0-1.0-490.0","0","0","81354","","null","","","null","54","","NaN","","","","","","","","","","","","","",""
"","response","","html-keyboard-response","364","564005","0.0-1.0-491.0-0.0","0","0","81354","","684","","","68","54","","","2","54","training","adjacent","ED","5","4","Q.jpg","L.jpg","1","0","0","",""
"","feedback","","html-keyboard-response","365","565016","0.0-1.0-492.0-0.0","0","0","81354","","null","","","null","54","","","","","","","","","","","","","","","",""
"","time_out","","html-keyboard-response","366","567026","0.0-1.0-494.0-0.0","0","0","81354","","null","","","null","54","","","","","","","","","","","","","","","",""
"","ITI","","html-keyboard-response","367","568035","0.0-1.0-495.0","0","0","81354","","382","","","68","54","","","","","","","","","","","","","","","d",""
"","S1","","html-keyboard-response","368","568290","0.0-1.0-497.0","0","0","81354","","null","","","null","55","","","","","","","","","","","","","","","",""
"","ISI","","html-keyboard-response","369","568798","0.0-1.0-498.0","0","0","81354","","null","","","null","55","NaN","","","","","","","","","","","","","","",""
"","S2","","html-keyboard-response","370","569109","0.0-1.0-499.0","0","0","81354","","null","","","null","55","","NaN","","","","","","","","","","","","","",""
"","response","","html-keyboard-response","371","570895","0.0-1.0-500.0-0.0","0","0","81354","","null","","","null","55","","","2","55","training","adjacent","BA","2","1","N.jpg","R.jpg","NaN","0","0","",""
"","too_slow_prompt","","html-keyboard-response","372","571909","0.0-1.0-502.0-0.0","1","0","81354","","null","","","null","","","","","","","","","","","","","","","","",""
"","time_out","","html-keyboard-response","373","573912","0.0-1.0-503.0-0.0","0","0","81354","","null","","","null","55","","","","","","","","","","","","","","","",""
"","ITI","","html-keyboard-response","374","574959","0.0-1.0-504.0","0","0","81354","","494","","","75","55","","","","","","","","","","","","","","","k",""
"","S1","","html-keyboard-response","375","575267","0.0-1.0-506.0","0","0","81354","","null","","","null","56","","","","","","","","","","","","","","","",""
"","ISI","","html-keyboard-response","376","575788","0.0-1.0-507.0","0","0","81354","","null","","","null","56","NaN","","","","","","","","","","","","","","",""
"","S2","","html-keyboard-response","377","576040","0.0-1.0-508.0","0","0","81354","","null","","","null","56","","NaN","","","","","","","","","","","","","",""
"","response","","html-keyboard-response","378","576687","0.0-1.0-509.0-0.0","0","0","81354","","645","","","68","56","","","2","56","training","adjacent","CD","3","4","P.jpg","L.jpg","1","1","1","",""
"","feedback","","html-keyboard-response","379","577695","0.0-1.0-510.0-0.0","0","0","81354","","null","","","null","56","","","","","","","","","","","","","","","",""
"","ITI","","html-keyboard-response","380","578697","0.0-1.0-513.0","0","0","81354","","null","","","null","56","","","","","","","","","","","","","","","NaN",""
"","S1","","html-keyboard-response","381","578961","0.0-1.0-515.0","0","0","81354","","null","","","null","57","","","","","","","","","","","","","","","",""
"","ISI","","html-keyboard-response","382","579470","0.0-1.0-516.0","0","0","81354","","null","","","null","57","NaN","","","","","","","","","","","","","","",""
"","S2","","html-keyboard-response","383","579727","0.0-1.0-517.0","0","0","81354","","null","","","null","57","","NaN","","","","","","","","","","","","","",""
"","response","","html-keyboard-response","384","581482","0.0-1.0-518.0-0.0","0","0","81354","","null","","","null","57","","","2","57","training","adjacent","AB","1","2","R.jpg","N.jpg","NaN","1","0","",""
"","too_slow_prompt","","html-keyboard-response","385","582486","0.0-1.0-520.0-0.0","1","0","81354","","null","","","null","","","","","","","","","","","","","","","","",""
"","time_out","","html-keyboard-response","386","584492","0.0-1.0-521.0-0.0","0","0","81354","","null","","","null","57","","","","","","","","","","","","","","","",""
"","ITI","","html-keyboard-response","387","585498","0.0-1.0-522.0","0","0","81354","","null","","","null","57","","","","","","","","","","","","","","","NaN",""
"","S1","","html-keyboard-response","388","585758","0.0-1.0-524.0","0","0","81354","","null","","","null","58","","","","","","","","","","","","","","","",""
"","ISI","","html-keyboard-response","389","586267","0.0-1.0-525.0","0","0","81354","","null","","","null","58","NaN","","","","","","","","","","","","","","",""
"","S2","","html-keyboard-response","390","586525","0.0-1.0-526.0","0","0","81354","","null","","","null","58","","NaN","","","","","","","","","","","","","",""
"","response","","html-keyboard-response","391","588327","0.0-1.0-527.0-0.0","0","0","81354","","null","","","null","58","","","2","58","training","adjacent","FG","6","7","M.jpg","O.jpg","NaN","1","0","",""
"","too_slow_prompt","","html-keyboard-response","392","589336","0.0-1.0-529.0-0.0","1","0","81354","","null","","","null","","","","","","","","","","","","","","","","",""
"","time_out","","html-keyboard-response","393","591343","0.0-1.0-530.0-0.0","0","0","81354","","null","","","null","58","","","","","","","","","","","","","","","",""
"","ITI","","html-keyboard-response","394","592357","0.0-1.0-531.0","0","0","81354","","null","","","null","58","","","","","","","","","","","","","","","NaN",""
"","S1","","html-keyboard-response","395","592619","0.0-1.0-533.0","0","0","81354","","null","","","null","59","","","","","","","","","","","","","","","",""
"","ISI","","html-keyboard-response","396","593127","0.0-1.0-534.0","0","0","81354","","null","","","null","59","NaN","","","","","","","","","","","","","","",""
"","S2","","html-keyboard-response","397","593386","0.0-1.0-535.0","0","0","81354","","null","","","null","59","","NaN","","","","","","","","","","","","","",""
"","response","","html-keyboard-response","398","594108","0.0-1.0-536.0-0.0","0","0","81354","","721","","","68","59","","","2","59","training","adjacent","AB","1","2","R.jpg","N.jpg","1","1","1","",""
"","feedback","","html-keyboard-response","399","595114","0.0-1.0-537.0-0.0","0","0","81354","","null","","","null","59","","","","","","","","","","","","","","","",""
"","ITI","","html-keyboard-response","400","596129","0.0-1.0-540.0","0","0","81354","","null","","","null","59","","","","","","","","","","","","","","","NaN",""
"","S1","","html-keyboard-response","401","596388","0.0-1.0-542.0","0","0","81354","","null","","","null","60","","","","","","","","","","","","","","","",""
"","ISI","","html-keyboard-response","402","596895","0.0-1.0-543.0","0","0","81354","","null","","","null","60","NaN","","","","","","","","","","","","","","",""
"","S2","","html-keyboard-response","403","597150","0.0-1.0-544.0","0","0","81354","","null","","","null","60","","NaN","","","","","","","","","","","","","",""
"","response","","html-keyboard-response","404","598102","0.0-1.0-545.0-0.0","0","0","81354","","951","","","68","60","","","2","60","training","adjacent","EF","5","6","Q.jpg","M.jpg","1","1","1","",""
"","feedback","","html-keyboard-response","405","599108","0.0-1.0-546.0-0.0","0","0","81354","","null","","","null","60","","","","","","","","","","","","","","","",""
"","ITI","","html-keyboard-response","406","600114","0.0-1.0-549.0","0","0","81354","","null","","","null","60","","","","","","","","","","","","","","","NaN",""
"","S1","","html-keyboard-response","407","600369","0.0-1.0-551.0","0","0","81354","","null","","","null","61","","","","","","","","","","","","","","","",""
"","ISI","","html-keyboard-response","408","600887","0.0-1.0-552.0","0","0","81354","","null","","","null","61","NaN","","","","","","","","","","","","","","",""
"","S2","","html-keyboard-response","409","601140","0.0-1.0-553.0","0","0","81354","","null","","","null","61","","NaN","","","","","","","","","","","","","",""
"","response","","html-keyboard-response","410","602680","0.0-1.0-554.0-0.0","0","0","81354","","1539","","","68","61","","","2","61","training","adjacent","FG","6","7","M.jpg","O.jpg","1","1","1","",""
"","feedback","","html-keyboard-response","411","603688","0.0-1.0-555.0-0.0","0","0","81354","","null","","","null","61","","","","","","","","","","","","","","","",""
"","ITI","","html-keyboard-response","412","604695","0.0-1.0-558.0","0","0","81354","","null","","","null","61","","","","","","","","","","","","","","","NaN",""
"","S1","","html-keyboard-response","413","604958","0.0-1.0-560.0","0","0","81354","","null","","","null","62","","","","","","","","","","","","","","","",""
"","ISI","","html-keyboard-response","414","605461","0.0-1.0-561.0","0","0","81354","","null","","","null","62","NaN","","","","","","","","","","","","","","",""
"","S2","","html-keyboard-response","415","605713","0.0-1.0-562.0","0","0","81354","","null","","","null","62","","NaN","","","","","","","","","","","","","",""
"","response","","html-keyboard-response","416","606570","0.0-1.0-563.0-0.0","0","0","81354","","855","","","68","62","","","2","62","training","adjacent","EF","5","6","Q.jpg","M.jpg","1","1","1","",""
"","feedback","","html-keyboard-response","417","607583","0.0-1.0-564.0-0.0","0","0","81354","","null","","","null","62","","","","","","","","","","","","","","","",""
"","ITI","","html-keyboard-response","418","608594","0.0-1.0-567.0","0","0","81354","","null","","","null","62","","","","","","","","","","","","","","","NaN",""
"","S1","","html-keyboard-response","419","608855","0.0-1.0-569.0","0","0","81354","","null","","","null","63","","","","","","","","","","","","","","","",""
"","ISI","","html-keyboard-response","420","609359","0.0-1.0-570.0","0","0","81354","","null","","","null","63","NaN","","","","","","","","","","","","","","",""
"","S2","","html-keyboard-response","421","609616","0.0-1.0-571.0","0","0","81354","","null","","","null","63","","NaN","","","","","","","","","","","","","",""
"","response","","html-keyboard-response","422","610200","0.0-1.0-572.0-0.0","0","0","81354","","583","","","75","63","","","2","63","training","adjacent","CD","3","4","P.jpg","L.jpg","0","1","0","",""
"","feedback","","html-keyboard-response","423","611209","0.0-1.0-573.0-0.0","0","0","81354","","null","","","null","63","","","","","","","","","","","","","","","",""
"","time_out","","html-keyboard-response","424","613217","0.0-1.0-575.0-0.0","0","0","81354","","null","","","null","63","","","","","","","","","","","","","","","",""
"","ITI","","html-keyboard-response","425","614222","0.0-1.0-576.0","0","0","81354","","null","","","null","63","","","","","","","","","","","","","","","NaN",""
"","S1","","html-keyboard-response","426","614483","0.0-1.0-578.0","0","0","81354","","null","","","null","64","","","","","","","","","","","","","","","",""
"","ISI","","html-keyboard-response","427","614988","0.0-1.0-579.0","0","0","81354","","null","","","null","64","NaN","","","","","","","","","","","","","","",""
"","S2","","html-keyboard-response","428","615243","0.0-1.0-580.0","0","0","81354","","null","","","null","64","","NaN","","","","","","","","","","","","","",""
"","response","","html-keyboard-response","429","615745","0.0-1.0-581.0-0.0","0","0","81354","","499","","","68","64","","","2","64","training","adjacent","GF","7","6","O.jpg","M.jpg","1","0","0","",""
"","feedback","","html-keyboard-response","430","616750","0.0-1.0-582.0-0.0","0","0","81354","","null","","","null","64","","","","","","","","","","","","","","","",""
"","time_out","","html-keyboard-response","431","618770","0.0-1.0-584.0-0.0","0","0","81354","","null","","","null","64","","","","","","","","","","","","","","","",""
"","ITI","","html-keyboard-response","432","619797","0.0-1.0-585.0","0","0","81354","","null","","","null","64","","","","","","","","","","","","","","","NaN",""
"","S1","","html-keyboard-response","433","620058","0.0-1.0-587.0","0","0","81354","","null","","","null","65","","","","","","","","","","","","","","","",""
"","ISI","","html-keyboard-response","434","620571","0.0-1.0-588.0","0","0","81354","","null","","","null","65","NaN","","","","","","","","","","","","","","",""
"","S2","","html-keyboard-response","435","620837","0.0-1.0-589.0","0","0","81354","","null","","","null","65","","NaN","","","","","","","","","","","","","",""
"","response","","html-keyboard-response","436","621295","0.0-1.0-590.0-0.0","0","0","81354","","455","","","75","65","","","2","65","training","adjacent","CD","3","4","P.jpg","L.jpg","0","1","0","",""
"","feedback","","html-keyboard-response","437","622307","0.0-1.0-591.0-0.0","0","0","81354","","null","","","null","65","","","","","","","","","","","","","","","",""
"","time_out","","html-keyboard-response","438","624314","0.0-1.0-593.0-0.0","0","0","81354","","null","","","null","65","","","","","","","","","","","","","","","",""
"","ITI","","html-keyboard-response","439","625316","0.0-1.0-594.0","0","0","81354","","null","","","null","65","","","","","","","","","","","","","","","NaN",""
"","S1","","html-keyboard-response","440","625572","0.0-1.0-596.0","0","0","81354","","null","","","null","66","","","","","","","","","","","","","","","",""
"","ISI","","html-keyboard-response","441","626073","0.0-1.0-597.0","0","0","81354","","null","","","null","66","NaN","","","","","","","","","","","","","","",""
"","S2","","html-keyboard-response","442","626328","0.0-1.0-598.0","0","0","81354","","null","","","null","66","","NaN","","","","","","","","","","","","","",""
"","response","","html-keyboard-response","443","627240","0.0-1.0-599.0-0.0","0","0","81354","","911","","","68","66","","","2","66","training","adjacent","FG","6","7","M.jpg","O.jpg","1","1","1","",""
"","feedback","","html-keyboard-response","444","628249","0.0-1.0-600.0-0.0","0","0","81354","","null","","","null","66","","","","","","","","","","","","","","","",""
"","ITI","","html-keyboard-response","445","629259","0.0-1.0-603.0","0","0","81354","","null","","","null","66","","","","","","","","","","","","","","","NaN",""
"","S1","","html-keyboard-response","446","629513","0.0-1.0-605.0","0","0","81354","","null","","","null","67","","","","","","","","","","","","","","","",""
"","ISI","","html-keyboard-response","447","630017","0.0-1.0-606.0","0","0","81354","","null","","","null","67","NaN","","","","","","","","","","","","","","",""
"","S2","","html-keyboard-response","448","630269","0.0-1.0-607.0","0","0","81354","","null","","","null","67","","NaN","","","","","","","","","","","","","",""
"","response","","html-keyboard-response","449","630907","0.0-1.0-608.0-0.0","0","0","81354","","636","","","68","67","","","2","67","training","adjacent","ED","5","4","Q.jpg","L.jpg","1","0","0","",""
"","feedback","","html-keyboard-response","450","631910","0.0-1.0-609.0-0.0","0","0","81354","","null","","","null","67","","","","","","","","","","","","","","","",""
"","time_out","","html-keyboard-response","451","633921","0.0-1.0-611.0-0.0","0","0","81354","","null","","","null","67","","","","","","","","","","","","","","","",""
"","ITI","","html-keyboard-response","452","634986","0.0-1.0-612.0","0","0","81354","","null","","","null","67","","","","","","","","","","","","","","","NaN",""
"","S1","","html-keyboard-response","453","635243","0.0-1.0-614.0","0","0","81354","","null","","","null","68","","","","","","","","","","","","","","","",""
"","ISI","","html-keyboard-response","454","635752","0.0-1.0-615.0","0","0","81354","","null","","","null","68","NaN","","","","","","","","","","","","","","",""
"","S2","","html-keyboard-response","455","636007","0.0-1.0-616.0","0","0","81354","","null","","","null","68","","NaN","","","","","","","","","","","","","",""
"","response","","html-keyboard-response","456","636491","0.0-1.0-617.0-0.0","0","0","81354","","482","","","75","68","","","2","68","training","adjacent","DC","4","3","L.jpg","P.jpg","0","0","1","",""
"","feedback","","html-keyboard-response","457","637497","0.0-1.0-618.0-0.0","0","0","81354","","null","","","null","68","","","","","","","","","","","","","","","",""
"","ITI","","html-keyboard-response","458","638504","0.0-1.0-621.0","0","0","81354","","null","","","null","68","","","","","","","","","","","","","","","NaN",""
"","S1","","html-keyboard-response","459","638761","0.0-1.0-623.0","0","0","81354","","null","","","null","69","","","","","","","","","","","","","","","",""
"","ISI","","html-keyboard-response","460","639276","0.0-1.0-624.0","0","0","81354","","null","","","null","69","NaN","","","","","","","","","","","","","","",""
"","S2","","html-keyboard-response","461","639530","0.0-1.0-625.0","0","0","81354","","null","","","null","69","","NaN","","","","","","","","","","","","","",""
"","response","","html-keyboard-response","462","640093","0.0-1.0-626.0-0.0","0","0","81354","","561","","","75","69","","","2","69","training","adjacent","CB","3","2","P.jpg","N.jpg","0","0","1","",""
"","feedback","","html-keyboard-response","463","641110","0.0-1.0-627.0-0.0","0","0","81354","","null","","","null","69","","","","","","","","","","","","","","","",""
"","ITI","","html-keyboard-response","464","642120","0.0-1.0-630.0","0","0","81354","","null","","","null","69","","","","","","","","","","","","","","","NaN",""
"","S1","","html-keyboard-response","465","642375","0.0-1.0-632.0","0","0","81354","","null","","","null","70","","","","","","","","","","","","","","","",""
"","ISI","","html-keyboard-response","466","642924","0.0-1.0-633.0","0","0","81354","","null","","","null","70","NaN","","","","","","","","","","","","","","",""
"","S2","","html-keyboard-response","467","643180","0.0-1.0-634.0","0","0","81354","","null","","","null","70","","NaN","","","","","","","","","","","","","",""
"","response","","html-keyboard-response","468","644146","0.0-1.0-635.0-0.0","0","0","81354","","964","","","68","70","","","2","70","training","adjacent","FE","6","5","M.jpg","Q.jpg","1","0","0","",""
"","feedback","","html-keyboard-response","469","645148","0.0-1.0-636.0-0.0","0","0","81354","","null","","","null","70","","","","","","","","","","","","","","","",""
"","time_out","","html-keyboard-response","470","647157","0.0-1.0-638.0-0.0","0","0","81354","","null","","","null","70","","","","","","","","","","","","","","","",""
"","ITI","","html-keyboard-response","471","648164","0.0-1.0-639.0","0","0","81354","","null","","","null","70","","","","","","","","","","","","","","","NaN",""
"","S1","","html-keyboard-response","472","648419","0.0-1.0-641.0","0","0","81354","","null","","","null","71","","","","","","","","","","","","","","","",""
"","ISI","","html-keyboard-response","473","648931","0.0-1.0-642.0","0","0","81354","","null","","","null","71","NaN","","","","","","","","","","","","","","",""
"","S2","","html-keyboard-response","474","649190","0.0-1.0-643.0","0","0","81354","","null","","","null","71","","NaN","","","","","","","","","","","","","",""
"","response","","html-keyboard-response","475","649997","0.0-1.0-644.0-0.0","0","0","81354","","804","","","75","71","","","2","71","training","adjacent","DE","4","5","L.jpg","Q.jpg","0","1","0","",""
"","feedback","","html-keyboard-response","476","651001","0.0-1.0-645.0-0.0","0","0","81354","","null","","","null","71","","","","","","","","","","","","","","","",""
"","time_out","","html-keyboard-response","477","653013","0.0-1.0-647.0-0.0","0","0","81354","","null","","","null","71","","","","","","","","","","","","","","","",""
"","ITI","","html-keyboard-response","478","654022","0.0-1.0-648.0","0","0","81354","","null","","","null","71","","","","","","","","","","","","","","","NaN",""
"","S1","","html-keyboard-response","479","654279","0.0-1.0-650.0","0","0","81354","","null","","","null","72","","","","","","","","","","","","","","","",""
"","ISI","","html-keyboard-response","480","654786","0.0-1.0-651.0","0","0","81354","","null","","","null","72","NaN","","","","","","","","","","","","","","",""
"","S2","","html-keyboard-response","481","655048","0.0-1.0-652.0","0","0","81354","","null","","","null","72","","NaN","","","","","","","","","","","","","",""
"","response","","html-keyboard-response","482","655846","0.0-1.0-653.0-0.0","0","0","81354","","796","","","75","72","","","2","72","training","adjacent","GF","7","6","O.jpg","M.jpg","0","0","1","",""
"","feedback","","html-keyboard-response","483","656857","0.0-1.0-654.0-0.0","0","0","81354","","null","","","null","72","","","","","","","","","","","","","","","",""
"","ITI","","html-keyboard-response","484","657859","0.0-1.0-657.0","0","0","81354","","null","","","null","72","","","","","","","","","","","","","","","NaN",""
"","S1","","html-keyboard-response","485","658110","0.0-1.0-659.0","0","0","81354","","null","","","null","73","","","","","","","","","","","","","","","",""
"","ISI","","html-keyboard-response","486","658614","0.0-1.0-660.0","0","0","81354","","null","","","null","73","NaN","","","","","","","","","","","","","","",""
"","S2","","html-keyboard-response","487","658916","0.0-1.0-661.0","0","0","81354","","null","","","null","73","","NaN","","","","","","","","","","","","","",""
"","response","","html-keyboard-response","488","659328","0.0-1.0-662.0-0.0","0","0","81354","","405","","","75","73","","","2","73","training","adjacent","BA","2","1","N.jpg","R.jpg","0","0","1","",""
"","feedback","","html-keyboard-response","489","660332","0.0-1.0-663.0-0.0","0","0","81354","","null","","","null","73","","","","","","","","","","","","","","","",""
"","ITI","","html-keyboard-response","490","661338","0.0-1.0-666.0","0","0","81354","","null","","","null","73","","","","","","","","","","","","","","","NaN",""
"","S1","","html-keyboard-response","491","661595","0.0-1.0-668.0","0","0","81354","","null","","","null","74","","","","","","","","","","","","","","","",""
"","ISI","","html-keyboard-response","492","662103","0.0-1.0-669.0","0","0","81354","","null","","","null","74","NaN","","","","","","","","","","","","","","",""
"","S2","","html-keyboard-response","493","662356","0.0-1.0-670.0","0","0","81354","","null","","","null","74","","NaN","","","","","","","","","","","","","",""
"","response","","html-keyboard-response","494","662927","0.0-1.0-671.0-0.0","0","0","81354","","569","","","68","74","","","2","74","training","adjacent","EF","5","6","Q.jpg","M.jpg","1","1","1","",""
"","feedback","","html-keyboard-response","495","663931","0.0-1.0-672.0-0.0","0","0","81354","","null","","","null","74","","","","","","","","","","","","","","","",""
"","ITI","","html-keyboard-response","496","664935","0.0-1.0-675.0","0","0","81354","","null","","","null","74","","","","","","","","","","","","","","","NaN",""
"","S1","","html-keyboard-response","497","665217","0.0-1.0-677.0","0","0","81354","","null","","","null","75","","","","","","","","","","","","","","","",""
"","ISI","","html-keyboard-response","498","665724","0.0-1.0-678.0","0","0","81354","","null","","","null","75","NaN","","","","","","","","","","","","","","",""
"","S2","","html-keyboard-response","499","665986","0.0-1.0-679.0","0","0","81354","","null","","","null","75","","NaN","","","","","","","","","","","","","",""
"","response","","html-keyboard-response","500","666728","0.0-1.0-680.0-0.0","0","0","81354","","741","","","68","75","","","2","75","training","adjacent","DE","4","5","L.jpg","Q.jpg","1","1","1","",""
"","feedback","","html-keyboard-response","501","667731","0.0-1.0-681.0-0.0","0","0","81354","","null","","","null","75","","","","","","","","","","","","","","","",""
"","ITI","","html-keyboard-response","502","668733","0.0-1.0-684.0","0","0","81354","","null","","","null","75","","","","","","","","","","","","","","","NaN",""
"","S1","","html-keyboard-response","503","668994","0.0-1.0-686.0","0","0","81354","","null","","","null","76","","","","","","","","","","","","","","","",""
"","ISI","","html-keyboard-response","504","669500","0.0-1.0-687.0","0","0","81354","","null","","","null","76","NaN","","","","","","","","","","","","","","",""
"","S2","","html-keyboard-response","505","669754","0.0-1.0-688.0","0","0","81354","","null","","","null","76","","NaN","","","","","","","","","","","","","",""
"","response","","html-keyboard-response","506","670213","0.0-1.0-689.0-0.0","0","0","81354","","458","","","75","76","","","2","76","training","adjacent","GF","7","6","O.jpg","M.jpg","0","0","1","",""
"","feedback","","html-keyboard-response","507","671221","0.0-1.0-690.0-0.0","0","0","81354","","null","","","null","76","","","","","","","","","","","","","","","",""
"","ITI","","html-keyboard-response","508","672225","0.0-1.0-693.0","0","0","81354","","null","","","null","76","","","","","","","","","","","","","","","NaN",""
"","S1","","html-keyboard-response","509","672480","0.0-1.0-695.0","0","0","81354","","null","","","null","77","","","","","","","","","","","","","","","",""
"","ISI","","html-keyboard-response","510","673000","0.0-1.0-696.0","0","0","81354","","null","","","null","77","NaN","","","","","","","","","","","","","","",""
"","S2","","html-keyboard-response","511","673268","0.0-1.0-697.0","0","0","81354","","null","","","null","77","","NaN","","","","","","","","","","","","","",""
"","response","","html-keyboard-response","512","673724","0.0-1.0-698.0-0.0","0","0","81354","","454","","","68","77","","","2","77","training","adjacent","BC","2","3","N.jpg","P.jpg","1","1","1","",""
"","feedback","","html-keyboard-response","513","674727","0.0-1.0-699.0-0.0","0","0","81354","","null","","","null","77","","","","","","","","","","","","","","","",""
"","ITI","","html-keyboard-response","514","675729","0.0-1.0-702.0","0","0","81354","","null","","","null","77","","","","","","","","","","","","","","","NaN",""
"","S1","","html-keyboard-response","515","675986","0.0-1.0-704.0","0","0","81354","","null","","","null","78","","","","","","","","","","","","","","","",""
"","ISI","","html-keyboard-response","516","676493","0.0-1.0-705.0","0","0","81354","","null","","","null","78","NaN","","","","","","","","","","","","","","",""
"","S2","","html-keyboard-response","517","676746","0.0-1.0-706.0","0","0","81354","","null","","","null","78","","NaN","","","","","","","","","","","","","",""
"","response","","html-keyboard-response","518","677209","0.0-1.0-707.0-0.0","0","0","81354","","461","","","68","78","","","2","78","training","adjacent","FG","6","7","M.jpg","O.jpg","1","1","1","",""
"","feedback","","html-keyboard-response","519","678216","0.0-1.0-708.0-0.0","0","0","81354","","null","","","null","78","","","","","","","","","","","","","","","",""
"","ITI","","html-keyboard-response","520","679219","0.0-1.0-711.0","0","0","81354","","null","","","null","78","","","","","","","","","","","","","","","NaN",""
"","S1","","html-keyboard-response","521","679475","0.0-1.0-713.0","0","0","81354","","null","","","null","79","","","","","","","","","","","","","","","",""
"","ISI","","html-keyboard-response","522","679981","0.0-1.0-714.0","0","0","81354","","null","","","null","79","NaN","","","","","","","","","","","","","","",""
"","S2","","html-keyboard-response","523","680243","0.0-1.0-715.0","0","0","81354","","null","","","null","79","","NaN","","","","","","","","","","","","","",""
"","response","","html-keyboard-response","524","680954","0.0-1.0-716.0-0.0","0","0","81354","","707","","","75","79","","","2","79","training","adjacent","GF","7","6","O.jpg","M.jpg","0","0","1","",""
"","feedback","","html-keyboard-response","525","681962","0.0-1.0-717.0-0.0","0","0","81354","","null","","","null","79","","","","","","","","","","","","","","","",""
"","ITI","","html-keyboard-response","526","682972","0.0-1.0-720.0","0","0","81354","","null","","","null","79","","","","","","","","","","","","","","","NaN",""
"","S1","","html-keyboard-response","527","683225","0.0-1.0-722.0","0","0","81354","","null","","","null","80","","","","","","","","","","","","","","","",""
"","ISI","","html-keyboard-response","528","683728","0.0-1.0-723.0","0","0","81354","","null","","","null","80","NaN","","","","","","","","","","","","","","",""
"","S2","","html-keyboard-response","529","683981","0.0-1.0-724.0","0","0","81354","","null","","","null","80","","NaN","","","","","","","","","","","","","",""
"","response","","html-keyboard-response","530","684473","0.0-1.0-725.0-0.0","0","0","81354","","490","","","75","80","","","2","80","training","adjacent","DC","4","3","L.jpg","P.jpg","0","0","1","",""
"","feedback","","html-keyboard-response","531","685485","0.0-1.0-726.0-0.0","0","0","81354","","null","","","null","80","","","","","","","","","","","","","","","",""
"","ITI","","html-keyboard-response","532","686490","0.0-1.0-729.0","0","0","81354","","null","","","null","80","","","","","","","","","","","","","","","NaN",""
"","S1","","html-keyboard-response","533","686765","0.0-1.0-731.0","0","0","81354","","null","","","null","81","","","","","","","","","","","","","","","",""
"","ISI","","html-keyboard-response","534","687305","0.0-1.0-732.0","0","0","81354","","null","","","null","81","NaN","","","","","","","","","","","","","","",""
"","S2","","html-keyboard-response","535","687561","0.0-1.0-733.0","0","0","81354","","null","","","null","81","","NaN","","","","","","","","","","","","","",""
"","response","","html-keyboard-response","536","688080","0.0-1.0-734.0-0.0","0","0","81354","","518","","","68","81","","","2","81","training","adjacent","DC","4","3","L.jpg","P.jpg","1","0","0","",""
"","feedback","","html-keyboard-response","537","689087","0.0-1.0-735.0-0.0","0","0","81354","","null","","","null","81","","","","","","","","","","","","","","","",""
"","time_out","","html-keyboard-response","538","691095","0.0-1.0-737.0-0.0","0","0","81354","","null","","","null","81","","","","","","","","","","","","","","","",""
"","ITI","","html-keyboard-response","539","692101","0.0-1.0-738.0","0","0","81354","","null","","","null","81","","","","","","","","","","","","","","","NaN",""
"","S1","","html-keyboard-response","540","692356","0.0-1.0-740.0","0","0","81354","","null","","","null","82","","","","","","","","","","","","","","","",""
"","ISI","","html-keyboard-response","541","692886","0.0-1.0-741.0","0","0","81354","","null","","","null","82","NaN","","","","","","","","","","","","","","",""
"","S2","","html-keyboard-response","542","693143","0.0-1.0-742.0","0","0","81354","","null","","","null","82","","NaN","","","","","","","","","","","","","",""
"","response","","html-keyboard-response","543","693622","0.0-1.0-743.0-0.0","0","0","81354","","477","","","68","82","","","2","82","training","adjacent","DC","4","3","L.jpg","P.jpg","1","0","0","",""
"","feedback","","html-keyboard-response","544","694627","0.0-1.0-744.0-0.0","0","0","81354","","null","","","null","82","","","","","","","","","","","","","","","",""
"","time_out","","html-keyboard-response","545","696632","0.0-1.0-746.0-0.0","0","0","81354","","null","","","null","82","","","","","","","","","","","","","","","",""
"","ITI","","html-keyboard-response","546","697637","0.0-1.0-747.0","0","0","81354","","null","","","null","82","","","","","","","","","","","","","","","NaN",""
"","S1","","html-keyboard-response","547","697899","0.0-1.0-749.0","0","0","81354","","null","","","null","83","","","","","","","","","","","","","","","",""
"","ISI","","html-keyboard-response","548","698406","0.0-1.0-750.0","0","0","81354","","null","","","null","83","NaN","","","","","","","","","","","","","","",""
"","S2","","html-keyboard-response","549","698666","0.0-1.0-751.0","0","0","81354","","null","","","null","83","","NaN","","","","","","","","","","","","","",""
"","response","","html-keyboard-response","550","699153","0.0-1.0-752.0-0.0","0","0","81354","","485","","","75","83","","","2","83","training","adjacent","BC","2","3","N.jpg","P.jpg","0","1","0","",""
"","feedback","","html-keyboard-response","551","700160","0.0-1.0-753.0-0.0","0","0","81354","","null","","","null","83","","","","","","","","","","","","","","","",""
"","time_out","","html-keyboard-response","552","702168","0.0-1.0-755.0-0.0","0","0","81354","","null","","","null","83","","","","","","","","","","","","","","","",""
"","ITI","","html-keyboard-response","553","703174","0.0-1.0-756.0","0","0","81354","","null","","","null","83","","","","","","","","","","","","","","","NaN",""
"","S1","","html-keyboard-response","554","703432","0.0-1.0-758.0","0","0","81354","","null","","","null","84","","","","","","","","","","","","","","","",""
"","ISI","","html-keyboard-response","555","703939","0.0-1.0-759.0","0","0","81354","","null","","","null","84","NaN","","","","","","","","","","","","","","",""
"","S2","","html-keyboard-response","556","704205","0.0-1.0-760.0","0","0","81354","","null","","","null","84","","NaN","","","","","","","","","","","","","",""
"","response","","html-keyboard-response","557","705186","0.0-1.0-761.0-0.0","0","0","81354","","980","","","75","84","","","2","84","training","adjacent","AB","1","2","R.jpg","N.jpg","0","1","0","",""
"","feedback","","html-keyboard-response","558","706190","0.0-1.0-762.0-0.0","0","0","81354","","null","","","null","84","","","","","","","","","","","","","","","",""
"","time_out","","html-keyboard-response","559","708221","0.0-1.0-764.0-0.0","0","0","81354","","null","","","null","84","","","","","","","","","","","","","","","",""
"","ITI","","html-keyboard-response","560","709230","0.0-1.0-765.0","0","0","81354","","null","","","null","84","","","","","","","","","","","","","","","NaN",""
"","S1","","html-keyboard-response","561","709485","0.0-1.0-767.0","0","0","81354","","null","","","null","85","","","","","","","","","","","","","","","",""
"","ISI","","html-keyboard-response","562","710013","0.0-1.0-768.0","0","0","81354","","null","","","null","85","NaN","","","","","","","","","","","","","","",""
"","S2","","html-keyboard-response","563","710321","0.0-1.0-769.0","0","0","81354","","null","","","null","85","","NaN","","","","","","","","","","","","","",""
"","response","","html-keyboard-response","564","710822","0.0-1.0-770.0-0.0","0","0","81354","","498","","","75","85","","","2","85","training","adjacent","ED","5","4","Q.jpg","L.jpg","0","0","1","",""
"","feedback","","html-keyboard-response","565","711831","0.0-1.0-771.0-0.0","0","0","81354","","null","","","null","85","","","","","","","","","","","","","","","",""
"","ITI","","html-keyboard-response","566","712842","0.0-1.0-774.0","0","0","81354","","null","","","null","85","","","","","","","","","","","","","","","NaN",""
"","S1","","html-keyboard-response","567","713097","0.0-1.0-776.0","0","0","81354","","null","","","null","86","","","","","","","","","","","","","","","",""
"","ISI","","html-keyboard-response","568","713598","0.0-1.0-777.0","0","0","81354","","null","","","null","86","NaN","","","","","","","","","","","","","","",""
"","S2","","html-keyboard-response","569","713855","0.0-1.0-778.0","0","0","81354","","null","","","null","86","","NaN","","","","","","","","","","","","","",""
"","response","","html-keyboard-response","570","714294","0.0-1.0-779.0-0.0","0","0","81354","","436","","","68","86","","","2","86","training","adjacent","FE","6","5","M.jpg","Q.jpg","1","0","0","",""
"","feedback","","html-keyboard-response","571","715301","0.0-1.0-780.0-0.0","0","0","81354","","null","","","null","86","","","","","","","","","","","","","","","",""
"","time_out","","html-keyboard-response","572","717308","0.0-1.0-782.0-0.0","0","0","81354","","null","","","null","86","","","","","","","","","","","","","","","",""
"","ITI","","html-keyboard-response","573","718395","0.0-1.0-783.0","0","0","81354","","null","","","null","86","","","","","","","","","","","","","","","NaN",""
"","S1","","html-keyboard-response","574","718652","0.0-1.0-785.0","0","0","81354","","null","","","null","87","","","","","","","","","","","","","","","",""
"","ISI","","html-keyboard-response","575","719161","0.0-1.0-786.0","0","0","81354","","null","","","null","87","NaN","","","","","","","","","","","","","","",""
"","S2","","html-keyboard-response","576","719416","0.0-1.0-787.0","0","0","81354","","null","","","null","87","","NaN","","","","","","","","","","","","","",""
"","response","","html-keyboard-response","577","720190","0.0-1.0-788.0-0.0","0","0","81354","","773","","","68","87","","","2","87","training","adjacent","ED","5","4","Q.jpg","L.jpg","1","0","0","",""
"","feedback","","html-keyboard-response","578","721199","0.0-1.0-789.0-0.0","0","0","81354","","null","","","null","87","","","","","","","","","","","","","","","",""
