"success","ttype","start_time","trial_type","trial_index","time_elapsed","internal_node_id","warning","missed_checkup","PID","view_history","rt","responses","repeat_instructions","key_press","index","keypress_isi","keypress_S2","block","trial_num","phase","group_type","pair_type","S1_stim","S2_stim","S1_img","S2_img","S1_chosen","S1_higher","accuracy","keypress_iti","total_bonus_tally"
"true","full_screen","d04152023hr0037","fullscreen","0","25334","0.0-0.0","0","0","52767","","","","","","","","","","","","","","","","","","","","","",""
"","instructions","","instructions","1","70950","0.0-1.0-0.0-0.0","0","0","52767","[{""page_index"":0,""viewing_time"":5778},{""page_index"":1,""viewing_time"":26042},{""page_index"":2,""viewing_time"":11152},{""page_index"":3,""viewing_time"":2642}]","45614","","","","","","","","","","","","","","","","","","","",""
"","comprehension_check","","survey-multi-choice","2","96074","0.0-1.0-0.0-1.0","0","0","52767","","25119","{""Q0"":""True"",""Q1"":""K"",""Q2"":""Once the second image appears and while the screen 'MAKE A CHOICE' is shown"",""Q3"":""Green mark"",""Q4"":""either D or K""}","0","","","","","","","","","","","","","","","","","",""
"","start_exp","","html-keyboard-response","3","98444","0.0-1.0-1.0","0","0","52767","","2367","","","32","","","","","","","","","","","","","","","","",""
"","S1","","html-keyboard-response","4","98704","0.0-1.0-2.0","0","0","52767","","null","","","null","0","","","","","","","","","","","","","","","",""
"","ISI","","html-keyboard-response","5","99708","0.0-1.0-3.0","0","0","52767","","null","","","null","0","NaN","","","","","","","","","","","","","","",""
"","S2","","html-keyboard-response","6","99963","0.0-1.0-4.0","0","0","52767","","null","","","null","0","","NaN","","","","","","","","","","","","","",""
"","response","","html-keyboard-response","7","101191","0.0-1.0-5.0-0.0","0","0","52767","","1226","","","68","0","","","1","0","training","adjacent","ED","5","4","L.jpg","R.jpg","0","0","1","",""
"","feedback","","html-keyboard-response","8","102199","0.0-1.0-6.0-0.0","0","0","52767","","null","","","null","0","","","","","","","","","","","","","","","",""
"","ITI","","html-keyboard-response","9","103204","0.0-1.0-9.0","0","0","52767","","null","","","null","0","","","","","","","","","","","","","","","NaN",""
"","S1","","html-keyboard-response","10","103465","0.0-1.0-11.0","0","0","52767","","null","","","null","1","","","","","","","","","","","","","","","",""
"","ISI","","html-keyboard-response","11","104470","0.0-1.0-12.0","0","0","52767","","null","","","null","1","NaN","","","","","","","","","","","","","","",""
"","S2","","html-keyboard-response","12","104725","0.0-1.0-13.0","0","0","52767","","null","","","null","1","","NaN","","","","","","","","","","","","","",""
"","response","","html-keyboard-response","13","105742","0.0-1.0-14.0-0.0","0","0","52767","","1015","","","75","1","","","1","1","training","adjacent","BC","2","3","N.jpg","Q.jpg","1","1","1","",""
"","feedback","","html-keyboard-response","14","106749","0.0-1.0-15.0-0.0","0","0","52767","","null","","","null","1","","","","","","","","","","","","","","","",""
"","ITI","","html-keyboard-response","15","107759","0.0-1.0-18.0","0","0","52767","","null","","","null","1","","","","","","","","","","","","","","","NaN",""
"","S1","","html-keyboard-response","16","108021","0.0-1.0-20.0","0","0","52767","","null","","","null","2","","","","","","","","","","","","","","","",""
"","ISI","","html-keyboard-response","17","109032","0.0-1.0-21.0","0","0","52767","","null","","","null","2","NaN","","","","","","","","","","","","","","",""
"","S2","","html-keyboard-response","18","109293","0.0-1.0-22.0","0","0","52767","","null","","","null","2","","NaN","","","","","","","","","","","","","",""
"","response","","html-keyboard-response","19","109866","0.0-1.0-23.0-0.0","0","0","52767","","570","","","68","2","","","1","2","training","adjacent","CB","3","2","Q.jpg","N.jpg","0","0","1","",""
"","feedback","","html-keyboard-response","20","110877","0.0-1.0-24.0-0.0","0","0","52767","","null","","","null","2","","","","","","","","","","","","","","","",""
"","ITI","","html-keyboard-response","21","111888","0.0-1.0-27.0","0","0","52767","","null","","","null","2","","","","","","","","","","","","","","","NaN",""
"","S1","","html-keyboard-response","22","112143","0.0-1.0-29.0","0","0","52767","","null","","","null","3","","","","","","","","","","","","","","","",""
"","ISI","","html-keyboard-response","23","113148","0.0-1.0-30.0","0","0","52767","","null","","","null","3","NaN","","","","","","","","","","","","","","",""
"","S2","","html-keyboard-response","24","113409","0.0-1.0-31.0","0","0","52767","","null","","","null","3","","NaN","","","","","","","","","","","","","",""
"","response","","html-keyboard-response","25","114403","0.0-1.0-32.0-0.0","0","0","52767","","993","","","68","3","","","1","3","training","adjacent","GF","7","6","M.jpg","O.jpg","0","0","1","",""
"","feedback","","html-keyboard-response","26","115411","0.0-1.0-33.0-0.0","0","0","52767","","null","","","null","3","","","","","","","","","","","","","","","",""
"","ITI","","html-keyboard-response","27","116424","0.0-1.0-36.0","0","0","52767","","null","","","null","3","","","","","","","","","","","","","","","NaN",""
"","S1","","html-keyboard-response","28","116688","0.0-1.0-38.0","0","0","52767","","null","","","null","4","","","","","","","","","","","","","","","",""
"","ISI","","html-keyboard-response","29","117693","0.0-1.0-39.0","0","0","52767","","null","","","null","4","NaN","","","","","","","","","","","","","","",""
"","S2","","html-keyboard-response","30","117948","0.0-1.0-40.0","0","0","52767","","null","","","null","4","","NaN","","","","","","","","","","","","","",""
"","response","","html-keyboard-response","31","119709","0.0-1.0-41.0-0.0","0","0","52767","","null","","","null","4","","","1","4","training","adjacent","DC","4","3","R.jpg","Q.jpg","NaN","0","0","",""
"","too_slow_prompt","","html-keyboard-response","32","120716","0.0-1.0-43.0-0.0","1","0","52767","","null","","","null","","","","","","","","","","","","","","","","",""
"","time_out","","html-keyboard-response","33","122725","0.0-1.0-44.0-0.0","0","0","52767","","null","","","null","4","","","","","","","","","","","","","","","",""
"","ITI","","html-keyboard-response","34","123736","0.0-1.0-45.0","0","0","52767","","null","","","null","4","","","","","","","","","","","","","","","NaN",""
"","S1","","html-keyboard-response","35","123996","0.0-1.0-47.0","0","0","52767","","null","","","null","5","","","","","","","","","","","","","","","",""
"","ISI","","html-keyboard-response","36","125006","0.0-1.0-48.0","0","0","52767","","null","","","null","5","NaN","","","","","","","","","","","","","","",""
"","S2","","html-keyboard-response","37","125263","0.0-1.0-49.0","0","0","52767","","null","","","null","5","","NaN","","","","","","","","","","","","","",""
"","response","","html-keyboard-response","38","125976","0.0-1.0-50.0-0.0","0","0","52767","","712","","","68","5","","","1","5","training","adjacent","AB","1","2","P.jpg","N.jpg","0","1","0","",""
"","feedback","","html-keyboard-response","39","126981","0.0-1.0-51.0-0.0","0","0","52767","","null","","","null","5","","","","","","","","","","","","","","","",""
"","time_out","","html-keyboard-response","40","128989","0.0-1.0-53.0-0.0","0","0","52767","","null","","","null","5","","","","","","","","","","","","","","","",""
"","ITI","","html-keyboard-response","41","129999","0.0-1.0-54.0","0","0","52767","","null","","","null","5","","","","","","","","","","","","","","","NaN",""
"","S1","","html-keyboard-response","42","130254","0.0-1.0-56.0","0","0","52767","","null","","","null","6","","","","","","","","","","","","","","","",""
"","ISI","","html-keyboard-response","43","131261","0.0-1.0-57.0","0","0","52767","","null","","","null","6","NaN","","","","","","","","","","","","","","",""
"","S2","","html-keyboard-response","44","131520","0.0-1.0-58.0","0","0","52767","","null","","","null","6","","NaN","","","","","","","","","","","","","",""
"","response","","html-keyboard-response","45","132168","0.0-1.0-59.0-0.0","0","0","52767","","646","","","68","6","","","1","6","training","adjacent","CD","3","4","Q.jpg","R.jpg","0","1","0","",""
"","feedback","","html-keyboard-response","46","133175","0.0-1.0-60.0-0.0","0","0","52767","","null","","","null","6","","","","","","","","","","","","","","","",""
"","time_out","","html-keyboard-response","47","135183","0.0-1.0-62.0-0.0","0","0","52767","","null","","","null","6","","","","","","","","","","","","","","","",""
"","ITI","","html-keyboard-response","48","136189","0.0-1.0-63.0","0","0","52767","","null","","","null","6","","","","","","","","","","","","","","","NaN",""
"","S1","","html-keyboard-response","49","136449","0.0-1.0-65.0","0","0","52767","","null","","","null","7","","","","","","","","","","","","","","","",""
"","ISI","","html-keyboard-response","50","137456","0.0-1.0-66.0","0","0","52767","","null","","","null","7","NaN","","","","","","","","","","","","","","",""
"","S2","","html-keyboard-response","51","137720","0.0-1.0-67.0","0","0","52767","","null","","","null","7","","NaN","","","","","","","","","","","","","",""
"","response","","html-keyboard-response","52","138297","0.0-1.0-68.0-0.0","0","0","52767","","574","","","68","7","","","1","7","training","adjacent","DE","4","5","R.jpg","L.jpg","0","1","0","",""
"","feedback","","html-keyboard-response","53","139303","0.0-1.0-69.0-0.0","0","0","52767","","null","","","null","7","","","","","","","","","","","","","","","",""
"","time_out","","html-keyboard-response","54","141309","0.0-1.0-71.0-0.0","0","0","52767","","null","","","null","7","","","","","","","","","","","","","","","",""
"","ITI","","html-keyboard-response","55","142317","0.0-1.0-72.0","0","0","52767","","null","","","null","7","","","","","","","","","","","","","","","NaN",""
"","S1","","html-keyboard-response","56","142573","0.0-1.0-74.0","0","0","52767","","null","","","null","8","","","","","","","","","","","","","","","",""
"","ISI","","html-keyboard-response","57","143583","0.0-1.0-75.0","0","0","52767","","null","","","null","8","NaN","","","","","","","","","","","","","","",""
"","S2","","html-keyboard-response","58","143844","0.0-1.0-76.0","0","0","52767","","null","","","null","8","","NaN","","","","","","","","","","","","","",""
"","response","","html-keyboard-response","59","144268","0.0-1.0-77.0-0.0","0","0","52767","","423","","","68","8","","","1","8","training","adjacent","GF","7","6","M.jpg","O.jpg","0","0","1","",""
"","feedback","","html-keyboard-response","60","145278","0.0-1.0-78.0-0.0","0","0","52767","","null","","","null","8","","","","","","","","","","","","","","","",""
"","ITI","","html-keyboard-response","61","146285","0.0-1.0-81.0","0","0","52767","","null","","","null","8","","","","","","","","","","","","","","","NaN",""
"","S1","","html-keyboard-response","62","146543","0.0-1.0-83.0","0","0","52767","","null","","","null","9","","","","","","","","","","","","","","","",""
"","ISI","","html-keyboard-response","63","147548","0.0-1.0-84.0","0","0","52767","","null","","","null","9","NaN","","","","","","","","","","","","","","",""
"","S2","","html-keyboard-response","64","147805","0.0-1.0-85.0","0","0","52767","","null","","","null","9","","NaN","","","","","","","","","","","","","",""
"","response","","html-keyboard-response","65","148191","0.0-1.0-86.0-0.0","0","0","52767","","384","","","75","9","","","1","9","training","adjacent","BA","2","1","N.jpg","P.jpg","1","0","0","",""
"","feedback","","html-keyboard-response","66","149197","0.0-1.0-87.0-0.0","0","0","52767","","null","","","null","9","","","","","","","","","","","","","","","",""
"","time_out","","html-keyboard-response","67","151204","0.0-1.0-89.0-0.0","0","0","52767","","null","","","null","9","","","","","","","","","","","","","","","",""
"","ITI","","html-keyboard-response","68","152215","0.0-1.0-90.0","0","0","52767","","null","","","null","9","","","","","","","","","","","","","","","NaN",""
"","S1","","html-keyboard-response","69","152471","0.0-1.0-92.0","0","0","52767","","null","","","null","10","","","","","","","","","","","","","","","",""
"","ISI","","html-keyboard-response","70","153480","0.0-1.0-93.0","0","0","52767","","null","","","null","10","NaN","","","","","","","","","","","","","","",""
"","S2","","html-keyboard-response","71","153741","0.0-1.0-94.0","0","0","52767","","null","","","null","10","","NaN","","","","","","","","","","","","","",""
"","response","","html-keyboard-response","72","153856","0.0-1.0-95.0-0.0","0","0","52767","","113","","","68","10","","","1","10","training","adjacent","AB","1","2","P.jpg","N.jpg","0","1","0","",""
"","feedback","","html-keyboard-response","73","154862","0.0-1.0-96.0-0.0","0","0","52767","","null","","","null","10","","","","","","","","","","","","","","","",""
"","time_out","","html-keyboard-response","74","156871","0.0-1.0-98.0-0.0","0","0","52767","","null","","","null","10","","","","","","","","","","","","","","","",""
"","ITI","","html-keyboard-response","75","157881","0.0-1.0-99.0","0","0","52767","","null","","","null","10","","","","","","","","","","","","","","","NaN",""
"","S1","","html-keyboard-response","76","158143","0.0-1.0-101.0","0","0","52767","","null","","","null","11","","","","","","","","","","","","","","","",""
"","ISI","","html-keyboard-response","77","159152","0.0-1.0-102.0","0","0","52767","","null","","","null","11","NaN","","","","","","","","","","","","","","",""
"","S2","","html-keyboard-response","78","159414","0.0-1.0-103.0","0","0","52767","","null","","","null","11","","NaN","","","","","","","","","","","","","",""
"","response","","html-keyboard-response","79","159683","0.0-1.0-104.0-0.0","0","0","52767","","267","","","75","11","","","1","11","training","adjacent","AB","1","2","P.jpg","N.jpg","1","1","1","",""
"","feedback","","html-keyboard-response","80","160696","0.0-1.0-105.0-0.0","0","0","52767","","null","","","null","11","","","","","","","","","","","","","","","",""
"","ITI","","html-keyboard-response","81","161701","0.0-1.0-108.0","0","0","52767","","null","","","null","11","","","","","","","","","","","","","","","NaN",""
"","S1","","html-keyboard-response","82","161956","0.0-1.0-110.0","0","0","52767","","null","","","null","12","","","","","","","","","","","","","","","",""
"","ISI","","html-keyboard-response","83","162967","0.0-1.0-111.0","0","0","52767","","null","","","null","12","NaN","","","","","","","","","","","","","","",""
"","S2","","html-keyboard-response","84","163222","0.0-1.0-112.0","0","0","52767","","null","","","null","12","","NaN","","","","","","","","","","","","","",""
"","response","","html-keyboard-response","85","163611","0.0-1.0-113.0-0.0","0","0","52767","","387","","","68","12","","","1","12","training","adjacent","BA","2","1","N.jpg","P.jpg","0","0","1","",""
"","feedback","","html-keyboard-response","86","164621","0.0-1.0-114.0-0.0","0","0","52767","","null","","","null","12","","","","","","","","","","","","","","","",""
"","ITI","","html-keyboard-response","87","165630","0.0-1.0-117.0","0","0","52767","","null","","","null","12","","","","","","","","","","","","","","","NaN",""
"","S1","","html-keyboard-response","88","165885","0.0-1.0-119.0","0","0","52767","","null","","","null","13","","","","","","","","","","","","","","","",""
"","ISI","","html-keyboard-response","89","166897","0.0-1.0-120.0","0","0","52767","","null","","","null","13","NaN","","","","","","","","","","","","","","",""
"","S2","","html-keyboard-response","90","167162","0.0-1.0-121.0","0","0","52767","","null","","","null","13","","NaN","","","","","","","","","","","","","",""
"","response","","html-keyboard-response","91","167633","0.0-1.0-122.0-0.0","0","0","52767","","470","","","75","13","","","1","13","training","adjacent","DE","4","5","R.jpg","L.jpg","1","1","1","",""
"","feedback","","html-keyboard-response","92","168638","0.0-1.0-123.0-0.0","0","0","52767","","null","","","null","13","","","","","","","","","","","","","","","",""
"","ITI","","html-keyboard-response","93","169647","0.0-1.0-126.0","0","0","52767","","null","","","null","13","","","","","","","","","","","","","","","NaN",""
"","S1","","html-keyboard-response","94","169903","0.0-1.0-128.0","0","0","52767","","null","","","null","14","","","","","","","","","","","","","","","",""
"","ISI","","html-keyboard-response","95","170913","0.0-1.0-129.0","0","0","52767","","null","","","null","14","NaN","","","","","","","","","","","","","","",""
"","S2","","html-keyboard-response","96","171175","0.0-1.0-130.0","0","0","52767","","null","","","null","14","","NaN","","","","","","","","","","","","","",""
"","response","","html-keyboard-response","97","171551","0.0-1.0-131.0-0.0","0","0","52767","","375","","","75","14","","","1","14","training","adjacent","GF","7","6","M.jpg","O.jpg","1","0","0","",""
"","feedback","","html-keyboard-response","98","172556","0.0-1.0-132.0-0.0","0","0","52767","","null","","","null","14","","","","","","","","","","","","","","","",""
"","time_out","","html-keyboard-response","99","174564","0.0-1.0-134.0-0.0","0","0","52767","","null","","","null","14","","","","","","","","","","","","","","","",""
"","ITI","","html-keyboard-response","100","175574","0.0-1.0-135.0","0","0","52767","","null","","","null","14","","","","","","","","","","","","","","","NaN",""
"","S1","","html-keyboard-response","101","175830","0.0-1.0-137.0","0","0","52767","","null","","","null","15","","","","","","","","","","","","","","","",""
"","ISI","","html-keyboard-response","102","176840","0.0-1.0-138.0","0","0","52767","","null","","","null","15","NaN","","","","","","","","","","","","","","",""
"","S2","","html-keyboard-response","103","177101","0.0-1.0-139.0","0","0","52767","","null","","","null","15","","NaN","","","","","","","","","","","","","",""
"","response","","html-keyboard-response","104","177375","0.0-1.0-140.0-0.0","0","0","52767","","272","","","68","15","","","1","15","training","adjacent","CB","3","2","Q.jpg","N.jpg","0","0","1","",""
"","feedback","","html-keyboard-response","105","178382","0.0-1.0-141.0-0.0","0","0","52767","","null","","","null","15","","","","","","","","","","","","","","","",""
"","ITI","","html-keyboard-response","106","179389","0.0-1.0-144.0","0","0","52767","","null","","","null","15","","","","","","","","","","","","","","","NaN",""
"","S1","","html-keyboard-response","107","179644","0.0-1.0-146.0","0","0","52767","","null","","","null","16","","","","","","","","","","","","","","","",""
"","ISI","","html-keyboard-response","108","180654","0.0-1.0-147.0","0","0","52767","","null","","","null","16","NaN","","","","","","","","","","","","","","",""
"","S2","","html-keyboard-response","109","180910","0.0-1.0-148.0","0","0","52767","","null","","","null","16","","NaN","","","","","","","","","","","","","",""
"","response","","html-keyboard-response","110","181385","0.0-1.0-149.0-0.0","0","0","52767","","474","","","75","16","","","1","16","training","adjacent","BC","2","3","N.jpg","Q.jpg","1","1","1","",""
"","feedback","","html-keyboard-response","111","182389","0.0-1.0-150.0-0.0","0","0","52767","","null","","","null","16","","","","","","","","","","","","","","","",""
"","ITI","","html-keyboard-response","112","183399","0.0-1.0-153.0","0","0","52767","","null","","","null","16","","","","","","","","","","","","","","","NaN",""
"","S1","","html-keyboard-response","113","183656","0.0-1.0-155.0","0","0","52767","","null","","","null","17","","","","","","","","","","","","","","","",""
"","ISI","","html-keyboard-response","114","184664","0.0-1.0-156.0","0","0","52767","","null","","","null","17","NaN","","","","","","","","","","","","","","",""
"","S2","","html-keyboard-response","115","184921","0.0-1.0-157.0","0","0","52767","","null","","","null","17","","NaN","","","","","","","","","","","","","",""
"","response","","html-keyboard-response","116","185233","0.0-1.0-158.0-0.0","0","0","52767","","309","","","68","17","","","1","17","training","adjacent","DC","4","3","R.jpg","Q.jpg","0","0","1","",""
"","feedback","","html-keyboard-response","117","186239","0.0-1.0-159.0-0.0","0","0","52767","","null","","","null","17","","","","","","","","","","","","","","","",""
"","ITI","","html-keyboard-response","118","187249","0.0-1.0-162.0","0","0","52767","","null","","","null","17","","","","","","","","","","","","","","","NaN",""
"","S1","","html-keyboard-response","119","187510","0.0-1.0-164.0","0","0","52767","","null","","","null","18","","","","","","","","","","","","","","","",""
"","ISI","","html-keyboard-response","120","188520","0.0-1.0-165.0","0","0","52767","","null","","","null","18","NaN","","","","","","","","","","","","","","",""
"","S2","","html-keyboard-response","121","188775","0.0-1.0-166.0","0","0","52767","","null","","","null","18","","NaN","","","","","","","","","","","","","",""
"","response","","html-keyboard-response","122","189089","0.0-1.0-167.0-0.0","0","0","52767","","311","","","75","18","","","1","18","training","adjacent","ED","5","4","L.jpg","R.jpg","1","0","0","",""
"","feedback","","html-keyboard-response","123","190094","0.0-1.0-168.0-0.0","0","0","52767","","null","","","null","18","","","","","","","","","","","","","","","",""
"","time_out","","html-keyboard-response","124","192101","0.0-1.0-170.0-0.0","0","0","52767","","null","","","null","18","","","","","","","","","","","","","","","",""
"","ITI","","html-keyboard-response","125","193111","0.0-1.0-171.0","0","0","52767","","null","","","null","18","","","","","","","","","","","","","","","NaN",""
"","S1","","html-keyboard-response","126","193368","0.0-1.0-173.0","0","0","52767","","null","","","null","19","","","","","","","","","","","","","","","",""
"","ISI","","html-keyboard-response","127","194377","0.0-1.0-174.0","0","0","52767","","null","","","null","19","NaN","","","","","","","","","","","","","","",""
"","S2","","html-keyboard-response","128","194625","0.0-1.0-175.0","0","0","52767","","246","","","68","19","","d","1","19","training","adjacent","EF","5","6","L.jpg","O.jpg","0","1","0","",""
"","feedback","","html-keyboard-response","129","195631","0.0-1.0-177.0-0.0","0","0","52767","","null","","","null","19","","","","","","","","","","","","","","","",""
"","time_out","","html-keyboard-response","130","197639","0.0-1.0-179.0-0.0","0","0","52767","","null","","","null","19","","","","","","","","","","","","","","","",""
"","ITI","","html-keyboard-response","131","198646","0.0-1.0-180.0","0","0","52767","","null","","","null","19","","","","","","","","","","","","","","","NaN",""
"","S1","","html-keyboard-response","132","198905","0.0-1.0-182.0","0","0","52767","","null","","","null","20","","","","","","","","","","","","","","","",""
"","ISI","","html-keyboard-response","133","199910","0.0-1.0-183.0","0","0","52767","","null","","","null","20","NaN","","","","","","","","","","","","","","",""
"","S2","","html-keyboard-response","134","200165","0.0-1.0-184.0","0","0","52767","","null","","","null","20","","NaN","","","","","","","","","","","","","",""
"","response","","html-keyboard-response","135","200409","0.0-1.0-185.0-0.0","0","0","52767","","241","","","75","20","","","1","20","training","adjacent","BA","2","1","N.jpg","P.jpg","1","0","0","",""
"","feedback","","html-keyboard-response","136","201413","0.0-1.0-186.0-0.0","0","0","52767","","null","","","null","20","","","","","","","","","","","","","","","",""
"","time_out","","html-keyboard-response","137","203421","0.0-1.0-188.0-0.0","0","0","52767","","null","","","null","20","","","","","","","","","","","","","","","",""
"","ITI","","html-keyboard-response","138","204431","0.0-1.0-189.0","0","0","52767","","null","","","null","20","","","","","","","","","","","","","","","NaN",""
"","S1","","html-keyboard-response","139","204687","0.0-1.0-191.0","0","0","52767","","null","","","null","21","","","","","","","","","","","","","","","",""
"","ISI","","html-keyboard-response","140","205697","0.0-1.0-192.0","0","0","52767","","null","","","null","21","NaN","","","","","","","","","","","","","","",""
"","S2","","html-keyboard-response","141","205957","0.0-1.0-193.0","0","0","52767","","null","","","null","21","","NaN","","","","","","","","","","","","","",""
"","response","","html-keyboard-response","142","205999","0.0-1.0-194.0-0.0","0","0","52767","","40","","","68","21","","","1","21","training","adjacent","ED","5","4","L.jpg","R.jpg","0","0","1","",""
"","feedback","","html-keyboard-response","143","207009","0.0-1.0-195.0-0.0","0","0","52767","","null","","","null","21","","","","","","","","","","","","","","","",""
"","ITI","","html-keyboard-response","144","208014","0.0-1.0-198.0","0","0","52767","","null","","","null","21","","","","","","","","","","","","","","","NaN",""
"","S1","","html-keyboard-response","145","208269","0.0-1.0-200.0","0","0","52767","","null","","","null","22","","","","","","","","","","","","","","","",""
"","ISI","","html-keyboard-response","146","209279","0.0-1.0-201.0","0","0","52767","","null","","","null","22","NaN","","","","","","","","","","","","","","",""
"","S2","","html-keyboard-response","147","209534","0.0-1.0-202.0","0","0","52767","","null","","","null","22","","NaN","","","","","","","","","","","","","",""
"","response","","html-keyboard-response","148","209595","0.0-1.0-203.0-0.0","0","0","52767","","58","","","75","22","","","1","22","training","adjacent","FG","6","7","O.jpg","M.jpg","1","1","1","",""
"","feedback","","html-keyboard-response","149","210608","0.0-1.0-204.0-0.0","0","0","52767","","null","","","null","22","","","","","","","","","","","","","","","",""
"","ITI","","html-keyboard-response","150","211613","0.0-1.0-207.0","0","0","52767","","null","","","null","22","","","","","","","","","","","","","","","NaN",""
"","S1","","html-keyboard-response","151","211870","0.0-1.0-209.0","0","0","52767","","null","","","null","23","","","","","","","","","","","","","","","",""
"","ISI","","html-keyboard-response","152","212877","0.0-1.0-210.0","0","0","52767","","null","","","null","23","NaN","","","","","","","","","","","","","","",""
"","S2","","html-keyboard-response","153","213134","0.0-1.0-211.0","0","0","52767","","null","","","null","23","","NaN","","","","","","","","","","","","","",""
"","response","","html-keyboard-response","154","213560","0.0-1.0-212.0-0.0","0","0","52767","","424","","","68","23","","","1","23","training","adjacent","EF","5","6","L.jpg","O.jpg","0","1","0","",""
"","feedback","","html-keyboard-response","155","214567","0.0-1.0-213.0-0.0","0","0","52767","","null","","","null","23","","","","","","","","","","","","","","","",""
"","time_out","","html-keyboard-response","156","216575","0.0-1.0-215.0-0.0","0","0","52767","","null","","","null","23","","","","","","","","","","","","","","","",""
"","ITI","","html-keyboard-response","157","217582","0.0-1.0-216.0","0","0","52767","","null","","","null","23","","","","","","","","","","","","","","","NaN",""
"","S1","","html-keyboard-response","158","217842","0.0-1.0-218.0","0","0","52767","","null","","","null","24","","","","","","","","","","","","","","","",""
"","ISI","","html-keyboard-response","159","218846","0.0-1.0-219.0","0","0","52767","","185","","","75","24","k","","","","","","","","","","","","","","",""
"","S2","","html-keyboard-response","160","219101","0.0-1.0-220.0","0","0","52767","","null","","","null","24","","NaN","","","","","","","","","","","","","",""
"","response","","html-keyboard-response","161","219120","0.0-1.0-221.0-0.0","0","0","52767","","17","","","68","24","","","1","24","training","adjacent","FE","6","5","O.jpg","L.jpg","0","0","1","",""
"","feedback","","html-keyboard-response","162","220129","0.0-1.0-222.0-0.0","0","0","52767","","null","","","null","24","","","","","","","","","","","","","","","",""
"","ITI","","html-keyboard-response","163","221133","0.0-1.0-225.0","0","0","52767","","null","","","null","24","","","","","","","","","","","","","","","NaN",""
"","S1","","html-keyboard-response","164","221394","0.0-1.0-227.0","0","0","52767","","null","","","null","25","","","","","","","","","","","","","","","",""
"","ISI","","html-keyboard-response","165","222399","0.0-1.0-228.0","0","0","52767","","null","","","null","25","NaN","","","","","","","","","","","","","","",""
"","S2","","html-keyboard-response","166","222653","0.0-1.0-229.0","0","0","52767","","null","","","null","25","","NaN","","","","","","","","","","","","","",""
"","response","","html-keyboard-response","167","223012","0.0-1.0-230.0-0.0","0","0","52767","","357","","","75","25","","","1","25","training","adjacent","FE","6","5","O.jpg","L.jpg","1","0","0","",""
"","feedback","","html-keyboard-response","168","224024","0.0-1.0-231.0-0.0","0","0","52767","","null","","","null","25","","","","","","","","","","","","","","","",""
"","time_out","","html-keyboard-response","169","226033","0.0-1.0-233.0-0.0","0","0","52767","","null","","","null","25","","","","","","","","","","","","","","","",""
"","ITI","","html-keyboard-response","170","227040","0.0-1.0-234.0","0","0","52767","","null","","","null","25","","","","","","","","","","","","","","","NaN",""
"","S1","","html-keyboard-response","171","227298","0.0-1.0-236.0","0","0","52767","","null","","","null","26","","","","","","","","","","","","","","","",""
"","ISI","","html-keyboard-response","172","228302","0.0-1.0-237.0","0","0","52767","","null","","","null","26","NaN","","","","","","","","","","","","","","",""
"","S2","","html-keyboard-response","173","228558","0.0-1.0-238.0","0","0","52767","","null","","","null","26","","NaN","","","","","","","","","","","","","",""
"","response","","html-keyboard-response","174","228864","0.0-1.0-239.0-0.0","0","0","52767","","303","","","68","26","","","1","26","training","adjacent","CB","3","2","Q.jpg","N.jpg","0","0","1","",""
"","feedback","","html-keyboard-response","175","229870","0.0-1.0-240.0-0.0","0","0","52767","","null","","","null","26","","","","","","","","","","","","","","","",""
"","ITI","","html-keyboard-response","176","230879","0.0-1.0-243.0","0","0","52767","","null","","","null","26","","","","","","","","","","","","","","","NaN",""
"","S1","","html-keyboard-response","177","231135","0.0-1.0-245.0","0","0","52767","","null","","","null","27","","","","","","","","","","","","","","","",""
"","ISI","","html-keyboard-response","178","232146","0.0-1.0-246.0","0","0","52767","","null","","","null","27","NaN","","","","","","","","","","","","","","",""
"","S2","","html-keyboard-response","179","232407","0.0-1.0-247.0","0","0","52767","","null","","","null","27","","NaN","","","","","","","","","","","","","",""
"","response","","html-keyboard-response","180","232887","0.0-1.0-248.0-0.0","0","0","52767","","479","","","75","27","","","1","27","training","adjacent","BC","2","3","N.jpg","Q.jpg","1","1","1","",""
"","feedback","","html-keyboard-response","181","233895","0.0-1.0-249.0-0.0","0","0","52767","","null","","","null","27","","","","","","","","","","","","","","","",""
"","ITI","","html-keyboard-response","182","234903","0.0-1.0-252.0","0","0","52767","","null","","","null","27","","","","","","","","","","","","","","","NaN",""
"","S1","","html-keyboard-response","183","235158","0.0-1.0-254.0","0","0","52767","","null","","","null","28","","","","","","","","","","","","","","","",""
"","ISI","","html-keyboard-response","184","236168","0.0-1.0-255.0","0","0","52767","","null","","","null","28","NaN","","","","","","","","","","","","","","",""
"","S2","","html-keyboard-response","185","236424","0.0-1.0-256.0","0","0","52767","","null","","","null","28","","NaN","","","","","","","","","","","","","",""
"","response","","html-keyboard-response","186","236726","0.0-1.0-257.0-0.0","0","0","52767","","300","","","68","28","","","1","28","training","adjacent","CB","3","2","Q.jpg","N.jpg","0","0","1","",""
"","feedback","","html-keyboard-response","187","237736","0.0-1.0-258.0-0.0","0","0","52767","","null","","","null","28","","","","","","","","","","","","","","","",""
"","ITI","","html-keyboard-response","188","238746","0.0-1.0-261.0","0","0","52767","","null","","","null","28","","","","","","","","","","","","","","","NaN",""
"","S1","","html-keyboard-response","189","239007","0.0-1.0-263.0","0","0","52767","","null","","","null","29","","","","","","","","","","","","","","","",""
"","ISI","","html-keyboard-response","190","240017","0.0-1.0-264.0","0","0","52767","","null","","","null","29","NaN","","","","","","","","","","","","","","",""
"","S2","","html-keyboard-response","191","240278","0.0-1.0-265.0","0","0","52767","","null","","","null","29","","NaN","","","","","","","","","","","","","",""
"","response","","html-keyboard-response","192","240643","0.0-1.0-266.0-0.0","0","0","52767","","363","","","75","29","","","1","29","training","adjacent","DE","4","5","R.jpg","L.jpg","1","1","1","",""
"","feedback","","html-keyboard-response","193","241653","0.0-1.0-267.0-0.0","0","0","52767","","null","","","null","29","","","","","","","","","","","","","","","",""
"","ITI","","html-keyboard-response","194","242664","0.0-1.0-270.0","0","0","52767","","null","","","null","29","","","","","","","","","","","","","","","NaN",""
"","S1","","html-keyboard-response","195","242919","0.0-1.0-272.0","0","0","52767","","null","","","null","30","","","","","","","","","","","","","","","",""
"","ISI","","html-keyboard-response","196","243929","0.0-1.0-273.0","0","0","52767","","null","","","null","30","NaN","","","","","","","","","","","","","","",""
"","S2","","html-keyboard-response","197","244191","0.0-1.0-274.0","0","0","52767","","null","","","null","30","","NaN","","","","","","","","","","","","","",""
"","response","","html-keyboard-response","198","244301","0.0-1.0-275.0-0.0","0","0","52767","","108","","","68","30","","","1","30","training","adjacent","FG","6","7","O.jpg","M.jpg","0","1","0","",""
"","feedback","","html-keyboard-response","199","245310","0.0-1.0-276.0-0.0","0","0","52767","","null","","","null","30","","","","","","","","","","","","","","","",""
"","time_out","","html-keyboard-response","200","247319","0.0-1.0-278.0-0.0","0","0","52767","","null","","","null","30","","","","","","","","","","","","","","","",""
"","ITI","","html-keyboard-response","201","248330","0.0-1.0-279.0","0","0","52767","","null","","","null","30","","","","","","","","","","","","","","","NaN",""
"","S1","","html-keyboard-response","202","248591","0.0-1.0-281.0","0","0","52767","","null","","","null","31","","","","","","","","","","","","","","","",""
"","ISI","","html-keyboard-response","203","249610","0.0-1.0-282.0","0","0","52767","","null","","","null","31","NaN","","","","","","","","","","","","","","",""
"","S2","","html-keyboard-response","204","249873","0.0-1.0-283.0","0","0","52767","","null","","","null","31","","NaN","","","","","","","","","","","","","",""
"","response","","html-keyboard-response","205","249878","0.0-1.0-284.0-0.0","0","0","52767","","2","","","75","31","","","1","31","training","adjacent","DC","4","3","R.jpg","Q.jpg","1","0","0","",""
"","feedback","","html-keyboard-response","206","250890","0.0-1.0-285.0-0.0","0","0","52767","","null","","","null","31","","","","","","","","","","","","","","","",""
"","time_out","","html-keyboard-response","207","252899","0.0-1.0-287.0-0.0","0","0","52767","","null","","","null","31","","","","","","","","","","","","","","","",""
"","ITI","","html-keyboard-response","208","253903","0.0-1.0-288.0","0","0","52767","","null","","","null","31","","","","","","","","","","","","","","","NaN",""
"","S1","","html-keyboard-response","209","254158","0.0-1.0-290.0","0","0","52767","","null","","","null","32","","","","","","","","","","","","","","","",""
"","ISI","","html-keyboard-response","210","255167","0.0-1.0-291.0","0","0","52767","","null","","","null","32","NaN","","","","","","","","","","","","","","",""
"","S2","","html-keyboard-response","211","255424","0.0-1.0-292.0","0","0","52767","","null","","","null","32","","NaN","","","","","","","","","","","","","",""
"","response","","html-keyboard-response","212","255439","0.0-1.0-293.0-0.0","0","0","52767","","12","","","68","32","","","1","32","training","adjacent","FG","6","7","O.jpg","M.jpg","0","1","0","",""
"","feedback","","html-keyboard-response","213","256447","0.0-1.0-294.0-0.0","0","0","52767","","null","","","null","32","","","","","","","","","","","","","","","",""
"","time_out","","html-keyboard-response","214","258454","0.0-1.0-296.0-0.0","0","0","52767","","null","","","null","32","","","","","","","","","","","","","","","",""
"","ITI","","html-keyboard-response","215","259463","0.0-1.0-297.0","0","0","52767","","null","","","null","32","","","","","","","","","","","","","","","NaN",""
"","S1","","html-keyboard-response","216","259719","0.0-1.0-299.0","0","0","52767","","null","","","null","33","","","","","","","","","","","","","","","",""
"","ISI","","html-keyboard-response","217","260727","0.0-1.0-300.0","0","0","52767","","null","","","null","33","NaN","","","","","","","","","","","","","","",""
"","S2","","html-keyboard-response","218","260985","0.0-1.0-301.0","0","0","52767","","null","","","null","33","","NaN","","","","","","","","","","","","","",""
"","response","","html-keyboard-response","219","261343","0.0-1.0-302.0-0.0","0","0","52767","","355","","","75","33","","","1","33","training","adjacent","FE","6","5","O.jpg","L.jpg","1","0","0","",""
"","feedback","","html-keyboard-response","220","262352","0.0-1.0-303.0-0.0","0","0","52767","","null","","","null","33","","","","","","","","","","","","","","","",""
"","time_out","","html-keyboard-response","221","264358","0.0-1.0-305.0-0.0","0","0","52767","","null","","","null","33","","","","","","","","","","","","","","","",""
"","ITI","","html-keyboard-response","222","265368","0.0-1.0-306.0","0","0","52767","","null","","","null","33","","","","","","","","","","","","","","","NaN",""
"","S1","","html-keyboard-response","223","265622","0.0-1.0-308.0","0","0","52767","","null","","","null","34","","","","","","","","","","","","","","","",""
"","ISI","","html-keyboard-response","224","266634","0.0-1.0-309.0","0","0","52767","","null","","","null","34","NaN","","","","","","","","","","","","","","",""
"","S2","","html-keyboard-response","225","266894","0.0-1.0-310.0","0","0","52767","","null","","","null","34","","NaN","","","","","","","","","","","","","",""
"","response","","html-keyboard-response","226","267046","0.0-1.0-311.0-0.0","0","0","52767","","150","","","75","34","","","1","34","training","adjacent","ED","5","4","L.jpg","R.jpg","1","0","0","",""
"","feedback","","html-keyboard-response","227","268055","0.0-1.0-312.0-0.0","0","0","52767","","null","","","null","34","","","","","","","","","","","","","","","",""
"","time_out","","html-keyboard-response","228","270064","0.0-1.0-314.0-0.0","0","0","52767","","null","","","null","34","","","","","","","","","","","","","","","",""
"","ITI","","html-keyboard-response","229","271073","0.0-1.0-315.0","0","0","52767","","null","","","null","34","","","","","","","","","","","","","","","NaN",""
"","S1","","html-keyboard-response","230","271335","0.0-1.0-317.0","0","0","52767","","null","","","null","35","","","","","","","","","","","","","","","",""
"","ISI","","html-keyboard-response","231","272345","0.0-1.0-318.0","0","0","52767","","null","","","null","35","NaN","","","","","","","","","","","","","","",""
"","S2","","html-keyboard-response","232","272606","0.0-1.0-319.0","0","0","52767","","null","","","null","35","","NaN","","","","","","","","","","","","","",""
"","response","","html-keyboard-response","233","272914","0.0-1.0-320.0-0.0","0","0","52767","","306","","","68","35","","","1","35","training","adjacent","AB","1","2","P.jpg","N.jpg","0","1","0","",""
"","feedback","","html-keyboard-response","234","273919","0.0-1.0-321.0-0.0","0","0","52767","","null","","","null","35","","","","","","","","","","","","","","","",""
"","time_out","","html-keyboard-response","235","275926","0.0-1.0-323.0-0.0","0","0","52767","","null","","","null","35","","","","","","","","","","","","","","","",""
"","ITI","","html-keyboard-response","236","276937","0.0-1.0-324.0","0","0","52767","","null","","","null","35","","","","","","","","","","","","","","","NaN",""
"","S1","","html-keyboard-response","237","277193","0.0-1.0-326.0","0","0","52767","","null","","","null","36","","","","","","","","","","","","","","","",""
"","ISI","","html-keyboard-response","238","278203","0.0-1.0-327.0","0","0","52767","","null","","","null","36","NaN","","","","","","","","","","","","","","",""
"","S2","","html-keyboard-response","239","278463","0.0-1.0-328.0","0","0","52767","","null","","","null","36","","NaN","","","","","","","","","","","","","",""
"","response","","html-keyboard-response","240","278954","0.0-1.0-329.0-0.0","0","0","52767","","488","","","75","36","","","1","36","training","adjacent","BC","2","3","N.jpg","Q.jpg","1","1","1","",""
"","feedback","","html-keyboard-response","241","279962","0.0-1.0-330.0-0.0","0","0","52767","","null","","","null","36","","","","","","","","","","","","","","","",""
"","ITI","","html-keyboard-response","242","280966","0.0-1.0-333.0","0","0","52767","","null","","","null","36","","","","","","","","","","","","","","","NaN",""
"","S1","","html-keyboard-response","243","281223","0.0-1.0-335.0","0","0","52767","","null","","","null","37","","","","","","","","","","","","","","","",""
"","ISI","","html-keyboard-response","244","282232","0.0-1.0-336.0","0","0","52767","","null","","","null","37","NaN","","","","","","","","","","","","","","",""
"","S2","","html-keyboard-response","245","282487","0.0-1.0-337.0","0","0","52767","","null","","","null","37","","NaN","","","","","","","","","","","","","",""
"","response","","html-keyboard-response","246","283238","0.0-1.0-338.0-0.0","0","0","52767","","749","","","75","37","","","1","37","training","adjacent","GF","7","6","M.jpg","O.jpg","1","0","0","",""
"","feedback","","html-keyboard-response","247","284246","0.0-1.0-339.0-0.0","0","0","52767","","null","","","null","37","","","","","","","","","","","","","","","",""
"","time_out","","html-keyboard-response","248","286255","0.0-1.0-341.0-0.0","0","0","52767","","null","","","null","37","","","","","","","","","","","","","","","",""
"","ITI","","html-keyboard-response","249","287265","0.0-1.0-342.0","0","0","52767","","null","","","null","37","","","","","","","","","","","","","","","NaN",""
"","S1","","html-keyboard-response","250","287519","0.0-1.0-344.0","0","0","52767","","null","","","null","38","","","","","","","","","","","","","","","",""
"","ISI","","html-keyboard-response","251","288530","0.0-1.0-345.0","0","0","52767","","null","","","null","38","NaN","","","","","","","","","","","","","","",""
"","S2","","html-keyboard-response","252","288791","0.0-1.0-346.0","0","0","52767","","null","","","null","38","","NaN","","","","","","","","","","","","","",""
"","response","","html-keyboard-response","253","289114","0.0-1.0-347.0-0.0","0","0","52767","","321","","","75","38","","","1","38","training","adjacent","DE","4","5","R.jpg","L.jpg","1","1","1","",""
"","feedback","","html-keyboard-response","254","290121","0.0-1.0-348.0-0.0","0","0","52767","","null","","","null","38","","","","","","","","","","","","","","","",""
"","ITI","","html-keyboard-response","255","291131","0.0-1.0-351.0","0","0","52767","","null","","","null","38","","","","","","","","","","","","","","","NaN",""
"","S1","","html-keyboard-response","256","291392","0.0-1.0-353.0","0","0","52767","","null","","","null","39","","","","","","","","","","","","","","","",""
"","ISI","","html-keyboard-response","257","292401","0.0-1.0-354.0","0","0","52767","","null","","","null","39","NaN","","","","","","","","","","","","","","",""
"","S2","","html-keyboard-response","258","292657","0.0-1.0-355.0","0","0","52767","","null","","","null","39","","NaN","","","","","","","","","","","","","",""
"","response","","html-keyboard-response","259","293102","0.0-1.0-356.0-0.0","0","0","52767","","442","","","68","39","","","1","39","training","adjacent","EF","5","6","L.jpg","O.jpg","0","1","0","",""
"","feedback","","html-keyboard-response","260","294114","0.0-1.0-357.0-0.0","0","0","52767","","null","","","null","39","","","","","","","","","","","","","","","",""
"","time_out","","html-keyboard-response","261","296122","0.0-1.0-359.0-0.0","0","0","52767","","null","","","null","39","","","","","","","","","","","","","","","",""
"","ITI","","html-keyboard-response","262","297127","0.0-1.0-360.0","0","0","52767","","null","","","null","39","","","","","","","","","","","","","","","NaN",""
"","S1","","html-keyboard-response","263","297382","0.0-1.0-362.0","0","0","52767","","null","","","null","40","","","","","","","","","","","","","","","",""
"","ISI","","html-keyboard-response","264","298392","0.0-1.0-363.0","0","0","52767","","null","","","null","40","NaN","","","","","","","","","","","","","","",""
"","S2","","html-keyboard-response","265","298641","0.0-1.0-364.0","0","0","52767","","246","","","75","40","","k","1","40","training","adjacent","FE","6","5","O.jpg","L.jpg","1","0","0","",""
"","feedback","","html-keyboard-response","266","299647","0.0-1.0-366.0-0.0","0","0","52767","","null","","","null","40","","","","","","","","","","","","","","","",""
"","time_out","","html-keyboard-response","267","301654","0.0-1.0-368.0-0.0","0","0","52767","","null","","","null","40","","","","","","","","","","","","","","","",""
"","ITI","","html-keyboard-response","268","302665","0.0-1.0-369.0","0","0","52767","","null","","","null","40","","","","","","","","","","","","","","","NaN",""
"","S1","","html-keyboard-response","269","302921","0.0-1.0-371.0","0","0","52767","","null","","","null","41","","","","","","","","","","","","","","","",""
"","ISI","","html-keyboard-response","270","303930","0.0-1.0-372.0","0","0","52767","","null","","","null","41","NaN","","","","","","","","","","","","","","",""
"","S2","","html-keyboard-response","271","304192","0.0-1.0-373.0","0","0","52767","","null","","","null","41","","NaN","","","","","","","","","","","","","",""
"","response","","html-keyboard-response","272","304447","0.0-1.0-374.0-0.0","0","0","52767","","253","","","68","41","","","1","41","training","adjacent","CD","3","4","Q.jpg","R.jpg","0","1","0","",""
"","feedback","","html-keyboard-response","273","305458","0.0-1.0-375.0-0.0","0","0","52767","","null","","","null","41","","","","","","","","","","","","","","","",""
"","time_out","","html-keyboard-response","274","307466","0.0-1.0-377.0-0.0","0","0","52767","","null","","","null","41","","","","","","","","","","","","","","","",""
"","ITI","","html-keyboard-response","275","308471","0.0-1.0-378.0","0","0","52767","","null","","","null","41","","","","","","","","","","","","","","","NaN",""
"","S1","","html-keyboard-response","276","308732","0.0-1.0-380.0","0","0","52767","","null","","","null","42","","","","","","","","","","","","","","","",""
"","ISI","","html-keyboard-response","277","309735","0.0-1.0-381.0","0","0","52767","","null","","","null","42","NaN","","","","","","","","","","","","","","",""
"","S2","","html-keyboard-response","278","309991","0.0-1.0-382.0","0","0","52767","","null","","","null","42","","NaN","","","","","","","","","","","","","",""
"","response","","html-keyboard-response","279","310220","0.0-1.0-383.0-0.0","0","0","52767","","227","","","68","42","","","1","42","training","adjacent","CD","3","4","Q.jpg","R.jpg","0","1","0","",""
"","feedback","","html-keyboard-response","280","311223","0.0-1.0-384.0-0.0","0","0","52767","","null","","","null","42","","","","","","","","","","","","","","","",""
"","time_out","","html-keyboard-response","281","313231","0.0-1.0-386.0-0.0","0","0","52767","","null","","","null","42","","","","","","","","","","","","","","","",""
"","ITI","","html-keyboard-response","282","314240","0.0-1.0-387.0","0","0","52767","","null","","","null","42","","","","","","","","","","","","","","","NaN",""
"","S1","","html-keyboard-response","283","314496","0.0-1.0-389.0","0","0","52767","","null","","","null","43","","","","","","","","","","","","","","","",""
"","ISI","","html-keyboard-response","284","315507","0.0-1.0-390.0","0","0","52767","","null","","","null","43","NaN","","","","","","","","","","","","","","",""
"","S2","","html-keyboard-response","285","315767","0.0-1.0-391.0","0","0","52767","","null","","","null","43","","NaN","","","","","","","","","","","","","",""
"","response","","html-keyboard-response","286","316027","0.0-1.0-392.0-0.0","0","0","52767","","258","","","75","43","","","1","43","training","adjacent","BA","2","1","N.jpg","P.jpg","1","0","0","",""
"","feedback","","html-keyboard-response","287","317033","0.0-1.0-393.0-0.0","0","0","52767","","null","","","null","43","","","","","","","","","","","","","","","",""
"","time_out","","html-keyboard-response","288","319041","0.0-1.0-395.0-0.0","0","0","52767","","null","","","null","43","","","","","","","","","","","","","","","",""
"","ITI","","html-keyboard-response","289","320047","0.0-1.0-396.0","0","0","52767","","null","","","null","43","","","","","","","","","","","","","","","NaN",""
"","S1","","html-keyboard-response","290","320306","0.0-1.0-398.0","0","0","52767","","null","","","null","44","","","","","","","","","","","","","","","",""
"","ISI","","html-keyboard-response","291","321311","0.0-1.0-399.0","0","0","52767","","null","","","null","44","NaN","","","","","","","","","","","","","","",""
"","S2","","html-keyboard-response","292","321567","0.0-1.0-400.0","0","0","52767","","null","","","null","44","","NaN","","","","","","","","","","","","","",""
"","response","","html-keyboard-response","293","321617","0.0-1.0-401.0-0.0","0","0","52767","","48","","","75","44","","","1","44","training","adjacent","DC","4","3","R.jpg","Q.jpg","1","0","0","",""
"","feedback","","html-keyboard-response","294","322622","0.0-1.0-402.0-0.0","0","0","52767","","null","","","null","44","","","","","","","","","","","","","","","",""
"","time_out","","html-keyboard-response","295","324632","0.0-1.0-404.0-0.0","0","0","52767","","null","","","null","44","","","","","","","","","","","","","","","",""
"","ITI","","html-keyboard-response","296","325642","0.0-1.0-405.0","0","0","52767","","null","","","null","44","","","","","","","","","","","","","","","NaN",""
"","S1","","html-keyboard-response","297","325898","0.0-1.0-407.0","0","0","52767","","null","","","null","45","","","","","","","","","","","","","","","",""
"","ISI","","html-keyboard-response","298","326907","0.0-1.0-408.0","0","0","52767","","null","","","null","45","NaN","","","","","","","","","","","","","","",""
"","S2","","html-keyboard-response","299","327172","0.0-1.0-409.0","0","0","52767","","null","","","null","45","","NaN","","","","","","","","","","","","","",""
"","response","","html-keyboard-response","300","327506","0.0-1.0-410.0-0.0","0","0","52767","","333","","","68","45","","","1","45","training","adjacent","FG","6","7","O.jpg","M.jpg","0","1","0","",""
"","feedback","","html-keyboard-response","301","328515","0.0-1.0-411.0-0.0","0","0","52767","","null","","","null","45","","","","","","","","","","","","","","","",""
"","time_out","","html-keyboard-response","302","330520","0.0-1.0-413.0-0.0","0","0","52767","","null","","","null","45","","","","","","","","","","","","","","","",""
"","ITI","","html-keyboard-response","303","331528","0.0-1.0-414.0","0","0","52767","","null","","","null","45","","","","","","","","","","","","","","","NaN",""
"","S1","","html-keyboard-response","304","331783","0.0-1.0-416.0","0","0","52767","","null","","","null","46","","","","","","","","","","","","","","","",""
"","ISI","","html-keyboard-response","305","332793","0.0-1.0-417.0","0","0","52767","","null","","","null","46","NaN","","","","","","","","","","","","","","",""
"","S2","","html-keyboard-response","306","333048","0.0-1.0-418.0","0","0","52767","","null","","","null","46","","NaN","","","","","","","","","","","","","",""
"","response","","html-keyboard-response","307","333140","0.0-1.0-419.0-0.0","0","0","52767","","90","","","68","46","","","1","46","training","adjacent","EF","5","6","L.jpg","O.jpg","0","1","0","",""
"","feedback","","html-keyboard-response","308","334146","0.0-1.0-420.0-0.0","0","0","52767","","null","","","null","46","","","","","","","","","","","","","","","",""
"","time_out","","html-keyboard-response","309","336154","0.0-1.0-422.0-0.0","0","0","52767","","null","","","null","46","","","","","","","","","","","","","","","",""
"","ITI","","html-keyboard-response","310","337158","0.0-1.0-423.0","0","0","52767","","null","","","null","46","","","","","","","","","","","","","","","NaN",""
"","S1","","html-keyboard-response","311","337416","0.0-1.0-425.0","0","0","52767","","null","","","null","47","","","","","","","","","","","","","","","",""
"","ISI","","html-keyboard-response","312","338424","0.0-1.0-426.0","0","0","52767","","null","","","null","47","NaN","","","","","","","","","","","","","","",""
"","S2","","html-keyboard-response","313","338680","0.0-1.0-427.0","0","0","52767","","null","","","null","47","","NaN","","","","","","","","","","","","","",""
"","response","","html-keyboard-response","314","338732","0.0-1.0-428.0-0.0","0","0","52767","","50","","","68","47","","","1","47","training","adjacent","CD","3","4","Q.jpg","R.jpg","0","1","0","",""
"","feedback","","html-keyboard-response","315","339748","0.0-1.0-429.0-0.0","0","0","52767","","null","","","null","47","","","","","","","","","","","","","","","",""
"","time_out","","html-keyboard-response","316","341751","0.0-1.0-431.0-0.0","0","0","52767","","null","","","null","47","","","","","","","","","","","","","","","",""
"","ITI","","html-keyboard-response","317","342760","0.0-1.0-432.0","0","0","52767","","null","","","null","47","","","","","","","","","","","","","","","NaN",""
"","block_over","","html-keyboard-response","318","361325","0.0-1.0-433.0-0.0","0","0","52767","","18562","","","32","47","","","","","","","","","","","","","","","",""
"","S1","","html-keyboard-response","319","361587","0.0-1.0-434.0","0","0","52767","","null","","","null","48","","","","","","","","","","","","","","","",""
"","ISI","","html-keyboard-response","320","362592","0.0-1.0-435.0","0","0","52767","","null","","","null","48","NaN","","","","","","","","","","","","","","",""
"","S2","","html-keyboard-response","321","362848","0.0-1.0-436.0","0","0","52767","","null","","","null","48","","NaN","","","","","","","","","","","","","",""
"","response","","html-keyboard-response","322","363283","0.0-1.0-437.0-0.0","0","0","52767","","433","","","75","48","","","2","48","training","adjacent","DC","4","3","R.jpg","Q.jpg","1","0","0","",""
"","feedback","","html-keyboard-response","323","364292","0.0-1.0-438.0-0.0","0","0","52767","","null","","","null","48","","","","","","","","","","","","","","","",""
"","time_out","","html-keyboard-response","324","366296","0.0-1.0-440.0-0.0","0","0","52767","","null","","","null","48","","","","","","","","","","","","","","","",""
"","ITI","","html-keyboard-response","325","367307","0.0-1.0-441.0","0","0","52767","","null","","","null","48","","","","","","","","","","","","","","","NaN",""
"","S1","","html-keyboard-response","326","367571","0.0-1.0-443.0","0","0","52767","","null","","","null","49","","","","","","","","","","","","","","","",""
"","ISI","","html-keyboard-response","327","368575","0.0-1.0-444.0","0","0","52767","","null","","","null","49","NaN","","","","","","","","","","","","","","",""
"","S2","","html-keyboard-response","328","368831","0.0-1.0-445.0","0","0","52767","","null","","","null","49","","NaN","","","","","","","","","","","","","",""
"","response","","html-keyboard-response","329","368997","0.0-1.0-446.0-0.0","0","0","52767","","164","","","68","49","","","2","49","training","adjacent","ED","5","4","L.jpg","R.jpg","0","0","1","",""
"","feedback","","html-keyboard-response","330","370009","0.0-1.0-447.0-0.0","0","0","52767","","null","","","null","49","","","","","","","","","","","","","","","",""
"","ITI","","html-keyboard-response","331","371020","0.0-1.0-450.0","0","0","52767","","null","","","null","49","","","","","","","","","","","","","","","NaN",""
"","S1","","html-keyboard-response","332","371281","0.0-1.0-452.0","0","0","52767","","null","","","null","50","","","","","","","","","","","","","","","",""
"","ISI","","html-keyboard-response","333","372291","0.0-1.0-453.0","0","0","52767","","null","","","null","50","NaN","","","","","","","","","","","","","","",""
"","S2","","html-keyboard-response","334","372553","0.0-1.0-454.0","0","0","52767","","null","","","null","50","","NaN","","","","","","","","","","","","","",""
"","response","","html-keyboard-response","335","374314","0.0-1.0-455.0-0.0","0","0","52767","","null","","","null","50","","","2","50","training","adjacent","DC","4","3","R.jpg","Q.jpg","NaN","0","0","",""
"","too_slow_prompt","","html-keyboard-response","336","375322","0.0-1.0-457.0-0.0","1","0","52767","","null","","","null","","","","","","","","","","","","","","","","",""
"","time_out","","html-keyboard-response","337","377329","0.0-1.0-458.0-0.0","0","0","52767","","null","","","null","50","","","","","","","","","","","","","","","",""
"","ITI","","html-keyboard-response","338","378340","0.0-1.0-459.0","0","0","52767","","null","","","null","50","","","","","","","","","","","","","","","NaN",""
"","S1","","html-keyboard-response","339","378602","0.0-1.0-461.0","0","0","52767","","null","","","null","51","","","","","","","","","","","","","","","",""
"","ISI","","html-keyboard-response","340","379612","0.0-1.0-462.0","0","0","52767","","null","","","null","51","NaN","","","","","","","","","","","","","","",""
"","S2","","html-keyboard-response","341","379873","0.0-1.0-463.0","0","0","52767","","null","","","null","51","","NaN","","","","","","","","","","","","","",""
"","response","","html-keyboard-response","342","380288","0.0-1.0-464.0-0.0","0","0","52767","","413","","","68","51","","","2","51","training","adjacent","AB","1","2","P.jpg","N.jpg","0","1","0","",""
"","feedback","","html-keyboard-response","343","381300","0.0-1.0-465.0-0.0","0","0","52767","","null","","","null","51","","","","","","","","","","","","","","","",""
"","time_out","","html-keyboard-response","344","383304","0.0-1.0-467.0-0.0","0","0","52767","","null","","","null","51","","","","","","","","","","","","","","","",""
"","ITI","","html-keyboard-response","345","384313","0.0-1.0-468.0","0","0","52767","","null","","","null","51","","","","","","","","","","","","","","","NaN",""
"","S1","","html-keyboard-response","346","384569","0.0-1.0-470.0","0","0","52767","","null","","","null","52","","","","","","","","","","","","","","","",""
"","ISI","","html-keyboard-response","347","385580","0.0-1.0-471.0","0","0","52767","","null","","","null","52","NaN","","","","","","","","","","","","","","",""
"","S2","","html-keyboard-response","348","385840","0.0-1.0-472.0","0","0","52767","","null","","","null","52","","NaN","","","","","","","","","","","","","",""
"","response","","html-keyboard-response","349","386204","0.0-1.0-473.0-0.0","0","0","52767","","363","","","75","52","","","2","52","training","adjacent","AB","1","2","P.jpg","N.jpg","1","1","1","",""
"","feedback","","html-keyboard-response","350","387211","0.0-1.0-474.0-0.0","0","0","52767","","null","","","null","52","","","","","","","","","","","","","","","",""
"","ITI","","html-keyboard-response","351","388217","0.0-1.0-477.0","0","0","52767","","null","","","null","52","","","","","","","","","","","","","","","NaN",""
"","S1","","html-keyboard-response","352","388476","0.0-1.0-479.0","0","0","52767","","null","","","null","53","","","","","","","","","","","","","","","",""
"","ISI","","html-keyboard-response","353","389480","0.0-1.0-480.0","0","0","52767","","null","","","null","53","NaN","","","","","","","","","","","","","","",""
"","S2","","html-keyboard-response","354","389736","0.0-1.0-481.0","0","0","52767","","null","","","null","53","","NaN","","","","","","","","","","","","","",""
"","response","","html-keyboard-response","355","389757","0.0-1.0-482.0-0.0","0","0","52767","","18","","","68","53","","","2","53","training","adjacent","DE","4","5","R.jpg","L.jpg","0","1","0","",""
"","feedback","","html-keyboard-response","356","390769","0.0-1.0-483.0-0.0","0","0","52767","","null","","","null","53","","","","","","","","","","","","","","","",""
"","time_out","","html-keyboard-response","357","392778","0.0-1.0-485.0-0.0","0","0","52767","","null","","","null","53","","","","","","","","","","","","","","","",""
"","ITI","","html-keyboard-response","358","393788","0.0-1.0-486.0","0","0","52767","","null","","","null","53","","","","","","","","","","","","","","","NaN",""
"","S1","","html-keyboard-response","359","394048","0.0-1.0-488.0","0","0","52767","","null","","","null","54","","","","","","","","","","","","","","","",""
"","ISI","","html-keyboard-response","360","395059","0.0-1.0-489.0","0","0","52767","","null","","","null","54","NaN","","","","","","","","","","","","","","",""
"","S2","","html-keyboard-response","361","395320","0.0-1.0-490.0","0","0","52767","","null","","","null","54","","NaN","","","","","","","","","","","","","",""
"","response","","html-keyboard-response","362","395422","0.0-1.0-491.0-0.0","0","0","52767","","100","","","75","54","","","2","54","training","adjacent","EF","5","6","L.jpg","O.jpg","1","1","1","",""
"","feedback","","html-keyboard-response","363","396435","0.0-1.0-492.0-0.0","0","0","52767","","null","","","null","54","","","","","","","","","","","","","","","",""
"","ITI","","html-keyboard-response","364","397439","0.0-1.0-495.0","0","0","52767","","null","","","null","54","","","","","","","","","","","","","","","NaN",""
"","S1","","html-keyboard-response","365","397701","0.0-1.0-497.0","0","0","52767","","null","","","null","55","","","","","","","","","","","","","","","",""
"","ISI","","html-keyboard-response","366","398704","0.0-1.0-498.0","0","0","52767","","null","","","null","55","NaN","","","","","","","","","","","","","","",""
"","S2","","html-keyboard-response","367","398960","0.0-1.0-499.0","0","0","52767","","null","","","null","55","","NaN","","","","","","","","","","","","","",""
"","response","","html-keyboard-response","368","399389","0.0-1.0-500.0-0.0","0","0","52767","","427","","","68","55","","","2","55","training","adjacent","GF","7","6","M.jpg","O.jpg","0","0","1","",""
"","feedback","","html-keyboard-response","369","400402","0.0-1.0-501.0-0.0","0","0","52767","","null","","","null","55","","","","","","","","","","","","","","","",""
"","ITI","","html-keyboard-response","370","401409","0.0-1.0-504.0","0","0","52767","","null","","","null","55","","","","","","","","","","","","","","","NaN",""
"","S1","","html-keyboard-response","371","401664","0.0-1.0-506.0","0","0","52767","","null","","","null","56","","","","","","","","","","","","","","","",""
"","ISI","","html-keyboard-response","372","402675","0.0-1.0-507.0","0","0","52767","","null","","","null","56","NaN","","","","","","","","","","","","","","",""
"","S2","","html-keyboard-response","373","402937","0.0-1.0-508.0","0","0","52767","","null","","","null","56","","NaN","","","","","","","","","","","","","",""
"","response","","html-keyboard-response","374","402981","0.0-1.0-509.0-0.0","0","0","52767","","41","","","75","56","","","2","56","training","adjacent","CB","3","2","Q.jpg","N.jpg","1","0","0","",""
"","feedback","","html-keyboard-response","375","403987","0.0-1.0-510.0-0.0","0","0","52767","","null","","","null","56","","","","","","","","","","","","","","","",""
"","time_out","","html-keyboard-response","376","405996","0.0-1.0-512.0-0.0","0","0","52767","","null","","","null","56","","","","","","","","","","","","","","","",""
"","ITI","","html-keyboard-response","377","407003","0.0-1.0-513.0","0","0","52767","","null","","","null","56","","","","","","","","","","","","","","","NaN",""
"","S1","","html-keyboard-response","378","407258","0.0-1.0-515.0","0","0","52767","","null","","","null","57","","","","","","","","","","","","","","","",""
"","ISI","","html-keyboard-response","379","408266","0.0-1.0-516.0","0","0","52767","","null","","","null","57","NaN","","","","","","","","","","","","","","",""
"","S2","","html-keyboard-response","380","408521","0.0-1.0-517.0","0","0","52767","","null","","","null","57","","NaN","","","","","","","","","","","","","",""
"","response","","html-keyboard-response","381","408528","0.0-1.0-518.0-0.0","0","0","52767","","5","","","68","57","","","2","57","training","adjacent","BC","2","3","N.jpg","Q.jpg","0","1","0","",""
"","feedback","","html-keyboard-response","382","409537","0.0-1.0-519.0-0.0","0","0","52767","","null","","","null","57","","","","","","","","","","","","","","","",""
"","time_out","","html-keyboard-response","383","411546","0.0-1.0-521.0-0.0","0","0","52767","","null","","","null","57","","","","","","","","","","","","","","","",""
"","ITI","","html-keyboard-response","384","412556","0.0-1.0-522.0","0","0","52767","","null","","","null","57","","","","","","","","","","","","","","","NaN",""
"","S1","","html-keyboard-response","385","412817","0.0-1.0-524.0","0","0","52767","","null","","","null","58","","","","","","","","","","","","","","","",""
"","ISI","","html-keyboard-response","386","413827","0.0-1.0-525.0","0","0","52767","","null","","","null","58","NaN","","","","","","","","","","","","","","",""
"","S2","","html-keyboard-response","387","414082","0.0-1.0-526.0","0","0","52767","","null","","","null","58","","NaN","","","","","","","","","","","","","",""
"","response","","html-keyboard-response","388","414089","0.0-1.0-527.0-0.0","0","0","52767","","5","","","75","58","","","2","58","training","adjacent","AB","1","2","P.jpg","N.jpg","1","1","1","",""
"","feedback","","html-keyboard-response","389","415097","0.0-1.0-528.0-0.0","0","0","52767","","null","","","null","58","","","","","","","","","","","","","","","",""
"","ITI","","html-keyboard-response","390","416107","0.0-1.0-531.0","0","0","52767","","null","","","null","58","","","","","","","","","","","","","","","NaN",""
"","S1","","html-keyboard-response","391","416364","0.0-1.0-533.0","0","0","52767","","null","","","null","59","","","","","","","","","","","","","","","",""
"","ISI","","html-keyboard-response","392","417368","0.0-1.0-534.0","0","0","52767","","null","","","null","59","NaN","","","","","","","","","","","","","","",""
"","S2","","html-keyboard-response","393","417626","0.0-1.0-535.0","0","0","52767","","null","","","null","59","","NaN","","","","","","","","","","","","","",""
"","response","","html-keyboard-response","394","417660","0.0-1.0-536.0-0.0","0","0","52767","","32","","","68","59","","","2","59","training","adjacent","BC","2","3","N.jpg","Q.jpg","0","1","0","",""
"","feedback","","html-keyboard-response","395","418668","0.0-1.0-537.0-0.0","0","0","52767","","null","","","null","59","","","","","","","","","","","","","","","",""
"","time_out","","html-keyboard-response","396","420676","0.0-1.0-539.0-0.0","0","0","52767","","null","","","null","59","","","","","","","","","","","","","","","",""
"","ITI","","html-keyboard-response","397","421681","0.0-1.0-540.0","0","0","52767","","null","","","null","59","","","","","","","","","","","","","","","NaN",""
"","S1","","html-keyboard-response","398","421936","0.0-1.0-542.0","0","0","52767","","null","","","null","60","","","","","","","","","","","","","","","",""
"","ISI","","html-keyboard-response","399","422947","0.0-1.0-543.0","0","0","52767","","null","","","null","60","NaN","","","","","","","","","","","","","","",""
"","S2","","html-keyboard-response","400","423201","0.0-1.0-544.0","0","0","52767","","null","","","null","60","","NaN","","","","","","","","","","","","","",""
"","response","","html-keyboard-response","401","423215","0.0-1.0-545.0-0.0","0","0","52767","","12","","","68","60","","","2","60","training","adjacent","EF","5","6","L.jpg","O.jpg","0","1","0","",""
"","feedback","","html-keyboard-response","402","424227","0.0-1.0-546.0-0.0","0","0","52767","","null","","","null","60","","","","","","","","","","","","","","","",""
"","time_out","","html-keyboard-response","403","426232","0.0-1.0-548.0-0.0","0","0","52767","","null","","","null","60","","","","","","","","","","","","","","","",""
"","ITI","","html-keyboard-response","404","427243","0.0-1.0-549.0","0","0","52767","","null","","","null","60","","","","","","","","","","","","","","","NaN",""
"","S1","","html-keyboard-response","405","427497","0.0-1.0-551.0","0","0","52767","","null","","","null","61","","","","","","","","","","","","","","","",""
"","ISI","","html-keyboard-response","406","428508","0.0-1.0-552.0","0","0","52767","","null","","","null","61","NaN","","","","","","","","","","","","","","",""
"","S2","","html-keyboard-response","407","428769","0.0-1.0-553.0","0","0","52767","","null","","","null","61","","NaN","","","","","","","","","","","","","",""
"","response","","html-keyboard-response","408","428945","0.0-1.0-554.0-0.0","0","0","52767","","174","","","75","61","","","2","61","training","adjacent","CD","3","4","Q.jpg","R.jpg","1","1","1","",""
"","feedback","","html-keyboard-response","409","429954","0.0-1.0-555.0-0.0","0","0","52767","","null","","","null","61","","","","","","","","","","","","","","","",""
"","ITI","","html-keyboard-response","410","430963","0.0-1.0-558.0","0","0","52767","","null","","","null","61","","","","","","","","","","","","","","","NaN",""
"","S1","","html-keyboard-response","411","431219","0.0-1.0-560.0","0","0","52767","","null","","","null","62","","","","","","","","","","","","","","","",""
"","ISI","","html-keyboard-response","412","432229","0.0-1.0-561.0","0","0","52767","","null","","","null","62","NaN","","","","","","","","","","","","","","",""
"","S2","","html-keyboard-response","413","432490","0.0-1.0-562.0","0","0","52767","","null","","","null","62","","NaN","","","","","","","","","","","","","",""
"","response","","html-keyboard-response","414","432612","0.0-1.0-563.0-0.0","0","0","52767","","119","","","68","62","","","2","62","training","adjacent","CB","3","2","Q.jpg","N.jpg","0","0","1","",""
"","feedback","","html-keyboard-response","415","433617","0.0-1.0-564.0-0.0","0","0","52767","","null","","","null","62","","","","","","","","","","","","","","","",""
"","ITI","","html-keyboard-response","416","434627","0.0-1.0-567.0","0","0","52767","","null","","","null","62","","","","","","","","","","","","","","","NaN",""
"","S1","","html-keyboard-response","417","434881","0.0-1.0-569.0","0","0","52767","","null","","","null","63","","","","","","","","","","","","","","","",""
"","ISI","","html-keyboard-response","418","435891","0.0-1.0-570.0","0","0","52767","","null","","","null","63","NaN","","","","","","","","","","","","","","",""
"","S2","","html-keyboard-response","419","436110","0.0-1.0-571.0","0","0","52767","","216","","","75","63","","k","2","63","training","adjacent","GF","7","6","M.jpg","O.jpg","1","0","0","",""
"","feedback","","html-keyboard-response","420","437123","0.0-1.0-573.0-0.0","0","0","52767","","null","","","null","63","","","","","","","","","","","","","","","",""
"","time_out","","html-keyboard-response","421","439130","0.0-1.0-575.0-0.0","0","0","52767","","null","","","null","63","","","","","","","","","","","","","","","",""
"","ITI","","html-keyboard-response","422","440141","0.0-1.0-576.0","0","0","52767","","null","","","null","63","","","","","","","","","","","","","","","NaN",""
"","S1","","html-keyboard-response","423","440402","0.0-1.0-578.0","0","0","52767","","null","","","null","64","","","","","","","","","","","","","","","",""
"","ISI","","html-keyboard-response","424","441412","0.0-1.0-579.0","0","0","52767","","null","","","null","64","NaN","","","","","","","","","","","","","","",""
"","S2","","html-keyboard-response","425","441550","0.0-1.0-580.0","0","0","52767","","136","","","68","64","","d","2","64","training","adjacent","CB","3","2","Q.jpg","N.jpg","0","0","1","",""
"","feedback","","html-keyboard-response","426","442562","0.0-1.0-582.0-0.0","0","0","52767","","null","","","null","64","","","","","","","","","","","","","","","",""
"","ITI","","html-keyboard-response","427","443572","0.0-1.0-585.0","0","0","52767","","null","","","null","64","","","","","","","","","","","","","","","NaN",""
"","S1","","html-keyboard-response","428","443832","0.0-1.0-587.0","0","0","52767","","null","","","null","65","","","","","","","","","","","","","","","",""
"","ISI","","html-keyboard-response","429","444843","0.0-1.0-588.0","0","0","52767","","null","","","null","65","NaN","","","","","","","","","","","","","","",""
"","S2","","html-keyboard-response","430","445099","0.0-1.0-589.0","0","0","52767","","null","","","null","65","","NaN","","","","","","","","","","","","","",""
"","response","","html-keyboard-response","431","445191","0.0-1.0-590.0-0.0","0","0","52767","","90","","","68","65","","","2","65","training","adjacent","CB","3","2","Q.jpg","N.jpg","0","0","1","",""
"","feedback","","html-keyboard-response","432","446196","0.0-1.0-591.0-0.0","0","0","52767","","null","","","null","65","","","","","","","","","","","","","","","",""
"","ITI","","html-keyboard-response","433","447203","0.0-1.0-594.0","0","0","52767","","null","","","null","65","","","","","","","","","","","","","","","NaN",""
"","S1","","html-keyboard-response","434","447458","0.0-1.0-596.0","0","0","52767","","null","","","null","66","","","","","","","","","","","","","","","",""
"","ISI","","html-keyboard-response","435","448465","0.0-1.0-597.0","0","0","52767","","null","","","null","66","NaN","","","","","","","","","","","","","","",""
"","S2","","html-keyboard-response","436","448721","0.0-1.0-598.0","0","0","52767","","null","","","null","66","","NaN","","","","","","","","","","","","","",""
"","response","","html-keyboard-response","437","448877","0.0-1.0-599.0-0.0","0","0","52767","","154","","","75","66","","","2","66","training","adjacent","FE","6","5","O.jpg","L.jpg","1","0","0","",""
"","feedback","","html-keyboard-response","438","449882","0.0-1.0-600.0-0.0","0","0","52767","","null","","","null","66","","","","","","","","","","","","","","","",""
"","time_out","","html-keyboard-response","439","451890","0.0-1.0-602.0-0.0","0","0","52767","","null","","","null","66","","","","","","","","","","","","","","","",""
"","ITI","","html-keyboard-response","440","452901","0.0-1.0-603.0","0","0","52767","","null","","","null","66","","","","","","","","","","","","","","","NaN",""
"","S1","","html-keyboard-response","441","453162","0.0-1.0-605.0","0","0","52767","","null","","","null","67","","","","","","","","","","","","","","","",""
"","ISI","","html-keyboard-response","442","454172","0.0-1.0-606.0","0","0","52767","","null","","","null","67","NaN","","","","","","","","","","","","","","",""
"","S2","","html-keyboard-response","443","454419","0.0-1.0-607.0","0","0","52767","","245","","","68","67","","d","2","67","training","adjacent","EF","5","6","L.jpg","O.jpg","0","1","0","",""
"","feedback","","html-keyboard-response","444","455426","0.0-1.0-609.0-0.0","0","0","52767","","null","","","null","67","","","","","","","","","","","","","","","",""
"","time_out","","html-keyboard-response","445","457435","0.0-1.0-611.0-0.0","0","0","52767","","null","","","null","67","","","","","","","","","","","","","","","",""
"","ITI","","html-keyboard-response","446","458444","0.0-1.0-612.0","0","0","52767","","null","","","null","67","","","","","","","","","","","","","","","NaN",""
"","S1","","html-keyboard-response","447","458700","0.0-1.0-614.0","0","0","52767","","null","","","null","68","","","","","","","","","","","","","","","",""
"","ISI","","html-keyboard-response","448","459705","0.0-1.0-615.0","0","0","52767","","null","","","null","68","NaN","","","","","","","","","","","","","","",""
"","S2","","html-keyboard-response","449","459962","0.0-1.0-616.0","0","0","52767","","null","","","null","68","","NaN","","","","","","","","","","","","","",""
"","response","","html-keyboard-response","450","459964","0.0-1.0-617.0-0.0","0","0","52767","","0","","","75","68","","","2","68","training","adjacent","BA","2","1","N.jpg","P.jpg","1","0","0","",""
"","feedback","","html-keyboard-response","451","460969","0.0-1.0-618.0-0.0","0","0","52767","","null","","","null","68","","","","","","","","","","","","","","","",""
"","time_out","","html-keyboard-response","452","462978","0.0-1.0-620.0-0.0","0","0","52767","","null","","","null","68","","","","","","","","","","","","","","","",""
"","ITI","","html-keyboard-response","453","463989","0.0-1.0-621.0","0","0","52767","","null","","","null","68","","","","","","","","","","","","","","","NaN",""
"","S1","","html-keyboard-response","454","464249","0.0-1.0-623.0","0","0","52767","","null","","","null","69","","","","","","","","","","","","","","","",""
"","ISI","","html-keyboard-response","455","465260","0.0-1.0-624.0","0","0","52767","","null","","","null","69","NaN","","","","","","","","","","","","","","",""
"","S2","","html-keyboard-response","456","465514","0.0-1.0-625.0","0","0","52767","","null","","","null","69","","NaN","","","","","","","","","","","","","",""
"","response","","html-keyboard-response","457","465649","0.0-1.0-626.0-0.0","0","0","52767","","133","","","75","69","","","2","69","training","adjacent","BC","2","3","N.jpg","Q.jpg","1","1","1","",""
"","feedback","","html-keyboard-response","458","466658","0.0-1.0-627.0-0.0","0","0","52767","","null","","","null","69","","","","","","","","","","","","","","","",""
"","ITI","","html-keyboard-response","459","467669","0.0-1.0-630.0","0","0","52767","","null","","","null","69","","","","","","","","","","","","","","","NaN",""
"","S1","","html-keyboard-response","460","467929","0.0-1.0-632.0","0","0","52767","","null","","","null","70","","","","","","","","","","","","","","","",""
"","ISI","","html-keyboard-response","461","468940","0.0-1.0-633.0","0","0","52767","","null","","","null","70","NaN","","","","","","","","","","","","","","",""
"","S2","","html-keyboard-response","462","469195","0.0-1.0-634.0","0","0","52767","","null","","","null","70","","NaN","","","","","","","","","","","","","",""
"","response","","html-keyboard-response","463","469435","0.0-1.0-635.0-0.0","0","0","52767","","238","","","75","70","","","2","70","training","adjacent","BA","2","1","N.jpg","P.jpg","1","0","0","",""
"","feedback","","html-keyboard-response","464","470444","0.0-1.0-636.0-0.0","0","0","52767","","null","","","null","70","","","","","","","","","","","","","","","",""
"","time_out","","html-keyboard-response","465","472451","0.0-1.0-638.0-0.0","0","0","52767","","null","","","null","70","","","","","","","","","","","","","","","",""
"","ITI","","html-keyboard-response","466","473462","0.0-1.0-639.0","0","0","52767","","null","","","null","70","","","","","","","","","","","","","","","NaN",""
"","S1","","html-keyboard-response","467","473724","0.0-1.0-641.0","0","0","52767","","null","","","null","71","","","","","","","","","","","","","","","",""
"","ISI","","html-keyboard-response","468","474734","0.0-1.0-642.0","0","0","52767","","null","","","null","71","NaN","","","","","","","","","","","","","","",""
"","S2","","html-keyboard-response","469","474819","0.0-1.0-643.0","0","0","52767","","83","","","68","71","","d","2","71","training","adjacent","ED","5","4","L.jpg","R.jpg","0","0","1","",""
"","feedback","","html-keyboard-response","470","475825","0.0-1.0-645.0-0.0","0","0","52767","","null","","","null","71","","","","","","","","","","","","","","","",""
"","ITI","","html-keyboard-response","471","476835","0.0-1.0-648.0","0","0","52767","","null","","","null","71","","","","","","","","","","","","","","","NaN",""
"","S1","","html-keyboard-response","472","477090","0.0-1.0-650.0","0","0","52767","","null","","","null","72","","","","","","","","","","","","","","","",""
"","ISI","","html-keyboard-response","473","478101","0.0-1.0-651.0","0","0","52767","","null","","","null","72","NaN","","","","","","","","","","","","","","",""
"","S2","","html-keyboard-response","474","478365","0.0-1.0-652.0","0","0","52767","","null","","","null","72","","NaN","","","","","","","","","","","","","",""
"","response","","html-keyboard-response","475","478490","0.0-1.0-653.0-0.0","0","0","52767","","123","","","68","72","","","2","72","training","adjacent","CD","3","4","Q.jpg","R.jpg","0","1","0","",""
"","feedback","","html-keyboard-response","476","479499","0.0-1.0-654.0-0.0","0","0","52767","","null","","","null","72","","","","","","","","","","","","","","","",""
"","time_out","","html-keyboard-response","477","481508","0.0-1.0-656.0-0.0","0","0","52767","","null","","","null","72","","","","","","","","","","","","","","","",""
"","ITI","","html-keyboard-response","478","482514","0.0-1.0-657.0","0","0","52767","","null","","","null","72","","","","","","","","","","","","","","","NaN",""
"","S1","","html-keyboard-response","479","482774","0.0-1.0-659.0","0","0","52767","","null","","","null","73","","","","","","","","","","","","","","","",""
"","ISI","","html-keyboard-response","480","483778","0.0-1.0-660.0","0","0","52767","","null","","","null","73","NaN","","","","","","","","","","","","","","",""
"","S2","","html-keyboard-response","481","484012","0.0-1.0-661.0","0","0","52767","","232","","","75","73","","k","2","73","training","adjacent","FE","6","5","O.jpg","L.jpg","1","0","0","",""
"","feedback","","html-keyboard-response","482","485020","0.0-1.0-663.0-0.0","0","0","52767","","null","","","null","73","","","","","","","","","","","","","","","",""
"","time_out","","html-keyboard-response","483","487029","0.0-1.0-665.0-0.0","0","0","52767","","null","","","null","73","","","","","","","","","","","","","","","",""
"","ITI","","html-keyboard-response","484","488033","0.0-1.0-666.0","0","0","52767","","null","","","null","73","","","","","","","","","","","","","","","NaN",""
"","S1","","html-keyboard-response","485","488290","0.0-1.0-668.0","0","0","52767","","null","","","null","74","","","","","","","","","","","","","","","",""
"","ISI","","html-keyboard-response","486","489298","0.0-1.0-669.0","0","0","52767","","null","","","null","74","NaN","","","","","","","","","","","","","","",""
"","S2","","html-keyboard-response","487","489415","0.0-1.0-670.0","0","0","52767","","115","","","68","74","","d","2","74","training","adjacent","ED","5","4","L.jpg","R.jpg","0","0","1","",""
"","feedback","","html-keyboard-response","488","490425","0.0-1.0-672.0-0.0","0","0","52767","","null","","","null","74","","","","","","","","","","","","","","","",""
"","ITI","","html-keyboard-response","489","491435","0.0-1.0-675.0","0","0","52767","","null","","","null","74","","","","","","","","","","","","","","","NaN",""
"","S1","","html-keyboard-response","490","491690","0.0-1.0-677.0","0","0","52767","","null","","","null","75","","","","","","","","","","","","","","","",""
"","ISI","","html-keyboard-response","491","492700","0.0-1.0-678.0","0","0","52767","","392","","","75","75","k","","","","","","","","","","","","","","",""
"","S2","","html-keyboard-response","492","492961","0.0-1.0-679.0","0","0","52767","","null","","","null","75","","NaN","","","","","","","","","","","","","",""
"","response","","html-keyboard-response","493","492964","0.0-1.0-680.0-0.0","0","0","52767","","1","","","75","75","","","2","75","training","adjacent","DE","4","5","R.jpg","L.jpg","1","1","1","",""
"","feedback","","html-keyboard-response","494","493971","0.0-1.0-681.0-0.0","0","0","52767","","null","","","null","75","","","","","","","","","","","","","","","",""
"","ITI","","html-keyboard-response","495","494982","0.0-1.0-684.0","0","0","52767","","null","","","null","75","","","","","","","","","","","","","","","NaN",""
"","S1","","html-keyboard-response","496","495242","0.0-1.0-686.0","0","0","52767","","null","","","null","76","","","","","","","","","","","","","","","",""
"","ISI","","html-keyboard-response","497","496253","0.0-1.0-687.0","0","0","52767","","null","","","null","76","NaN","","","","","","","","","","","","","","",""
"","S2","","html-keyboard-response","498","496515","0.0-1.0-688.0","0","0","52767","","null","","","null","76","","NaN","","","","","","","","","","","","","",""
"","response","","html-keyboard-response","499","496842","0.0-1.0-689.0-0.0","0","0","52767","","325","","","75","76","","","2","76","training","adjacent","DE","4","5","R.jpg","L.jpg","1","1","1","",""
"","feedback","","html-keyboard-response","500","497850","0.0-1.0-690.0-0.0","0","0","52767","","null","","","null","76","","","","","","","","","","","","","","","",""
"","ITI","","html-keyboard-response","501","498860","0.0-1.0-693.0","0","0","52767","","null","","","null","76","","","","","","","","","","","","","","","NaN",""
"","S1","","html-keyboard-response","502","499115","0.0-1.0-695.0","0","0","52767","","null","","","null","77","","","","","","","","","","","","","","","",""
"","ISI","","html-keyboard-response","503","500125","0.0-1.0-696.0","0","0","52767","","null","","","null","77","NaN","","","","","","","","","","","","","","",""
"","S2","","html-keyboard-response","504","500387","0.0-1.0-697.0","0","0","52767","","null","","","null","77","","NaN","","","","","","","","","","","","","",""
"","response","","html-keyboard-response","505","500926","0.0-1.0-698.0-0.0","0","0","52767","","537","","","68","77","","","2","77","training","adjacent","FG","6","7","O.jpg","M.jpg","0","1","0","",""
"","feedback","","html-keyboard-response","506","501930","0.0-1.0-699.0-0.0","0","0","52767","","null","","","null","77","","","","","","","","","","","","","","","",""
"","time_out","","html-keyboard-response","507","503939","0.0-1.0-701.0-0.0","0","0","52767","","null","","","null","77","","","","","","","","","","","","","","","",""
"","ITI","","html-keyboard-response","508","504948","0.0-1.0-702.0","0","0","52767","","null","","","null","77","","","","","","","","","","","","","","","NaN",""
"","S1","","html-keyboard-response","509","505204","0.0-1.0-704.0","0","0","52767","","null","","","null","78","","","","","","","","","","","","","","","",""
"","ISI","","html-keyboard-response","510","506210","0.0-1.0-705.0","0","0","52767","","909","","","75","78","k","","","","","","","","","","","","","","",""
"","S2","","html-keyboard-response","511","506470","0.0-1.0-706.0","0","0","52767","","null","","","null","78","","NaN","","","","","","","","","","","","","",""
"","response","","html-keyboard-response","512","506713","0.0-1.0-707.0-0.0","0","0","52767","","241","","","75","78","","","2","78","training","adjacent","BC","2","3","N.jpg","Q.jpg","1","1","1","",""
"","feedback","","html-keyboard-response","513","507724","0.0-1.0-708.0-0.0","0","0","52767","","null","","","null","78","","","","","","","","","","","","","","","",""
"","ITI","","html-keyboard-response","514","508733","0.0-1.0-711.0","0","0","52767","","null","","","null","78","","","","","","","","","","","","","","","NaN",""
"","S1","","html-keyboard-response","515","508994","0.0-1.0-713.0","0","0","52767","","null","","","null","79","","","","","","","","","","","","","","","",""
"","ISI","","html-keyboard-response","516","510004","0.0-1.0-714.0","0","0","52767","","null","","","null","79","NaN","","","","","","","","","","","","","","",""
"","S2","","html-keyboard-response","517","510260","0.0-1.0-715.0","0","0","52767","","null","","","null","79","","NaN","","","","","","","","","","","","","",""
"","response","","html-keyboard-response","518","510701","0.0-1.0-716.0-0.0","0","0","52767","","439","","","75","79","","","2","79","training","adjacent","FG","6","7","O.jpg","M.jpg","1","1","1","",""
"","feedback","","html-keyboard-response","519","511705","0.0-1.0-717.0-0.0","0","0","52767","","null","","","null","79","","","","","","","","","","","","","","","",""
"","ITI","","html-keyboard-response","520","512716","0.0-1.0-720.0","0","0","52767","","null","","","null","79","","","","","","","","","","","","","","","NaN",""
"","S1","","html-keyboard-response","521","512972","0.0-1.0-722.0","0","0","52767","","null","","","null","80","","","","","","","","","","","","","","","",""
"","ISI","","html-keyboard-response","522","513981","0.0-1.0-723.0","0","0","52767","","null","","","null","80","NaN","","","","","","","","","","","","","","",""
"","S2","","html-keyboard-response","523","514243","0.0-1.0-724.0","0","0","52767","","null","","","null","80","","NaN","","","","","","","","","","","","","",""
"","response","","html-keyboard-response","524","514530","0.0-1.0-725.0-0.0","0","0","52767","","286","","","75","80","","","2","80","training","adjacent","DC","4","3","R.jpg","Q.jpg","1","0","0","",""
"","feedback","","html-keyboard-response","525","515539","0.0-1.0-726.0-0.0","0","0","52767","","null","","","null","80","","","","","","","","","","","","","","","",""
"","time_out","","html-keyboard-response","526","517546","0.0-1.0-728.0-0.0","0","0","52767","","null","","","null","80","","","","","","","","","","","","","","","",""
"","ITI","","html-keyboard-response","527","518555","0.0-1.0-729.0","0","0","52767","","null","","","null","80","","","","","","","","","","","","","","","NaN",""
"","S1","","html-keyboard-response","528","518811","0.0-1.0-731.0","0","0","52767","","null","","","null","81","","","","","","","","","","","","","","","",""
"","ISI","","html-keyboard-response","529","519822","0.0-1.0-732.0","0","0","52767","","null","","","null","81","NaN","","","","","","","","","","","","","","",""
"","S2","","html-keyboard-response","530","520075","0.0-1.0-733.0","0","0","52767","","251","","","68","81","","d","2","81","training","adjacent","EF","5","6","L.jpg","O.jpg","0","1","0","",""
"","feedback","","html-keyboard-response","531","521081","0.0-1.0-735.0-0.0","0","0","52767","","null","","","null","81","","","","","","","","","","","","","","","",""
"","time_out","","html-keyboard-response","532","523090","0.0-1.0-737.0-0.0","0","0","52767","","null","","","null","81","","","","","","","","","","","","","","","",""
"","ITI","","html-keyboard-response","533","524100","0.0-1.0-738.0","0","0","52767","","null","","","null","81","","","","","","","","","","","","","","","NaN",""
"","S1","","html-keyboard-response","534","524356","0.0-1.0-740.0","0","0","52767","","null","","","null","82","","","","","","","","","","","","","","","",""
"","ISI","","html-keyboard-response","535","525366","0.0-1.0-741.0","0","0","52767","","null","","","null","82","NaN","","","","","","","","","","","","","","",""
"","S2","","html-keyboard-response","536","525600","0.0-1.0-742.0","0","0","52767","","232","","","75","82","","k","2","82","training","adjacent","BA","2","1","N.jpg","P.jpg","1","0","0","",""
"","feedback","","html-keyboard-response","537","526614","0.0-1.0-744.0-0.0","0","0","52767","","null","","","null","82","","","","","","","","","","","","","","","",""
"","time_out","","html-keyboard-response","538","528622","0.0-1.0-746.0-0.0","0","0","52767","","null","","","null","82","","","","","","","","","","","","","","","",""
"","ITI","","html-keyboard-response","539","529627","0.0-1.0-747.0","0","0","52767","","null","","","null","82","","","","","","","","","","","","","","","NaN",""
"","S1","","html-keyboard-response","540","529882","0.0-1.0-749.0","0","0","52767","","null","","","null","83","","","","","","","","","","","","","","","",""
"","ISI","","html-keyboard-response","541","530892","0.0-1.0-750.0","0","0","52767","","null","","","null","83","NaN","","","","","","","","","","","","","","",""
"","S2","","html-keyboard-response","542","531147","0.0-1.0-751.0","0","0","52767","","null","","","null","83","","NaN","","","","","","","","","","","","","",""
"","response","","html-keyboard-response","543","531151","0.0-1.0-752.0-0.0","0","0","52767","","2","","","68","83","","","2","83","training","adjacent","FG","6","7","O.jpg","M.jpg","0","1","0","",""
"","feedback","","html-keyboard-response","544","532163","0.0-1.0-753.0-0.0","0","0","52767","","null","","","null","83","","","","","","","","","","","","","","","",""
"","time_out","","html-keyboard-response","545","534171","0.0-1.0-755.0-0.0","0","0","52767","","null","","","null","83","","","","","","","","","","","","","","","",""
"","ITI","","html-keyboard-response","546","535182","0.0-1.0-756.0","0","0","52767","","null","","","null","83","","","","","","","","","","","","","","","NaN",""
"","S1","","html-keyboard-response","547","535443","0.0-1.0-758.0","0","0","52767","","null","","","null","84","","","","","","","","","","","","","","","",""
"","ISI","","html-keyboard-response","548","536454","0.0-1.0-759.0","0","0","52767","","null","","","null","84","NaN","","","","","","","","","","","","","","",""
"","S2","","html-keyboard-response","549","536714","0.0-1.0-760.0","0","0","52767","","null","","","null","84","","NaN","","","","","","","","","","","","","",""
"","response","","html-keyboard-response","550","536742","0.0-1.0-761.0-0.0","0","0","52767","","25","","","75","84","","","2","84","training","adjacent","CD","3","4","Q.jpg","R.jpg","1","1","1","",""
"","feedback","","html-keyboard-response","551","537747","0.0-1.0-762.0-0.0","0","0","52767","","null","","","null","84","","","","","","","","","","","","","","","",""
"","ITI","","html-keyboard-response","552","538757","0.0-1.0-765.0","0","0","52767","","null","","","null","84","","","","","","","","","","","","","","","NaN",""
"","S1","","html-keyboard-response","553","539013","0.0-1.0-767.0","0","0","52767","","null","","","null","85","","","","","","","","","","","","","","","",""
"","ISI","","html-keyboard-response","554","540019","0.0-1.0-768.0","0","0","52767","","null","","","null","85","NaN","","","","","","","","","","","","","","",""
"","S2","","html-keyboard-response","555","540279","0.0-1.0-769.0","0","0","52767","","null","","","null","85","","NaN","","","","","","","","","","","","","",""
"","response","","html-keyboard-response","556","540582","0.0-1.0-770.0-0.0","0","0","52767","","301","","","75","85","","","2","85","training","adjacent","FE","6","5","O.jpg","L.jpg","1","0","0","",""
"","feedback","","html-keyboard-response","557","541590","0.0-1.0-771.0-0.0","0","0","52767","","null","","","null","85","","","","","","","","","","","","","","","",""
"","time_out","","html-keyboard-response","558","543599","0.0-1.0-773.0-0.0","0","0","52767","","null","","","null","85","","","","","","","","","","","","","","","",""
"","ITI","","html-keyboard-response","559","544604","0.0-1.0-774.0","0","0","52767","","null","","","null","85","","","","","","","","","","","","","","","NaN",""
"","S1","","html-keyboard-response","560","544859","0.0-1.0-776.0","0","0","52767","","null","","","null","86","","","","","","","","","","","","","","","",""
"","ISI","","html-keyboard-response","561","545869","0.0-1.0-777.0","0","0","52767","","null","","","null","86","NaN","","","","","","","","","","","","","","",""
"","S2","","html-keyboard-response","562","546094","0.0-1.0-778.0","0","0","52767","","222","","","68","86","","d","2","86","training","adjacent","BA","2","1","N.jpg","P.jpg","0","0","1","",""
"","feedback","","html-keyboard-response","563","547100","0.0-1.0-780.0-0.0","0","0","52767","","null","","","null","86","","","","","","","","","","","","","","","",""
"","ITI","","html-keyboard-response","564","548110","0.0-1.0-783.0","0","0","52767","","null","","","null","86","","","","","","","","","","","","","","","NaN",""
"","S1","","html-keyboard-response","565","548370","0.0-1.0-785.0","0","0","52767","","null","","","null","87","","","","","","","","","","","","","","","",""
"","ISI","","html-keyboard-response","566","549381","0.0-1.0-786.0","0","0","52767","","null","","","null","87","NaN","","","","","","","","","","","","","","",""
"","S2","","html-keyboard-response","567","549586","0.0-1.0-787.0","0","0","52767","","202","","","75","87","","k","2","87","training","adjacent","ED","5","4","L.jpg","R.jpg","1","0","0","",""
"","feedback","","html-keyboard-response","568","550594","0.0-1.0-789.0-0.0","0","0","52767","","null","","","null","87","","","","","","","","","","","","","","","",""
"","time_out","","html-keyboard-response","569","552603","0.0-1.0-791.0-0.0","0","0","52767","","null","","","null","87","","","","","","","","","","","","","","","",""
"","ITI","","html-keyboard-response","570","553613","0.0-1.0-792.0","0","0","52767","","null","","","null","87","","","","","","","","","","","","","","","NaN",""
"","S1","","html-keyboard-response","571","553868","0.0-1.0-794.0","0","0","52767","","null","","","null","88","","","","","","","","","","","","","","","",""
"","ISI","","html-keyboard-response","572","554879","0.0-1.0-795.0","0","0","52767","","null","","","null","88","NaN","","","","","","","","","","","","","","",""
"","S2","","html-keyboard-response","573","555092","0.0-1.0-796.0","0","0","52767","","211","","","75","88","","k","2","88","training","adjacent","DE","4","5","R.jpg","L.jpg","1","1","1","",""
"","feedback","","html-keyboard-response","574","556098","0.0-1.0-798.0-0.0","0","0","52767","","null","","","null","88","","","","","","","","","","","","","","","",""
"","ITI","","html-keyboard-response","575","557107","0.0-1.0-801.0","0","0","52767","","null","","","null","88","","","","","","","","","","","","","","","NaN",""
"","S1","","html-keyboard-response","576","557365","0.0-1.0-803.0","0","0","52767","","null","","","null","89","","","","","","","","","","","","","","","",""
"","ISI","","html-keyboard-response","577","558373","0.0-1.0-804.0","0","0","52767","","null","","","null","89","NaN","","","","","","","","","","","","","","",""
"","S2","","html-keyboard-response","578","558628","0.0-1.0-805.0","0","0","52767","","null","","","null","89","","NaN","","","","","","","","","","","","","",""
"","response","","html-keyboard-response","579","558798","0.0-1.0-806.0-0.0","0","0","52767","","168","","","75","89","","","2","89","training","adjacent","CD","3","4","Q.jpg","R.jpg","1","1","1","",""
"","feedback","","html-keyboard-response","580","559806","0.0-1.0-807.0-0.0","0","0","52767","","null","","","null","89","","","","","","","","","","","","","","","",""
"","ITI","","html-keyboard-response","581","560811","0.0-1.0-810.0","0","0","52767","","null","","","null","89","","","","","","","","","","","","","","","NaN",""
"","S1","","html-keyboard-response","582","561067","0.0-1.0-812.0","0","0","52767","","null","","","null","90","","","","","","","","","","","","","","","",""
