"success","ttype","start_time","trial_type","trial_index","time_elapsed","internal_node_id","warning","missed_checkup","PID","view_history","rt","responses","repeat_instructions","key_press","index","keypress_isi","keypress_S2","block","trial_num","phase","group_type","pair_type","S1_stim","S2_stim","S1_img","S2_img","S1_chosen","S1_higher","accuracy","keypress_iti","total_bonus_tally"
"true","full_screen","d04162023hr0527","fullscreen","0","15606","0.0-0.0","0","0","60540","","","","","","","","","","","","","","","","","","","","","",""
"","instructions","","instructions","1","50864","0.0-1.0-0.0-0.0","0","0","60540","[{""page_index"":0,""viewing_time"":5611},{""page_index"":1,""viewing_time"":17728},{""page_index"":2,""viewing_time"":9131},{""page_index"":3,""viewing_time"":2782}]","35253","","","","","","","","","","","","","","","","","","","",""
"","comprehension_check","","survey-multi-choice","2","81653","0.0-1.0-0.0-1.0","0","0","60540","","30775","{""Q0"":""True"",""Q1"":""D"",""Q2"":""Once the second image appears and while the screen 'MAKE A CHOICE' is shown"",""Q3"":""Green mark"",""Q4"":""either D or K""}","0","","","","","","","","","","","","","","","","","",""
"","start_exp","","html-keyboard-response","3","84662","0.0-1.0-1.0","0","0","60540","","3001","","","32","","","","","","","","","","","","","","","","",""
"","S1","","html-keyboard-response","4","84917","0.0-1.0-2.0","0","0","60540","","null","","","null","0","","","","","","","","","","","","","","","",""
"","ISI","","html-keyboard-response","5","85922","0.0-1.0-3.0","0","0","60540","","null","","","null","0","NaN","","","","","","","","","","","","","","",""
"","S2","","html-keyboard-response","6","86176","0.0-1.0-4.0","0","0","60540","","null","","","null","0","","NaN","","","","","","","","","","","","","",""
"","response","","html-keyboard-response","7","87691","0.0-1.0-5.0-0.0","0","0","60540","","1510","","","75","0","","","1","0","training","adjacent","DC","4","3","P.jpg","R.jpg","0","0","1","",""
"","feedback","","html-keyboard-response","8","88704","0.0-1.0-6.0-0.0","0","0","60540","","null","","","null","0","","","","","","","","","","","","","","","",""
"","ITI","","html-keyboard-response","9","89709","0.0-1.0-9.0","0","0","60540","","null","","","null","0","","","","","","","","","","","","","","","NaN",""
"","S1","","html-keyboard-response","10","89963","0.0-1.0-11.0","0","0","60540","","null","","","null","1","","","","","","","","","","","","","","","",""
"","ISI","","html-keyboard-response","11","90969","0.0-1.0-12.0","0","0","60540","","null","","","null","1","NaN","","","","","","","","","","","","","","",""
"","S2","","html-keyboard-response","12","91224","0.0-1.0-13.0","0","0","60540","","null","","","null","1","","NaN","","","","","","","","","","","","","",""
"","response","","html-keyboard-response","13","92297","0.0-1.0-14.0-0.0","0","0","60540","","1070","","","68","1","","","1","1","training","adjacent","GF","7","6","M.jpg","L.jpg","1","0","0","",""
"","feedback","","html-keyboard-response","14","93302","0.0-1.0-15.0-0.0","0","0","60540","","null","","","null","1","","","","","","","","","","","","","","","",""
"","time_out","","html-keyboard-response","15","95306","0.0-1.0-17.0-0.0","0","0","60540","","null","","","null","1","","","","","","","","","","","","","","","",""
"","ITI","","html-keyboard-response","16","96310","0.0-1.0-18.0","0","0","60540","","null","","","null","1","","","","","","","","","","","","","","","NaN",""
"","S1","","html-keyboard-response","17","96564","0.0-1.0-20.0","0","0","60540","","null","","","null","2","","","","","","","","","","","","","","","",""
"","ISI","","html-keyboard-response","18","97568","0.0-1.0-21.0","0","0","60540","","null","","","null","2","NaN","","","","","","","","","","","","","","",""
"","S2","","html-keyboard-response","19","97823","0.0-1.0-22.0","0","0","60540","","null","","","null","2","","NaN","","","","","","","","","","","","","",""
"","response","","html-keyboard-response","20","99514","0.0-1.0-23.0-0.0","0","0","60540","","1687","","","68","2","","","1","2","training","adjacent","CD","3","4","R.jpg","P.jpg","1","1","1","",""
"","feedback","","html-keyboard-response","21","100518","0.0-1.0-24.0-0.0","0","0","60540","","null","","","null","2","","","","","","","","","","","","","","","",""
"","ITI","","html-keyboard-response","22","101523","0.0-1.0-27.0","0","0","60540","","null","","","null","2","","","","","","","","","","","","","","","NaN",""
"","S1","","html-keyboard-response","23","101776","0.0-1.0-29.0","0","0","60540","","null","","","null","3","","","","","","","","","","","","","","","",""
"","ISI","","html-keyboard-response","24","102780","0.0-1.0-30.0","0","0","60540","","null","","","null","3","NaN","","","","","","","","","","","","","","",""
"","S2","","html-keyboard-response","25","103036","0.0-1.0-31.0","0","0","60540","","null","","","null","3","","NaN","","","","","","","","","","","","","",""
"","response","","html-keyboard-response","26","103956","0.0-1.0-32.0-0.0","0","0","60540","","917","","","68","3","","","1","3","training","adjacent","EF","5","6","Q.jpg","L.jpg","1","1","1","",""
"","feedback","","html-keyboard-response","27","104961","0.0-1.0-33.0-0.0","0","0","60540","","null","","","null","3","","","","","","","","","","","","","","","",""
"","ITI","","html-keyboard-response","28","105965","0.0-1.0-36.0","0","0","60540","","null","","","null","3","","","","","","","","","","","","","","","NaN",""
"","S1","","html-keyboard-response","29","106219","0.0-1.0-38.0","0","0","60540","","null","","","null","4","","","","","","","","","","","","","","","",""
"","ISI","","html-keyboard-response","30","107223","0.0-1.0-39.0","0","0","60540","","null","","","null","4","NaN","","","","","","","","","","","","","","",""
"","S2","","html-keyboard-response","31","107477","0.0-1.0-40.0","0","0","60540","","null","","","null","4","","NaN","","","","","","","","","","","","","",""
"","response","","html-keyboard-response","32","108193","0.0-1.0-41.0-0.0","0","0","60540","","713","","","68","4","","","1","4","training","adjacent","ED","5","4","Q.jpg","P.jpg","1","0","0","",""
"","feedback","","html-keyboard-response","33","109197","0.0-1.0-42.0-0.0","0","0","60540","","null","","","null","4","","","","","","","","","","","","","","","",""
"","time_out","","html-keyboard-response","34","111201","0.0-1.0-44.0-0.0","0","0","60540","","null","","","null","4","","","","","","","","","","","","","","","",""
"","ITI","","html-keyboard-response","35","112205","0.0-1.0-45.0","0","0","60540","","null","","","null","4","","","","","","","","","","","","","","","NaN",""
"","S1","","html-keyboard-response","36","112459","0.0-1.0-47.0","0","0","60540","","null","","","null","5","","","","","","","","","","","","","","","",""
"","ISI","","html-keyboard-response","37","113464","0.0-1.0-48.0","0","0","60540","","null","","","null","5","NaN","","","","","","","","","","","","","","",""
"","S2","","html-keyboard-response","38","113718","0.0-1.0-49.0","0","0","60540","","null","","","null","5","","NaN","","","","","","","","","","","","","",""
"","response","","html-keyboard-response","39","114564","0.0-1.0-50.0-0.0","0","0","60540","","842","","","75","5","","","1","5","training","adjacent","FE","6","5","L.jpg","Q.jpg","0","0","1","",""
"","feedback","","html-keyboard-response","40","115567","0.0-1.0-51.0-0.0","0","0","60540","","null","","","null","5","","","","","","","","","","","","","","","",""
"","ITI","","html-keyboard-response","41","116571","0.0-1.0-54.0","0","0","60540","","null","","","null","5","","","","","","","","","","","","","","","NaN",""
"","S1","","html-keyboard-response","42","116826","0.0-1.0-56.0","0","0","60540","","null","","","null","6","","","","","","","","","","","","","","","",""
"","ISI","","html-keyboard-response","43","117830","0.0-1.0-57.0","0","0","60540","","null","","","null","6","NaN","","","","","","","","","","","","","","",""
"","S2","","html-keyboard-response","44","118085","0.0-1.0-58.0","0","0","60540","","null","","","null","6","","NaN","","","","","","","","","","","","","",""
"","response","","html-keyboard-response","45","119145","0.0-1.0-59.0-0.0","0","0","60540","","1057","","","75","6","","","1","6","training","adjacent","CB","3","2","R.jpg","N.jpg","0","0","1","",""
"","feedback","","html-keyboard-response","46","120158","0.0-1.0-60.0-0.0","0","0","60540","","null","","","null","6","","","","","","","","","","","","","","","",""
"","ITI","","html-keyboard-response","47","121161","0.0-1.0-63.0","0","0","60540","","null","","","null","6","","","","","","","","","","","","","","","NaN",""
"","S1","","html-keyboard-response","48","121417","0.0-1.0-65.0","0","0","60540","","null","","","null","7","","","","","","","","","","","","","","","",""
"","ISI","","html-keyboard-response","49","122421","0.0-1.0-66.0","0","0","60540","","null","","","null","7","NaN","","","","","","","","","","","","","","",""
"","S2","","html-keyboard-response","50","122676","0.0-1.0-67.0","0","0","60540","","null","","","null","7","","NaN","","","","","","","","","","","","","",""
"","response","","html-keyboard-response","51","123417","0.0-1.0-68.0-0.0","0","0","60540","","737","","","75","7","","","1","7","training","adjacent","FE","6","5","L.jpg","Q.jpg","0","0","1","",""
"","feedback","","html-keyboard-response","52","124421","0.0-1.0-69.0-0.0","0","0","60540","","null","","","null","7","","","","","","","","","","","","","","","",""
"","ITI","","html-keyboard-response","53","125424","0.0-1.0-72.0","0","0","60540","","null","","","null","7","","","","","","","","","","","","","","","NaN",""
"","S1","","html-keyboard-response","54","125678","0.0-1.0-74.0","0","0","60540","","null","","","null","8","","","","","","","","","","","","","","","",""
"","ISI","","html-keyboard-response","55","126683","0.0-1.0-75.0","0","0","60540","","null","","","null","8","NaN","","","","","","","","","","","","","","",""
"","S2","","html-keyboard-response","56","126938","0.0-1.0-76.0","0","0","60540","","null","","","null","8","","NaN","","","","","","","","","","","","","",""
"","response","","html-keyboard-response","57","127609","0.0-1.0-77.0-0.0","0","0","60540","","668","","","75","8","","","1","8","training","adjacent","FG","6","7","L.jpg","M.jpg","0","1","0","",""
"","feedback","","html-keyboard-response","58","128614","0.0-1.0-78.0-0.0","0","0","60540","","null","","","null","8","","","","","","","","","","","","","","","",""
"","time_out","","html-keyboard-response","59","130618","0.0-1.0-80.0-0.0","0","0","60540","","null","","","null","8","","","","","","","","","","","","","","","",""
"","ITI","","html-keyboard-response","60","131623","0.0-1.0-81.0","0","0","60540","","null","","","null","8","","","","","","","","","","","","","","","NaN",""
"","S1","","html-keyboard-response","61","131878","0.0-1.0-83.0","0","0","60540","","null","","","null","9","","","","","","","","","","","","","","","",""
"","ISI","","html-keyboard-response","62","132882","0.0-1.0-84.0","0","0","60540","","null","","","null","9","NaN","","","","","","","","","","","","","","",""
"","S2","","html-keyboard-response","63","133137","0.0-1.0-85.0","0","0","60540","","null","","","null","9","","NaN","","","","","","","","","","","","","",""
"","response","","html-keyboard-response","64","133789","0.0-1.0-86.0-0.0","0","0","60540","","649","","","75","9","","","1","9","training","adjacent","DE","4","5","P.jpg","Q.jpg","0","1","0","",""
"","feedback","","html-keyboard-response","65","134794","0.0-1.0-87.0-0.0","0","0","60540","","null","","","null","9","","","","","","","","","","","","","","","",""
"","time_out","","html-keyboard-response","66","136797","0.0-1.0-89.0-0.0","0","0","60540","","null","","","null","9","","","","","","","","","","","","","","","",""
"","ITI","","html-keyboard-response","67","137802","0.0-1.0-90.0","0","0","60540","","null","","","null","9","","","","","","","","","","","","","","","NaN",""
"","S1","","html-keyboard-response","68","138057","0.0-1.0-92.0","0","0","60540","","null","","","null","10","","","","","","","","","","","","","","","",""
"","ISI","","html-keyboard-response","69","139060","0.0-1.0-93.0","0","0","60540","","null","","","null","10","NaN","","","","","","","","","","","","","","",""
"","S2","","html-keyboard-response","70","139315","0.0-1.0-94.0","0","0","60540","","null","","","null","10","","NaN","","","","","","","","","","","","","",""
"","response","","html-keyboard-response","71","141069","0.0-1.0-95.0-0.0","0","0","60540","","null","","","null","10","","","1","10","training","adjacent","FG","6","7","L.jpg","M.jpg","NaN","1","0","",""
"","too_slow_prompt","","html-keyboard-response","72","142073","0.0-1.0-97.0-0.0","1","0","60540","","null","","","null","","","","","","","","","","","","","","","","",""
"","time_out","","html-keyboard-response","73","144077","0.0-1.0-98.0-0.0","0","0","60540","","null","","","null","10","","","","","","","","","","","","","","","",""
"","ITI","","html-keyboard-response","74","145081","0.0-1.0-99.0","0","0","60540","","null","","","null","10","","","","","","","","","","","","","","","NaN",""
"","S1","","html-keyboard-response","75","145342","0.0-1.0-101.0","0","0","60540","","null","","","null","11","","","","","","","","","","","","","","","",""
"","ISI","","html-keyboard-response","76","146347","0.0-1.0-102.0","0","0","60540","","null","","","null","11","NaN","","","","","","","","","","","","","","",""
"","S2","","html-keyboard-response","77","146602","0.0-1.0-103.0","0","0","60540","","null","","","null","11","","NaN","","","","","","","","","","","","","",""
"","response","","html-keyboard-response","78","147182","0.0-1.0-104.0-0.0","0","0","60540","","577","","","68","11","","","1","11","training","adjacent","DE","4","5","P.jpg","Q.jpg","1","1","1","",""
"","feedback","","html-keyboard-response","79","148187","0.0-1.0-105.0-0.0","0","0","60540","","null","","","null","11","","","","","","","","","","","","","","","",""
"","ITI","","html-keyboard-response","80","149191","0.0-1.0-108.0","0","0","60540","","null","","","null","11","","","","","","","","","","","","","","","NaN",""
"","S1","","html-keyboard-response","81","149446","0.0-1.0-110.0","0","0","60540","","null","","","null","12","","","","","","","","","","","","","","","",""
"","ISI","","html-keyboard-response","82","150449","0.0-1.0-111.0","0","0","60540","","null","","","null","12","NaN","","","","","","","","","","","","","","",""
"","S2","","html-keyboard-response","83","150709","0.0-1.0-112.0","0","0","60540","","null","","","null","12","","NaN","","","","","","","","","","","","","",""
"","response","","html-keyboard-response","84","151196","0.0-1.0-113.0-0.0","0","0","60540","","484","","","68","12","","","1","12","training","adjacent","GF","7","6","M.jpg","L.jpg","1","0","0","",""
"","feedback","","html-keyboard-response","85","152202","0.0-1.0-114.0-0.0","0","0","60540","","null","","","null","12","","","","","","","","","","","","","","","",""
"","time_out","","html-keyboard-response","86","154207","0.0-1.0-116.0-0.0","0","0","60540","","null","","","null","12","","","","","","","","","","","","","","","",""
"","ITI","","html-keyboard-response","87","155211","0.0-1.0-117.0","0","0","60540","","null","","","null","12","","","","","","","","","","","","","","","NaN",""
"","S1","","html-keyboard-response","88","155465","0.0-1.0-119.0","0","0","60540","","null","","","null","13","","","","","","","","","","","","","","","",""
"","ISI","","html-keyboard-response","89","156469","0.0-1.0-120.0","0","0","60540","","null","","","null","13","NaN","","","","","","","","","","","","","","",""
"","S2","","html-keyboard-response","90","156723","0.0-1.0-121.0","0","0","60540","","null","","","null","13","","NaN","","","","","","","","","","","","","",""
"","response","","html-keyboard-response","91","157416","0.0-1.0-122.0-0.0","0","0","60540","","690","","","68","13","","","1","13","training","adjacent","ED","5","4","Q.jpg","P.jpg","1","0","0","",""
"","feedback","","html-keyboard-response","92","158420","0.0-1.0-123.0-0.0","0","0","60540","","null","","","null","13","","","","","","","","","","","","","","","",""
"","time_out","","html-keyboard-response","93","160423","0.0-1.0-125.0-0.0","0","0","60540","","null","","","null","13","","","","","","","","","","","","","","","",""
"","ITI","","html-keyboard-response","94","161427","0.0-1.0-126.0","0","0","60540","","null","","","null","13","","","","","","","","","","","","","","","NaN",""
"","S1","","html-keyboard-response","95","161681","0.0-1.0-128.0","0","0","60540","","null","","","null","14","","","","","","","","","","","","","","","",""
"","ISI","","html-keyboard-response","96","162686","0.0-1.0-129.0","0","0","60540","","null","","","null","14","NaN","","","","","","","","","","","","","","",""
"","S2","","html-keyboard-response","97","162941","0.0-1.0-130.0","0","0","60540","","null","","","null","14","","NaN","","","","","","","","","","","","","",""
"","response","","html-keyboard-response","98","163693","0.0-1.0-131.0-0.0","0","0","60540","","748","","","75","14","","","1","14","training","adjacent","BC","2","3","N.jpg","R.jpg","0","1","0","",""
"","feedback","","html-keyboard-response","99","164697","0.0-1.0-132.0-0.0","0","0","60540","","null","","","null","14","","","","","","","","","","","","","","","",""
"","time_out","","html-keyboard-response","100","166702","0.0-1.0-134.0-0.0","0","0","60540","","null","","","null","14","","","","","","","","","","","","","","","",""
"","ITI","","html-keyboard-response","101","167706","0.0-1.0-135.0","0","0","60540","","null","","","null","14","","","","","","","","","","","","","","","NaN",""
"","S1","","html-keyboard-response","102","167961","0.0-1.0-137.0","0","0","60540","","null","","","null","15","","","","","","","","","","","","","","","",""
"","ISI","","html-keyboard-response","103","168965","0.0-1.0-138.0","0","0","60540","","null","","","null","15","NaN","","","","","","","","","","","","","","",""
"","S2","","html-keyboard-response","104","169219","0.0-1.0-139.0","0","0","60540","","null","","","null","15","","NaN","","","","","","","","","","","","","",""
"","response","","html-keyboard-response","105","169973","0.0-1.0-140.0-0.0","0","0","60540","","750","","","68","15","","","1","15","training","adjacent","GF","7","6","M.jpg","L.jpg","1","0","0","",""
"","feedback","","html-keyboard-response","106","170977","0.0-1.0-141.0-0.0","0","0","60540","","null","","","null","15","","","","","","","","","","","","","","","",""
"","time_out","","html-keyboard-response","107","172981","0.0-1.0-143.0-0.0","0","0","60540","","null","","","null","15","","","","","","","","","","","","","","","",""
"","ITI","","html-keyboard-response","108","173986","0.0-1.0-144.0","0","0","60540","","null","","","null","15","","","","","","","","","","","","","","","NaN",""
"","S1","","html-keyboard-response","109","174241","0.0-1.0-146.0","0","0","60540","","null","","","null","16","","","","","","","","","","","","","","","",""
"","ISI","","html-keyboard-response","110","175253","0.0-1.0-147.0","0","0","60540","","null","","","null","16","NaN","","","","","","","","","","","","","","",""
"","S2","","html-keyboard-response","111","175507","0.0-1.0-148.0","0","0","60540","","null","","","null","16","","NaN","","","","","","","","","","","","","",""
"","response","","html-keyboard-response","112","176121","0.0-1.0-149.0-0.0","0","0","60540","","610","","","68","16","","","1","16","training","adjacent","BA","2","1","N.jpg","O.jpg","1","0","0","",""
"","feedback","","html-keyboard-response","113","177127","0.0-1.0-150.0-0.0","0","0","60540","","null","","","null","16","","","","","","","","","","","","","","","",""
"","time_out","","html-keyboard-response","114","179131","0.0-1.0-152.0-0.0","0","0","60540","","null","","","null","16","","","","","","","","","","","","","","","",""
"","ITI","","html-keyboard-response","115","180138","0.0-1.0-153.0","0","0","60540","","null","","","null","16","","","","","","","","","","","","","","","NaN",""
"","S1","","html-keyboard-response","116","180422","0.0-1.0-155.0","0","0","60540","","null","","","null","17","","","","","","","","","","","","","","","",""
"","ISI","","html-keyboard-response","117","181434","0.0-1.0-156.0","0","0","60540","","null","","","null","17","NaN","","","","","","","","","","","","","","",""
"","S2","","html-keyboard-response","118","181690","0.0-1.0-157.0","0","0","60540","","null","","","null","17","","NaN","","","","","","","","","","","","","",""
"","response","","html-keyboard-response","119","182202","0.0-1.0-158.0-0.0","0","0","60540","","507","","","75","17","","","1","17","training","adjacent","BC","2","3","N.jpg","R.jpg","0","1","0","",""
"","feedback","","html-keyboard-response","120","183208","0.0-1.0-159.0-0.0","0","0","60540","","null","","","null","17","","","","","","","","","","","","","","","",""
"","time_out","","html-keyboard-response","121","185212","0.0-1.0-161.0-0.0","0","0","60540","","null","","","null","17","","","","","","","","","","","","","","","",""
"","ITI","","html-keyboard-response","122","186216","0.0-1.0-162.0","0","0","60540","","null","","","null","17","","","","","","","","","","","","","","","NaN",""
"","S1","","html-keyboard-response","123","186471","0.0-1.0-164.0","0","0","60540","","null","","","null","18","","","","","","","","","","","","","","","",""
"","ISI","","html-keyboard-response","124","187475","0.0-1.0-165.0","0","0","60540","","null","","","null","18","NaN","","","","","","","","","","","","","","",""
"","S2","","html-keyboard-response","125","187730","0.0-1.0-166.0","0","0","60540","","null","","","null","18","","NaN","","","","","","","","","","","","","",""
"","response","","html-keyboard-response","126","188375","0.0-1.0-167.0-0.0","0","0","60540","","641","","","75","18","","","1","18","training","adjacent","DC","4","3","P.jpg","R.jpg","0","0","1","",""
"","feedback","","html-keyboard-response","127","189379","0.0-1.0-168.0-0.0","0","0","60540","","null","","","null","18","","","","","","","","","","","","","","","",""
"","ITI","","html-keyboard-response","128","190383","0.0-1.0-171.0","0","0","60540","","null","","","null","18","","","","","","","","","","","","","","","NaN",""
"","S1","","html-keyboard-response","129","190636","0.0-1.0-173.0","0","0","60540","","null","","","null","19","","","","","","","","","","","","","","","",""
"","ISI","","html-keyboard-response","130","191639","0.0-1.0-174.0","0","0","60540","","null","","","null","19","NaN","","","","","","","","","","","","","","",""
"","S2","","html-keyboard-response","131","191905","0.0-1.0-175.0","0","0","60540","","null","","","null","19","","NaN","","","","","","","","","","","","","",""
"","response","","html-keyboard-response","132","192665","0.0-1.0-176.0-0.0","0","0","60540","","757","","","75","19","","","1","19","training","adjacent","BA","2","1","N.jpg","O.jpg","0","0","1","",""
"","feedback","","html-keyboard-response","133","193670","0.0-1.0-177.0-0.0","0","0","60540","","null","","","null","19","","","","","","","","","","","","","","","",""
"","ITI","","html-keyboard-response","134","194676","0.0-1.0-180.0","0","0","60540","","null","","","null","19","","","","","","","","","","","","","","","NaN",""
"","S1","","html-keyboard-response","135","194930","0.0-1.0-182.0","0","0","60540","","null","","","null","20","","","","","","","","","","","","","","","",""
"","ISI","","html-keyboard-response","136","195934","0.0-1.0-183.0","0","0","60540","","null","","","null","20","NaN","","","","","","","","","","","","","","",""
"","S2","","html-keyboard-response","137","196188","0.0-1.0-184.0","0","0","60540","","null","","","null","20","","NaN","","","","","","","","","","","","","",""
"","response","","html-keyboard-response","138","196799","0.0-1.0-185.0-0.0","0","0","60540","","608","","","68","20","","","1","20","training","adjacent","DE","4","5","P.jpg","Q.jpg","1","1","1","",""
"","feedback","","html-keyboard-response","139","197809","0.0-1.0-186.0-0.0","0","0","60540","","null","","","null","20","","","","","","","","","","","","","","","",""
"","ITI","","html-keyboard-response","140","198813","0.0-1.0-189.0","0","0","60540","","null","","","null","20","","","","","","","","","","","","","","","NaN",""
"","S1","","html-keyboard-response","141","199068","0.0-1.0-191.0","0","0","60540","","null","","","null","21","","","","","","","","","","","","","","","",""
"","ISI","","html-keyboard-response","142","200072","0.0-1.0-192.0","0","0","60540","","null","","","null","21","NaN","","","","","","","","","","","","","","",""
"","S2","","html-keyboard-response","143","200326","0.0-1.0-193.0","0","0","60540","","null","","","null","21","","NaN","","","","","","","","","","","","","",""
"","response","","html-keyboard-response","144","200981","0.0-1.0-194.0-0.0","0","0","60540","","651","","","68","21","","","1","21","training","adjacent","BC","2","3","N.jpg","R.jpg","1","1","1","",""
"","feedback","","html-keyboard-response","145","201985","0.0-1.0-195.0-0.0","0","0","60540","","null","","","null","21","","","","","","","","","","","","","","","",""
"","ITI","","html-keyboard-response","146","202995","0.0-1.0-198.0","0","0","60540","","null","","","null","21","","","","","","","","","","","","","","","NaN",""
"","S1","","html-keyboard-response","147","203249","0.0-1.0-200.0","0","0","60540","","null","","","null","22","","","","","","","","","","","","","","","",""
"","ISI","","html-keyboard-response","148","204253","0.0-1.0-201.0","0","0","60540","","null","","","null","22","NaN","","","","","","","","","","","","","","",""
"","S2","","html-keyboard-response","149","204508","0.0-1.0-202.0","0","0","60540","","null","","","null","22","","NaN","","","","","","","","","","","","","",""
"","response","","html-keyboard-response","150","205323","0.0-1.0-203.0-0.0","0","0","60540","","812","","","68","22","","","1","22","training","adjacent","AB","1","2","O.jpg","N.jpg","1","1","1","",""
"","feedback","","html-keyboard-response","151","206327","0.0-1.0-204.0-0.0","0","0","60540","","null","","","null","22","","","","","","","","","","","","","","","",""
"","ITI","","html-keyboard-response","152","207332","0.0-1.0-207.0","0","0","60540","","null","","","null","22","","","","","","","","","","","","","","","NaN",""
"","S1","","html-keyboard-response","153","207586","0.0-1.0-209.0","0","0","60540","","null","","","null","23","","","","","","","","","","","","","","","",""
"","ISI","","html-keyboard-response","154","208590","0.0-1.0-210.0","0","0","60540","","null","","","null","23","NaN","","","","","","","","","","","","","","",""
"","S2","","html-keyboard-response","155","208852","0.0-1.0-211.0","0","0","60540","","null","","","null","23","","NaN","","","","","","","","","","","","","",""
"","response","","html-keyboard-response","156","209658","0.0-1.0-212.0-0.0","0","0","60540","","802","","","68","23","","","1","23","training","adjacent","BA","2","1","N.jpg","O.jpg","1","0","0","",""
"","feedback","","html-keyboard-response","157","210662","0.0-1.0-213.0-0.0","0","0","60540","","null","","","null","23","","","","","","","","","","","","","","","",""
"","time_out","","html-keyboard-response","158","212666","0.0-1.0-215.0-0.0","0","0","60540","","null","","","null","23","","","","","","","","","","","","","","","",""
"","ITI","","html-keyboard-response","159","213671","0.0-1.0-216.0","0","0","60540","","null","","","null","23","","","","","","","","","","","","","","","NaN",""
"","S1","","html-keyboard-response","160","213926","0.0-1.0-218.0","0","0","60540","","null","","","null","24","","","","","","","","","","","","","","","",""
"","ISI","","html-keyboard-response","161","214929","0.0-1.0-219.0","0","0","60540","","null","","","null","24","NaN","","","","","","","","","","","","","","",""
"","S2","","html-keyboard-response","162","215184","0.0-1.0-220.0","0","0","60540","","null","","","null","24","","NaN","","","","","","","","","","","","","",""
"","response","","html-keyboard-response","163","216380","0.0-1.0-221.0-0.0","0","0","60540","","1192","","","75","24","","","1","24","training","adjacent","FE","6","5","L.jpg","Q.jpg","0","0","1","",""
"","feedback","","html-keyboard-response","164","217384","0.0-1.0-222.0-0.0","0","0","60540","","null","","","null","24","","","","","","","","","","","","","","","",""
"","ITI","","html-keyboard-response","165","218389","0.0-1.0-225.0","0","0","60540","","null","","","null","24","","","","","","","","","","","","","","","NaN",""
"","S1","","html-keyboard-response","166","218644","0.0-1.0-227.0","0","0","60540","","null","","","null","25","","","","","","","","","","","","","","","",""
"","ISI","","html-keyboard-response","167","219649","0.0-1.0-228.0","0","0","60540","","null","","","null","25","NaN","","","","","","","","","","","","","","",""
"","S2","","html-keyboard-response","168","219915","0.0-1.0-229.0","0","0","60540","","null","","","null","25","","NaN","","","","","","","","","","","","","",""
"","response","","html-keyboard-response","169","220626","0.0-1.0-230.0-0.0","0","0","60540","","707","","","68","25","","","1","25","training","adjacent","CD","3","4","R.jpg","P.jpg","1","1","1","",""
"","feedback","","html-keyboard-response","170","221631","0.0-1.0-231.0-0.0","0","0","60540","","null","","","null","25","","","","","","","","","","","","","","","",""
"","ITI","","html-keyboard-response","171","222636","0.0-1.0-234.0","0","0","60540","","null","","","null","25","","","","","","","","","","","","","","","NaN",""
"","S1","","html-keyboard-response","172","222891","0.0-1.0-236.0","0","0","60540","","null","","","null","26","","","","","","","","","","","","","","","",""
"","ISI","","html-keyboard-response","173","223894","0.0-1.0-237.0","0","0","60540","","null","","","null","26","NaN","","","","","","","","","","","","","","",""
"","S2","","html-keyboard-response","174","224150","0.0-1.0-238.0","0","0","60540","","null","","","null","26","","NaN","","","","","","","","","","","","","",""
"","response","","html-keyboard-response","175","224979","0.0-1.0-239.0-0.0","0","0","60540","","826","","","68","26","","","1","26","training","adjacent","ED","5","4","Q.jpg","P.jpg","1","0","0","",""
"","feedback","","html-keyboard-response","176","225984","0.0-1.0-240.0-0.0","0","0","60540","","null","","","null","26","","","","","","","","","","","","","","","",""
"","time_out","","html-keyboard-response","177","227989","0.0-1.0-242.0-0.0","0","0","60540","","null","","","null","26","","","","","","","","","","","","","","","",""
"","ITI","","html-keyboard-response","178","228993","0.0-1.0-243.0","0","0","60540","","null","","","null","26","","","","","","","","","","","","","","","NaN",""
"","S1","","html-keyboard-response","179","229247","0.0-1.0-245.0","0","0","60540","","null","","","null","27","","","","","","","","","","","","","","","",""
"","ISI","","html-keyboard-response","180","230250","0.0-1.0-246.0","0","0","60540","","null","","","null","27","NaN","","","","","","","","","","","","","","",""
"","S2","","html-keyboard-response","181","230505","0.0-1.0-247.0","0","0","60540","","null","","","null","27","","NaN","","","","","","","","","","","","","",""
"","response","","html-keyboard-response","182","231295","0.0-1.0-248.0-0.0","0","0","60540","","786","","","68","27","","","1","27","training","adjacent","AB","1","2","O.jpg","N.jpg","1","1","1","",""
"","feedback","","html-keyboard-response","183","232300","0.0-1.0-249.0-0.0","0","0","60540","","null","","","null","27","","","","","","","","","","","","","","","",""
"","ITI","","html-keyboard-response","184","233304","0.0-1.0-252.0","0","0","60540","","null","","","null","27","","","","","","","","","","","","","","","NaN",""
"","S1","","html-keyboard-response","185","233559","0.0-1.0-254.0","0","0","60540","","null","","","null","28","","","","","","","","","","","","","","","",""
"","ISI","","html-keyboard-response","186","234564","0.0-1.0-255.0","0","0","60540","","null","","","null","28","NaN","","","","","","","","","","","","","","",""
"","S2","","html-keyboard-response","187","234818","0.0-1.0-256.0","0","0","60540","","null","","","null","28","","NaN","","","","","","","","","","","","","",""
"","response","","html-keyboard-response","188","235642","0.0-1.0-257.0-0.0","0","0","60540","","820","","","68","28","","","1","28","training","adjacent","CD","3","4","R.jpg","P.jpg","1","1","1","",""
"","feedback","","html-keyboard-response","189","236649","0.0-1.0-258.0-0.0","0","0","60540","","null","","","null","28","","","","","","","","","","","","","","","",""
"","ITI","","html-keyboard-response","190","237655","0.0-1.0-261.0","0","0","60540","","null","","","null","28","","","","","","","","","","","","","","","NaN",""
"","S1","","html-keyboard-response","191","237909","0.0-1.0-263.0","0","0","60540","","null","","","null","29","","","","","","","","","","","","","","","",""
"","ISI","","html-keyboard-response","192","238922","0.0-1.0-264.0","0","0","60540","","null","","","null","29","NaN","","","","","","","","","","","","","","",""
"","S2","","html-keyboard-response","193","239177","0.0-1.0-265.0","0","0","60540","","null","","","null","29","","NaN","","","","","","","","","","","","","",""
"","response","","html-keyboard-response","194","239774","0.0-1.0-266.0-0.0","0","0","60540","","594","","","68","29","","","1","29","training","adjacent","EF","5","6","Q.jpg","L.jpg","1","1","1","",""
"","feedback","","html-keyboard-response","195","240779","0.0-1.0-267.0-0.0","0","0","60540","","null","","","null","29","","","","","","","","","","","","","","","",""
"","ITI","","html-keyboard-response","196","241782","0.0-1.0-270.0","0","0","60540","","null","","","null","29","","","","","","","","","","","","","","","NaN",""
"","S1","","html-keyboard-response","197","242036","0.0-1.0-272.0","0","0","60540","","null","","","null","30","","","","","","","","","","","","","","","",""
"","ISI","","html-keyboard-response","198","243040","0.0-1.0-273.0","0","0","60540","","null","","","null","30","NaN","","","","","","","","","","","","","","",""
"","S2","","html-keyboard-response","199","243295","0.0-1.0-274.0","0","0","60540","","null","","","null","30","","NaN","","","","","","","","","","","","","",""
"","response","","html-keyboard-response","200","244035","0.0-1.0-275.0-0.0","0","0","60540","","736","","","68","30","","","1","30","training","adjacent","BC","2","3","N.jpg","R.jpg","1","1","1","",""
"","feedback","","html-keyboard-response","201","245044","0.0-1.0-276.0-0.0","0","0","60540","","null","","","null","30","","","","","","","","","","","","","","","",""
"","ITI","","html-keyboard-response","202","246056","0.0-1.0-279.0","0","0","60540","","null","","","null","30","","","","","","","","","","","","","","","NaN",""
"","S1","","html-keyboard-response","203","246311","0.0-1.0-281.0","0","0","60540","","null","","","null","31","","","","","","","","","","","","","","","",""
"","ISI","","html-keyboard-response","204","247315","0.0-1.0-282.0","0","0","60540","","null","","","null","31","NaN","","","","","","","","","","","","","","",""
"","S2","","html-keyboard-response","205","247571","0.0-1.0-283.0","0","0","60540","","null","","","null","31","","NaN","","","","","","","","","","","","","",""
"","response","","html-keyboard-response","206","248377","0.0-1.0-284.0-0.0","0","0","60540","","803","","","68","31","","","1","31","training","adjacent","FE","6","5","L.jpg","Q.jpg","1","0","0","",""
"","feedback","","html-keyboard-response","207","249383","0.0-1.0-285.0-0.0","0","0","60540","","null","","","null","31","","","","","","","","","","","","","","","",""
"","time_out","","html-keyboard-response","208","251386","0.0-1.0-287.0-0.0","0","0","60540","","null","","","null","31","","","","","","","","","","","","","","","",""
"","ITI","","html-keyboard-response","209","252404","0.0-1.0-288.0","0","0","60540","","null","","","null","31","","","","","","","","","","","","","","","NaN",""
"","S1","","html-keyboard-response","210","252659","0.0-1.0-290.0","0","0","60540","","null","","","null","32","","","","","","","","","","","","","","","",""
"","ISI","","html-keyboard-response","211","253663","0.0-1.0-291.0","0","0","60540","","null","","","null","32","NaN","","","","","","","","","","","","","","",""
"","S2","","html-keyboard-response","212","253919","0.0-1.0-292.0","0","0","60540","","null","","","null","32","","NaN","","","","","","","","","","","","","",""
"","response","","html-keyboard-response","213","254573","0.0-1.0-293.0-0.0","0","0","60540","","651","","","68","32","","","1","32","training","adjacent","EF","5","6","Q.jpg","L.jpg","1","1","1","",""
"","feedback","","html-keyboard-response","214","255578","0.0-1.0-294.0-0.0","0","0","60540","","null","","","null","32","","","","","","","","","","","","","","","",""
"","ITI","","html-keyboard-response","215","256605","0.0-1.0-297.0","0","0","60540","","null","","","null","32","","","","","","","","","","","","","","","NaN",""
"","S1","","html-keyboard-response","216","256860","0.0-1.0-299.0","0","0","60540","","null","","","null","33","","","","","","","","","","","","","","","",""
"","ISI","","html-keyboard-response","217","257864","0.0-1.0-300.0","0","0","60540","","null","","","null","33","NaN","","","","","","","","","","","","","","",""
"","S2","","html-keyboard-response","218","258120","0.0-1.0-301.0","0","0","60540","","null","","","null","33","","NaN","","","","","","","","","","","","","",""
"","response","","html-keyboard-response","219","258734","0.0-1.0-302.0-0.0","0","0","60540","","610","","","75","33","","","1","33","training","adjacent","DC","4","3","P.jpg","R.jpg","0","0","1","",""
"","feedback","","html-keyboard-response","220","259740","0.0-1.0-303.0-0.0","0","0","60540","","null","","","null","33","","","","","","","","","","","","","","","",""
"","ITI","","html-keyboard-response","221","260745","0.0-1.0-306.0","0","0","60540","","null","","","null","33","","","","","","","","","","","","","","","NaN",""
"","S1","","html-keyboard-response","222","261000","0.0-1.0-308.0","0","0","60540","","null","","","null","34","","","","","","","","","","","","","","","",""
"","ISI","","html-keyboard-response","223","262004","0.0-1.0-309.0","0","0","60540","","null","","","null","34","NaN","","","","","","","","","","","","","","",""
"","S2","","html-keyboard-response","224","262260","0.0-1.0-310.0","0","0","60540","","null","","","null","34","","NaN","","","","","","","","","","","","","",""
"","response","","html-keyboard-response","225","262828","0.0-1.0-311.0-0.0","0","0","60540","","564","","","75","34","","","1","34","training","adjacent","FG","6","7","L.jpg","M.jpg","0","1","0","",""
"","feedback","","html-keyboard-response","226","263833","0.0-1.0-312.0-0.0","0","0","60540","","null","","","null","34","","","","","","","","","","","","","","","",""
"","time_out","","html-keyboard-response","227","265837","0.0-1.0-314.0-0.0","0","0","60540","","null","","","null","34","","","","","","","","","","","","","","","",""
"","ITI","","html-keyboard-response","228","266843","0.0-1.0-315.0","0","0","60540","","null","","","null","34","","","","","","","","","","","","","","","NaN",""
"","S1","","html-keyboard-response","229","267098","0.0-1.0-317.0","0","0","60540","","null","","","null","35","","","","","","","","","","","","","","","",""
"","ISI","","html-keyboard-response","230","268102","0.0-1.0-318.0","0","0","60540","","null","","","null","35","NaN","","","","","","","","","","","","","","",""
"","S2","","html-keyboard-response","231","268357","0.0-1.0-319.0","0","0","60540","","null","","","null","35","","NaN","","","","","","","","","","","","","",""
"","response","","html-keyboard-response","232","268912","0.0-1.0-320.0-0.0","0","0","60540","","552","","","68","35","","","1","35","training","adjacent","CB","3","2","R.jpg","N.jpg","1","0","0","",""
"","feedback","","html-keyboard-response","233","269918","0.0-1.0-321.0-0.0","0","0","60540","","null","","","null","35","","","","","","","","","","","","","","","",""
"","time_out","","html-keyboard-response","234","271924","0.0-1.0-323.0-0.0","0","0","60540","","null","","","null","35","","","","","","","","","","","","","","","",""
"","ITI","","html-keyboard-response","235","272929","0.0-1.0-324.0","0","0","60540","","null","","","null","35","","","","","","","","","","","","","","","NaN",""
"","S1","","html-keyboard-response","236","273195","0.0-1.0-326.0","0","0","60540","","null","","","null","36","","","","","","","","","","","","","","","",""
"","ISI","","html-keyboard-response","237","274213","0.0-1.0-327.0","0","0","60540","","null","","","null","36","NaN","","","","","","","","","","","","","","",""
"","S2","","html-keyboard-response","238","274468","0.0-1.0-328.0","0","0","60540","","null","","","null","36","","NaN","","","","","","","","","","","","","",""
"","response","","html-keyboard-response","239","275152","0.0-1.0-329.0-0.0","0","0","60540","","679","","","68","36","","","1","36","training","adjacent","CB","3","2","R.jpg","N.jpg","1","0","0","",""
"","feedback","","html-keyboard-response","240","276156","0.0-1.0-330.0-0.0","0","0","60540","","null","","","null","36","","","","","","","","","","","","","","","",""
"","time_out","","html-keyboard-response","241","278160","0.0-1.0-332.0-0.0","0","0","60540","","null","","","null","36","","","","","","","","","","","","","","","",""
"","ITI","","html-keyboard-response","242","279165","0.0-1.0-333.0","0","0","60540","","null","","","null","36","","","","","","","","","","","","","","","NaN",""
"","S1","","html-keyboard-response","243","279418","0.0-1.0-335.0","0","0","60540","","null","","","null","37","","","","","","","","","","","","","","","",""
"","ISI","","html-keyboard-response","244","280422","0.0-1.0-336.0","0","0","60540","","null","","","null","37","NaN","","","","","","","","","","","","","","",""
"","S2","","html-keyboard-response","245","280677","0.0-1.0-337.0","0","0","60540","","null","","","null","37","","NaN","","","","","","","","","","","","","",""
"","response","","html-keyboard-response","246","281467","0.0-1.0-338.0-0.0","0","0","60540","","788","","","75","37","","","1","37","training","adjacent","CD","3","4","R.jpg","P.jpg","0","1","0","",""
"","feedback","","html-keyboard-response","247","282472","0.0-1.0-339.0-0.0","0","0","60540","","null","","","null","37","","","","","","","","","","","","","","","",""
"","time_out","","html-keyboard-response","248","284477","0.0-1.0-341.0-0.0","0","0","60540","","null","","","null","37","","","","","","","","","","","","","","","",""
"","ITI","","html-keyboard-response","249","285481","0.0-1.0-342.0","0","0","60540","","null","","","null","37","","","","","","","","","","","","","","","NaN",""
"","S1","","html-keyboard-response","250","285736","0.0-1.0-344.0","0","0","60540","","null","","","null","38","","","","","","","","","","","","","","","",""
"","ISI","","html-keyboard-response","251","286741","0.0-1.0-345.0","0","0","60540","","null","","","null","38","NaN","","","","","","","","","","","","","","",""
"","S2","","html-keyboard-response","252","286996","0.0-1.0-346.0","0","0","60540","","null","","","null","38","","NaN","","","","","","","","","","","","","",""
"","response","","html-keyboard-response","253","287604","0.0-1.0-347.0-0.0","0","0","60540","","604","","","68","38","","","1","38","training","adjacent","DE","4","5","P.jpg","Q.jpg","1","1","1","",""
"","feedback","","html-keyboard-response","254","288610","0.0-1.0-348.0-0.0","0","0","60540","","null","","","null","38","","","","","","","","","","","","","","","",""
"","ITI","","html-keyboard-response","255","289616","0.0-1.0-351.0","0","0","60540","","null","","","null","38","","","","","","","","","","","","","","","NaN",""
"","S1","","html-keyboard-response","256","289871","0.0-1.0-353.0","0","0","60540","","null","","","null","39","","","","","","","","","","","","","","","",""
"","ISI","","html-keyboard-response","257","290875","0.0-1.0-354.0","0","0","60540","","null","","","null","39","NaN","","","","","","","","","","","","","","",""
"","S2","","html-keyboard-response","258","291129","0.0-1.0-355.0","0","0","60540","","null","","","null","39","","NaN","","","","","","","","","","","","","",""
"","response","","html-keyboard-response","259","292001","0.0-1.0-356.0-0.0","0","0","60540","","867","","","75","39","","","1","39","training","adjacent","CB","3","2","R.jpg","N.jpg","0","0","1","",""
"","feedback","","html-keyboard-response","260","293007","0.0-1.0-357.0-0.0","0","0","60540","","null","","","null","39","","","","","","","","","","","","","","","",""
"","ITI","","html-keyboard-response","261","294012","0.0-1.0-360.0","0","0","60540","","null","","","null","39","","","","","","","","","","","","","","","NaN",""
"","S1","","html-keyboard-response","262","294267","0.0-1.0-362.0","0","0","60540","","null","","","null","40","","","","","","","","","","","","","","","",""
"","ISI","","html-keyboard-response","263","295271","0.0-1.0-363.0","0","0","60540","","null","","","null","40","NaN","","","","","","","","","","","","","","",""
"","S2","","html-keyboard-response","264","295527","0.0-1.0-364.0","0","0","60540","","null","","","null","40","","NaN","","","","","","","","","","","","","",""
"","response","","html-keyboard-response","265","295954","0.0-1.0-365.0-0.0","0","0","60540","","423","","","68","40","","","1","40","training","adjacent","FG","6","7","L.jpg","M.jpg","1","1","1","",""
"","feedback","","html-keyboard-response","266","296962","0.0-1.0-366.0-0.0","0","0","60540","","null","","","null","40","","","","","","","","","","","","","","","",""
"","ITI","","html-keyboard-response","267","297977","0.0-1.0-369.0","0","0","60540","","null","","","null","40","","","","","","","","","","","","","","","NaN",""
"","S1","","html-keyboard-response","268","298232","0.0-1.0-371.0","0","0","60540","","null","","","null","41","","","","","","","","","","","","","","","",""
"","ISI","","html-keyboard-response","269","299237","0.0-1.0-372.0","0","0","60540","","null","","","null","41","NaN","","","","","","","","","","","","","","",""
"","S2","","html-keyboard-response","270","299493","0.0-1.0-373.0","0","0","60540","","null","","","null","41","","NaN","","","","","","","","","","","","","",""
"","response","","html-keyboard-response","271","300104","0.0-1.0-374.0-0.0","0","0","60540","","608","","","68","41","","","1","41","training","adjacent","EF","5","6","Q.jpg","L.jpg","1","1","1","",""
"","feedback","","html-keyboard-response","272","301111","0.0-1.0-375.0-0.0","0","0","60540","","null","","","null","41","","","","","","","","","","","","","","","",""
"","ITI","","html-keyboard-response","273","302116","0.0-1.0-378.0","0","0","60540","","null","","","null","41","","","","","","","","","","","","","","","NaN",""
"","S1","","html-keyboard-response","274","302372","0.0-1.0-380.0","0","0","60540","","null","","","null","42","","","","","","","","","","","","","","","",""
"","ISI","","html-keyboard-response","275","303376","0.0-1.0-381.0","0","0","60540","","null","","","null","42","NaN","","","","","","","","","","","","","","",""
"","S2","","html-keyboard-response","276","303633","0.0-1.0-382.0","0","0","60540","","null","","","null","42","","NaN","","","","","","","","","","","","","",""
"","response","","html-keyboard-response","277","304100","0.0-1.0-383.0-0.0","0","0","60540","","463","","","75","42","","","1","42","training","adjacent","BA","2","1","N.jpg","O.jpg","0","0","1","",""
"","feedback","","html-keyboard-response","278","305105","0.0-1.0-384.0-0.0","0","0","60540","","null","","","null","42","","","","","","","","","","","","","","","",""
"","ITI","","html-keyboard-response","279","306109","0.0-1.0-387.0","0","0","60540","","null","","","null","42","","","","","","","","","","","","","","","NaN",""
"","S1","","html-keyboard-response","280","306372","0.0-1.0-389.0","0","0","60540","","null","","","null","43","","","","","","","","","","","","","","","",""
"","ISI","","html-keyboard-response","281","307377","0.0-1.0-390.0","0","0","60540","","null","","","null","43","NaN","","","","","","","","","","","","","","",""
"","S2","","html-keyboard-response","282","307631","0.0-1.0-391.0","0","0","60540","","null","","","null","43","","NaN","","","","","","","","","","","","","",""
"","response","","html-keyboard-response","283","308021","0.0-1.0-392.0-0.0","0","0","60540","","386","","","68","43","","","1","43","training","adjacent","AB","1","2","O.jpg","N.jpg","1","1","1","",""
"","feedback","","html-keyboard-response","284","309037","0.0-1.0-393.0-0.0","0","0","60540","","null","","","null","43","","","","","","","","","","","","","","","",""
"","ITI","","html-keyboard-response","285","310043","0.0-1.0-396.0","0","0","60540","","null","","","null","43","","","","","","","","","","","","","","","NaN",""
"","S1","","html-keyboard-response","286","310298","0.0-1.0-398.0","0","0","60540","","null","","","null","44","","","","","","","","","","","","","","","",""
"","ISI","","html-keyboard-response","287","311302","0.0-1.0-399.0","0","0","60540","","null","","","null","44","NaN","","","","","","","","","","","","","","",""
"","S2","","html-keyboard-response","288","311558","0.0-1.0-400.0","0","0","60540","","null","","","null","44","","NaN","","","","","","","","","","","","","",""
"","response","","html-keyboard-response","289","312017","0.0-1.0-401.0-0.0","0","0","60540","","456","","","75","44","","","1","44","training","adjacent","DC","4","3","P.jpg","R.jpg","0","0","1","",""
"","feedback","","html-keyboard-response","290","313022","0.0-1.0-402.0-0.0","0","0","60540","","null","","","null","44","","","","","","","","","","","","","","","",""
"","ITI","","html-keyboard-response","291","314035","0.0-1.0-405.0","0","0","60540","","null","","","null","44","","","","","","","","","","","","","","","NaN",""
"","S1","","html-keyboard-response","292","314290","0.0-1.0-407.0","0","0","60540","","null","","","null","45","","","","","","","","","","","","","","","",""
"","ISI","","html-keyboard-response","293","315293","0.0-1.0-408.0","0","0","60540","","null","","","null","45","NaN","","","","","","","","","","","","","","",""
"","S2","","html-keyboard-response","294","315549","0.0-1.0-409.0","0","0","60540","","null","","","null","45","","NaN","","","","","","","","","","","","","",""
"","response","","html-keyboard-response","295","315968","0.0-1.0-410.0-0.0","0","0","60540","","416","","","68","45","","","1","45","training","adjacent","AB","1","2","O.jpg","N.jpg","1","1","1","",""
"","feedback","","html-keyboard-response","296","316974","0.0-1.0-411.0-0.0","0","0","60540","","null","","","null","45","","","","","","","","","","","","","","","",""
"","ITI","","html-keyboard-response","297","317978","0.0-1.0-414.0","0","0","60540","","null","","","null","45","","","","","","","","","","","","","","","NaN",""
"","S1","","html-keyboard-response","298","318233","0.0-1.0-416.0","0","0","60540","","null","","","null","46","","","","","","","","","","","","","","","",""
"","ISI","","html-keyboard-response","299","319237","0.0-1.0-417.0","0","0","60540","","null","","","null","46","NaN","","","","","","","","","","","","","","",""
"","S2","","html-keyboard-response","300","319491","0.0-1.0-418.0","0","0","60540","","null","","","null","46","","NaN","","","","","","","","","","","","","",""
"","response","","html-keyboard-response","301","319906","0.0-1.0-419.0-0.0","0","0","60540","","411","","","75","46","","","1","46","training","adjacent","GF","7","6","M.jpg","L.jpg","0","0","1","",""
"","feedback","","html-keyboard-response","302","320911","0.0-1.0-420.0-0.0","0","0","60540","","null","","","null","46","","","","","","","","","","","","","","","",""
"","ITI","","html-keyboard-response","303","321916","0.0-1.0-423.0","0","0","60540","","null","","","null","46","","","","","","","","","","","","","","","NaN",""
"","S1","","html-keyboard-response","304","322170","0.0-1.0-425.0","0","0","60540","","null","","","null","47","","","","","","","","","","","","","","","",""
"","ISI","","html-keyboard-response","305","323173","0.0-1.0-426.0","0","0","60540","","null","","","null","47","NaN","","","","","","","","","","","","","","",""
"","S2","","html-keyboard-response","306","323429","0.0-1.0-427.0","0","0","60540","","null","","","null","47","","NaN","","","","","","","","","","","","","",""
"","response","","html-keyboard-response","307","323949","0.0-1.0-428.0-0.0","0","0","60540","","515","","","75","47","","","1","47","training","adjacent","ED","5","4","Q.jpg","P.jpg","0","0","1","",""
"","feedback","","html-keyboard-response","308","324954","0.0-1.0-429.0-0.0","0","0","60540","","null","","","null","47","","","","","","","","","","","","","","","",""
"","ITI","","html-keyboard-response","309","325958","0.0-1.0-432.0","0","0","60540","","null","","","null","47","","","","","","","","","","","","","","","NaN",""
"","block_over","","html-keyboard-response","310","335573","0.0-1.0-433.0-0.0","0","0","60540","","9611","","","32","47","","","","","","","","","","","","","","","",""
"","S1","","html-keyboard-response","311","335828","0.0-1.0-434.0","0","0","60540","","null","","","null","48","","","","","","","","","","","","","","","",""
"","ISI","","html-keyboard-response","312","336833","0.0-1.0-435.0","0","0","60540","","null","","","null","48","NaN","","","","","","","","","","","","","","",""
"","S2","","html-keyboard-response","313","337088","0.0-1.0-436.0","0","0","60540","","null","","","null","48","","NaN","","","","","","","","","","","","","",""
"","response","","html-keyboard-response","314","337644","0.0-1.0-437.0-0.0","0","0","60540","","551","","","75","48","","","2","48","training","adjacent","CD","3","4","R.jpg","P.jpg","0","1","0","",""
"","feedback","","html-keyboard-response","315","338648","0.0-1.0-438.0-0.0","0","0","60540","","null","","","null","48","","","","","","","","","","","","","","","",""
"","time_out","","html-keyboard-response","316","340653","0.0-1.0-440.0-0.0","0","0","60540","","null","","","null","48","","","","","","","","","","","","","","","",""
"","ITI","","html-keyboard-response","317","341658","0.0-1.0-441.0","0","0","60540","","null","","","null","48","","","","","","","","","","","","","","","NaN",""
"","S1","","html-keyboard-response","318","341913","0.0-1.0-443.0","0","0","60540","","null","","","null","49","","","","","","","","","","","","","","","",""
"","ISI","","html-keyboard-response","319","342929","0.0-1.0-444.0","0","0","60540","","null","","","null","49","NaN","","","","","","","","","","","","","","",""
"","S2","","html-keyboard-response","320","343184","0.0-1.0-445.0","0","0","60540","","null","","","null","49","","NaN","","","","","","","","","","","","","",""
"","response","","html-keyboard-response","321","343735","0.0-1.0-446.0-0.0","0","0","60540","","547","","","68","49","","","2","49","training","adjacent","CD","3","4","R.jpg","P.jpg","1","1","1","",""
"","feedback","","html-keyboard-response","322","344740","0.0-1.0-447.0-0.0","0","0","60540","","null","","","null","49","","","","","","","","","","","","","","","",""
"","ITI","","html-keyboard-response","323","345746","0.0-1.0-450.0","0","0","60540","","null","","","null","49","","","","","","","","","","","","","","","NaN",""
"","S1","","html-keyboard-response","324","346000","0.0-1.0-452.0","0","0","60540","","null","","","null","50","","","","","","","","","","","","","","","",""
"","ISI","","html-keyboard-response","325","347004","0.0-1.0-453.0","0","0","60540","","null","","","null","50","NaN","","","","","","","","","","","","","","",""
"","S2","","html-keyboard-response","326","347258","0.0-1.0-454.0","0","0","60540","","null","","","null","50","","NaN","","","","","","","","","","","","","",""
"","response","","html-keyboard-response","327","347769","0.0-1.0-455.0-0.0","0","0","60540","","507","","","75","50","","","2","50","training","adjacent","DC","4","3","P.jpg","R.jpg","0","0","1","",""
"","feedback","","html-keyboard-response","328","348774","0.0-1.0-456.0-0.0","0","0","60540","","null","","","null","50","","","","","","","","","","","","","","","",""
"","ITI","","html-keyboard-response","329","349779","0.0-1.0-459.0","0","0","60540","","null","","","null","50","","","","","","","","","","","","","","","NaN",""
"","S1","","html-keyboard-response","330","350033","0.0-1.0-461.0","0","0","60540","","null","","","null","51","","","","","","","","","","","","","","","",""
"","ISI","","html-keyboard-response","331","351037","0.0-1.0-462.0","0","0","60540","","null","","","null","51","NaN","","","","","","","","","","","","","","",""
"","S2","","html-keyboard-response","332","351292","0.0-1.0-463.0","0","0","60540","","null","","","null","51","","NaN","","","","","","","","","","","","","",""
"","response","","html-keyboard-response","333","351873","0.0-1.0-464.0-0.0","0","0","60540","","576","","","75","51","","","2","51","training","adjacent","DC","4","3","P.jpg","R.jpg","0","0","1","",""
"","feedback","","html-keyboard-response","334","352878","0.0-1.0-465.0-0.0","0","0","60540","","null","","","null","51","","","","","","","","","","","","","","","",""
"","ITI","","html-keyboard-response","335","353881","0.0-1.0-468.0","0","0","60540","","null","","","null","51","","","","","","","","","","","","","","","NaN",""
"","S1","","html-keyboard-response","336","354136","0.0-1.0-470.0","0","0","60540","","null","","","null","52","","","","","","","","","","","","","","","",""
"","ISI","","html-keyboard-response","337","355140","0.0-1.0-471.0","0","0","60540","","null","","","null","52","NaN","","","","","","","","","","","","","","",""
"","S2","","html-keyboard-response","338","355395","0.0-1.0-472.0","0","0","60540","","null","","","null","52","","NaN","","","","","","","","","","","","","",""
"","response","","html-keyboard-response","339","355892","0.0-1.0-473.0-0.0","0","0","60540","","493","","","75","52","","","2","52","training","adjacent","DE","4","5","P.jpg","Q.jpg","0","1","0","",""
"","feedback","","html-keyboard-response","340","356898","0.0-1.0-474.0-0.0","0","0","60540","","null","","","null","52","","","","","","","","","","","","","","","",""
"","time_out","","html-keyboard-response","341","358902","0.0-1.0-476.0-0.0","0","0","60540","","null","","","null","52","","","","","","","","","","","","","","","",""
"","ITI","","html-keyboard-response","342","359906","0.0-1.0-477.0","0","0","60540","","null","","","null","52","","","","","","","","","","","","","","","NaN",""
"","S1","","html-keyboard-response","343","360161","0.0-1.0-479.0","0","0","60540","","null","","","null","53","","","","","","","","","","","","","","","",""
"","ISI","","html-keyboard-response","344","361165","0.0-1.0-480.0","0","0","60540","","null","","","null","53","NaN","","","","","","","","","","","","","","",""
"","S2","","html-keyboard-response","345","361420","0.0-1.0-481.0","0","0","60540","","null","","","null","53","","NaN","","","","","","","","","","","","","",""
"","response","","html-keyboard-response","346","361914","0.0-1.0-482.0-0.0","0","0","60540","","491","","","75","53","","","2","53","training","adjacent","BC","2","3","N.jpg","R.jpg","0","1","0","",""
"","feedback","","html-keyboard-response","347","362920","0.0-1.0-483.0-0.0","0","0","60540","","null","","","null","53","","","","","","","","","","","","","","","",""
"","time_out","","html-keyboard-response","348","364925","0.0-1.0-485.0-0.0","0","0","60540","","null","","","null","53","","","","","","","","","","","","","","","",""
"","ITI","","html-keyboard-response","349","365929","0.0-1.0-486.0","0","0","60540","","null","","","null","53","","","","","","","","","","","","","","","NaN",""
"","S1","","html-keyboard-response","350","366184","0.0-1.0-488.0","0","0","60540","","null","","","null","54","","","","","","","","","","","","","","","",""
"","ISI","","html-keyboard-response","351","367188","0.0-1.0-489.0","0","0","60540","","null","","","null","54","NaN","","","","","","","","","","","","","","",""
"","S2","","html-keyboard-response","352","367443","0.0-1.0-490.0","0","0","60540","","null","","","null","54","","NaN","","","","","","","","","","","","","",""
"","response","","html-keyboard-response","353","367974","0.0-1.0-491.0-0.0","0","0","60540","","528","","","68","54","","","2","54","training","adjacent","ED","5","4","Q.jpg","P.jpg","1","0","0","",""
"","feedback","","html-keyboard-response","354","368979","0.0-1.0-492.0-0.0","0","0","60540","","null","","","null","54","","","","","","","","","","","","","","","",""
"","time_out","","html-keyboard-response","355","370984","0.0-1.0-494.0-0.0","0","0","60540","","null","","","null","54","","","","","","","","","","","","","","","",""
"","ITI","","html-keyboard-response","356","371990","0.0-1.0-495.0","0","0","60540","","null","","","null","54","","","","","","","","","","","","","","","NaN",""
"","S1","","html-keyboard-response","357","372253","0.0-1.0-497.0","0","0","60540","","null","","","null","55","","","","","","","","","","","","","","","",""
"","ISI","","html-keyboard-response","358","373258","0.0-1.0-498.0","0","0","60540","","null","","","null","55","NaN","","","","","","","","","","","","","","",""
"","S2","","html-keyboard-response","359","373513","0.0-1.0-499.0","0","0","60540","","null","","","null","55","","NaN","","","","","","","","","","","","","",""
"","response","","html-keyboard-response","360","373898","0.0-1.0-500.0-0.0","0","0","60540","","382","","","68","55","","","2","55","training","adjacent","AB","1","2","O.jpg","N.jpg","1","1","1","",""
"","feedback","","html-keyboard-response","361","374903","0.0-1.0-501.0-0.0","0","0","60540","","null","","","null","55","","","","","","","","","","","","","","","",""
"","ITI","","html-keyboard-response","362","375908","0.0-1.0-504.0","0","0","60540","","null","","","null","55","","","","","","","","","","","","","","","NaN",""
"","S1","","html-keyboard-response","363","376162","0.0-1.0-506.0","0","0","60540","","null","","","null","56","","","","","","","","","","","","","","","",""
"","ISI","","html-keyboard-response","364","377165","0.0-1.0-507.0","0","0","60540","","null","","","null","56","NaN","","","","","","","","","","","","","","",""
"","S2","","html-keyboard-response","365","377421","0.0-1.0-508.0","0","0","60540","","null","","","null","56","","NaN","","","","","","","","","","","","","",""
"","response","","html-keyboard-response","366","378051","0.0-1.0-509.0-0.0","0","0","60540","","626","","","68","56","","","2","56","training","adjacent","FG","6","7","L.jpg","M.jpg","1","1","1","",""
"","feedback","","html-keyboard-response","367","379056","0.0-1.0-510.0-0.0","0","0","60540","","null","","","null","56","","","","","","","","","","","","","","","",""
"","ITI","","html-keyboard-response","368","380060","0.0-1.0-513.0","0","0","60540","","null","","","null","56","","","","","","","","","","","","","","","NaN",""
"","S1","","html-keyboard-response","369","380315","0.0-1.0-515.0","0","0","60540","","null","","","null","57","","","","","","","","","","","","","","","",""
"","ISI","","html-keyboard-response","370","381319","0.0-1.0-516.0","0","0","60540","","null","","","null","57","NaN","","","","","","","","","","","","","","",""
"","S2","","html-keyboard-response","371","381574","0.0-1.0-517.0","0","0","60540","","null","","","null","57","","NaN","","","","","","","","","","","","","",""
"","response","","html-keyboard-response","372","381991","0.0-1.0-518.0-0.0","0","0","60540","","413","","","68","57","","","2","57","training","adjacent","AB","1","2","O.jpg","N.jpg","1","1","1","",""
"","feedback","","html-keyboard-response","373","382996","0.0-1.0-519.0-0.0","0","0","60540","","null","","","null","57","","","","","","","","","","","","","","","",""
"","ITI","","html-keyboard-response","374","384001","0.0-1.0-522.0","0","0","60540","","null","","","null","57","","","","","","","","","","","","","","","NaN",""
"","S1","","html-keyboard-response","375","384264","0.0-1.0-524.0","0","0","60540","","null","","","null","58","","","","","","","","","","","","","","","",""
"","ISI","","html-keyboard-response","376","385269","0.0-1.0-525.0","0","0","60540","","null","","","null","58","NaN","","","","","","","","","","","","","","",""
"","S2","","html-keyboard-response","377","385524","0.0-1.0-526.0","0","0","60540","","null","","","null","58","","NaN","","","","","","","","","","","","","",""
"","response","","html-keyboard-response","378","385901","0.0-1.0-527.0-0.0","0","0","60540","","374","","","75","58","","","2","58","training","adjacent","BA","2","1","N.jpg","O.jpg","0","0","1","",""
"","feedback","","html-keyboard-response","379","386906","0.0-1.0-528.0-0.0","0","0","60540","","null","","","null","58","","","","","","","","","","","","","","","",""
"","ITI","","html-keyboard-response","380","387911","0.0-1.0-531.0","0","0","60540","","null","","","null","58","","","","","","","","","","","","","","","NaN",""
"","S1","","html-keyboard-response","381","388165","0.0-1.0-533.0","0","0","60540","","null","","","null","59","","","","","","","","","","","","","","","",""
"","ISI","","html-keyboard-response","382","389169","0.0-1.0-534.0","0","0","60540","","null","","","null","59","NaN","","","","","","","","","","","","","","",""
"","S2","","html-keyboard-response","383","389423","0.0-1.0-535.0","0","0","60540","","null","","","null","59","","NaN","","","","","","","","","","","","","",""
"","response","","html-keyboard-response","384","389967","0.0-1.0-536.0-0.0","0","0","60540","","540","","","75","59","","","2","59","training","adjacent","DE","4","5","P.jpg","Q.jpg","0","1","0","",""
"","feedback","","html-keyboard-response","385","390972","0.0-1.0-537.0-0.0","0","0","60540","","null","","","null","59","","","","","","","","","","","","","","","",""
"","time_out","","html-keyboard-response","386","392977","0.0-1.0-539.0-0.0","0","0","60540","","null","","","null","59","","","","","","","","","","","","","","","",""
"","ITI","","html-keyboard-response","387","393990","0.0-1.0-540.0","0","0","60540","","null","","","null","59","","","","","","","","","","","","","","","NaN",""
"","S1","","html-keyboard-response","388","394245","0.0-1.0-542.0","0","0","60540","","null","","","null","60","","","","","","","","","","","","","","","",""
"","ISI","","html-keyboard-response","389","395249","0.0-1.0-543.0","0","0","60540","","null","","","null","60","NaN","","","","","","","","","","","","","","",""
"","S2","","html-keyboard-response","390","395503","0.0-1.0-544.0","0","0","60540","","null","","","null","60","","NaN","","","","","","","","","","","","","",""
"","response","","html-keyboard-response","391","396091","0.0-1.0-545.0-0.0","0","0","60540","","584","","","75","60","","","2","60","training","adjacent","BC","2","3","N.jpg","R.jpg","0","1","0","",""
"","feedback","","html-keyboard-response","392","397096","0.0-1.0-546.0-0.0","0","0","60540","","null","","","null","60","","","","","","","","","","","","","","","",""
"","time_out","","html-keyboard-response","393","399102","0.0-1.0-548.0-0.0","0","0","60540","","null","","","null","60","","","","","","","","","","","","","","","",""
"","ITI","","html-keyboard-response","394","400107","0.0-1.0-549.0","0","0","60540","","null","","","null","60","","","","","","","","","","","","","","","NaN",""
"","S1","","html-keyboard-response","395","400362","0.0-1.0-551.0","0","0","60540","","null","","","null","61","","","","","","","","","","","","","","","",""
"","ISI","","html-keyboard-response","396","401366","0.0-1.0-552.0","0","0","60540","","null","","","null","61","NaN","","","","","","","","","","","","","","",""
"","S2","","html-keyboard-response","397","401621","0.0-1.0-553.0","0","0","60540","","null","","","null","61","","NaN","","","","","","","","","","","","","",""
"","response","","html-keyboard-response","398","402324","0.0-1.0-554.0-0.0","0","0","60540","","699","","","68","61","","","2","61","training","adjacent","FE","6","5","L.jpg","Q.jpg","1","0","0","",""
"","feedback","","html-keyboard-response","399","403329","0.0-1.0-555.0-0.0","0","0","60540","","null","","","null","61","","","","","","","","","","","","","","","",""
"","time_out","","html-keyboard-response","400","405334","0.0-1.0-557.0-0.0","0","0","60540","","null","","","null","61","","","","","","","","","","","","","","","",""
"","ITI","","html-keyboard-response","401","406338","0.0-1.0-558.0","0","0","60540","","null","","","null","61","","","","","","","","","","","","","","","NaN",""
"","S1","","html-keyboard-response","402","406592","0.0-1.0-560.0","0","0","60540","","null","","","null","62","","","","","","","","","","","","","","","",""
"","ISI","","html-keyboard-response","403","407611","0.0-1.0-561.0","0","0","60540","","null","","","null","62","NaN","","","","","","","","","","","","","","",""
"","S2","","html-keyboard-response","404","407865","0.0-1.0-562.0","0","0","60540","","null","","","null","62","","NaN","","","","","","","","","","","","","",""
"","response","","html-keyboard-response","405","408296","0.0-1.0-563.0-0.0","0","0","60540","","427","","","75","62","","","2","62","training","adjacent","CB","3","2","R.jpg","N.jpg","0","0","1","",""
"","feedback","","html-keyboard-response","406","409301","0.0-1.0-564.0-0.0","0","0","60540","","null","","","null","62","","","","","","","","","","","","","","","",""
"","ITI","","html-keyboard-response","407","410306","0.0-1.0-567.0","0","0","60540","","null","","","null","62","","","","","","","","","","","","","","","NaN",""
"","S1","","html-keyboard-response","408","410561","0.0-1.0-569.0","0","0","60540","","null","","","null","63","","","","","","","","","","","","","","","",""
"","ISI","","html-keyboard-response","409","411565","0.0-1.0-570.0","0","0","60540","","null","","","null","63","NaN","","","","","","","","","","","","","","",""
"","S2","","html-keyboard-response","410","411819","0.0-1.0-571.0","0","0","60540","","null","","","null","63","","NaN","","","","","","","","","","","","","",""
"","response","","html-keyboard-response","411","412365","0.0-1.0-572.0-0.0","0","0","60540","","542","","","75","63","","","2","63","training","adjacent","DE","4","5","P.jpg","Q.jpg","0","1","0","",""
"","feedback","","html-keyboard-response","412","413371","0.0-1.0-573.0-0.0","0","0","60540","","null","","","null","63","","","","","","","","","","","","","","","",""
"","time_out","","html-keyboard-response","413","415374","0.0-1.0-575.0-0.0","0","0","60540","","null","","","null","63","","","","","","","","","","","","","","","",""
"","ITI","","html-keyboard-response","414","416380","0.0-1.0-576.0","0","0","60540","","null","","","null","63","","","","","","","","","","","","","","","NaN",""
"","S1","","html-keyboard-response","415","416647","0.0-1.0-578.0","0","0","60540","","null","","","null","64","","","","","","","","","","","","","","","",""
"","ISI","","html-keyboard-response","416","417652","0.0-1.0-579.0","0","0","60540","","null","","","null","64","NaN","","","","","","","","","","","","","","",""
"","S2","","html-keyboard-response","417","417907","0.0-1.0-580.0","0","0","60540","","null","","","null","64","","NaN","","","","","","","","","","","","","",""
"","response","","html-keyboard-response","418","418229","0.0-1.0-581.0-0.0","0","0","60540","","318","","","68","64","","","2","64","training","adjacent","AB","1","2","O.jpg","N.jpg","1","1","1","",""
"","feedback","","html-keyboard-response","419","419233","0.0-1.0-582.0-0.0","0","0","60540","","null","","","null","64","","","","","","","","","","","","","","","",""
"","ITI","","html-keyboard-response","420","420238","0.0-1.0-585.0","0","0","60540","","null","","","null","64","","","","","","","","","","","","","","","NaN",""
"","S1","","html-keyboard-response","421","420493","0.0-1.0-587.0","0","0","60540","","null","","","null","65","","","","","","","","","","","","","","","",""
"","ISI","","html-keyboard-response","422","421498","0.0-1.0-588.0","0","0","60540","","null","","","null","65","NaN","","","","","","","","","","","","","","",""
"","S2","","html-keyboard-response","423","421753","0.0-1.0-589.0","0","0","60540","","null","","","null","65","","NaN","","","","","","","","","","","","","",""
"","response","","html-keyboard-response","424","422448","0.0-1.0-590.0-0.0","0","0","60540","","691","","","68","65","","","2","65","training","adjacent","FE","6","5","L.jpg","Q.jpg","1","0","0","",""
"","feedback","","html-keyboard-response","425","423453","0.0-1.0-591.0-0.0","0","0","60540","","null","","","null","65","","","","","","","","","","","","","","","",""
"","time_out","","html-keyboard-response","426","425459","0.0-1.0-593.0-0.0","0","0","60540","","null","","","null","65","","","","","","","","","","","","","","","",""
"","ITI","","html-keyboard-response","427","426465","0.0-1.0-594.0","0","0","60540","","null","","","null","65","","","","","","","","","","","","","","","NaN",""
"","S1","","html-keyboard-response","428","426719","0.0-1.0-596.0","0","0","60540","","null","","","null","66","","","","","","","","","","","","","","","",""
"","ISI","","html-keyboard-response","429","427723","0.0-1.0-597.0","0","0","60540","","null","","","null","66","NaN","","","","","","","","","","","","","","",""
"","S2","","html-keyboard-response","430","427978","0.0-1.0-598.0","0","0","60540","","null","","","null","66","","NaN","","","","","","","","","","","","","",""
"","response","","html-keyboard-response","431","428489","0.0-1.0-599.0-0.0","0","0","60540","","507","","","75","66","","","2","66","training","adjacent","DC","4","3","P.jpg","R.jpg","0","0","1","",""
"","feedback","","html-keyboard-response","432","429495","0.0-1.0-600.0-0.0","0","0","60540","","null","","","null","66","","","","","","","","","","","","","","","",""
"","ITI","","html-keyboard-response","433","430500","0.0-1.0-603.0","0","0","60540","","null","","","null","66","","","","","","","","","","","","","","","NaN",""
"","S1","","html-keyboard-response","434","430757","0.0-1.0-605.0","0","0","60540","","null","","","null","67","","","","","","","","","","","","","","","",""
"","ISI","","html-keyboard-response","435","431763","0.0-1.0-606.0","0","0","60540","","null","","","null","67","NaN","","","","","","","","","","","","","","",""
"","S2","","html-keyboard-response","436","432018","0.0-1.0-607.0","0","0","60540","","null","","","null","67","","NaN","","","","","","","","","","","","","",""
"","response","","html-keyboard-response","437","432583","0.0-1.0-608.0-0.0","0","0","60540","","562","","","75","67","","","2","67","training","adjacent","EF","5","6","Q.jpg","L.jpg","0","1","0","",""
"","feedback","","html-keyboard-response","438","433589","0.0-1.0-609.0-0.0","0","0","60540","","null","","","null","67","","","","","","","","","","","","","","","",""
"","time_out","","html-keyboard-response","439","435593","0.0-1.0-611.0-0.0","0","0","60540","","null","","","null","67","","","","","","","","","","","","","","","",""
"","ITI","","html-keyboard-response","440","436597","0.0-1.0-612.0","0","0","60540","","null","","","null","67","","","","","","","","","","","","","","","NaN",""
"","S1","","html-keyboard-response","441","436852","0.0-1.0-614.0","0","0","60540","","null","","","null","68","","","","","","","","","","","","","","","",""
"","ISI","","html-keyboard-response","442","437857","0.0-1.0-615.0","0","0","60540","","null","","","null","68","NaN","","","","","","","","","","","","","","",""
"","S2","","html-keyboard-response","443","438111","0.0-1.0-616.0","0","0","60540","","null","","","null","68","","NaN","","","","","","","","","","","","","",""
"","response","","html-keyboard-response","444","438472","0.0-1.0-617.0-0.0","0","0","60540","","358","","","68","68","","","2","68","training","adjacent","EF","5","6","Q.jpg","L.jpg","1","1","1","",""
"","feedback","","html-keyboard-response","445","439476","0.0-1.0-618.0-0.0","0","0","60540","","null","","","null","68","","","","","","","","","","","","","","","",""
"","ITI","","html-keyboard-response","446","440481","0.0-1.0-621.0","0","0","60540","","null","","","null","68","","","","","","","","","","","","","","","NaN",""
"","S1","","html-keyboard-response","447","440735","0.0-1.0-623.0","0","0","60540","","null","","","null","69","","","","","","","","","","","","","","","",""
"","ISI","","html-keyboard-response","448","441739","0.0-1.0-624.0","0","0","60540","","null","","","null","69","NaN","","","","","","","","","","","","","","",""
"","S2","","html-keyboard-response","449","442001","0.0-1.0-625.0","0","0","60540","","null","","","null","69","","NaN","","","","","","","","","","","","","",""
"","response","","html-keyboard-response","450","442277","0.0-1.0-626.0-0.0","0","0","60540","","271","","","75","69","","","2","69","training","adjacent","GF","7","6","M.jpg","L.jpg","0","0","1","",""
"","feedback","","html-keyboard-response","451","443281","0.0-1.0-627.0-0.0","0","0","60540","","null","","","null","69","","","","","","","","","","","","","","","",""
"","ITI","","html-keyboard-response","452","444285","0.0-1.0-630.0","0","0","60540","","null","","","null","69","","","","","","","","","","","","","","","NaN",""
"","S1","","html-keyboard-response","453","444540","0.0-1.0-632.0","0","0","60540","","null","","","null","70","","","","","","","","","","","","","","","",""
"","ISI","","html-keyboard-response","454","445544","0.0-1.0-633.0","0","0","60540","","null","","","null","70","NaN","","","","","","","","","","","","","","",""
"","S2","","html-keyboard-response","455","445799","0.0-1.0-634.0","0","0","60540","","null","","","null","70","","NaN","","","","","","","","","","","","","",""
"","response","","html-keyboard-response","456","446242","0.0-1.0-635.0-0.0","0","0","60540","","438","","","75","70","","","2","70","training","adjacent","GF","7","6","M.jpg","L.jpg","0","0","1","",""
"","feedback","","html-keyboard-response","457","447247","0.0-1.0-636.0-0.0","0","0","60540","","null","","","null","70","","","","","","","","","","","","","","","",""
"","ITI","","html-keyboard-response","458","448252","0.0-1.0-639.0","0","0","60540","","null","","","null","70","","","","","","","","","","","","","","","NaN",""
"","S1","","html-keyboard-response","459","448506","0.0-1.0-641.0","0","0","60540","","null","","","null","71","","","","","","","","","","","","","","","",""
"","ISI","","html-keyboard-response","460","449510","0.0-1.0-642.0","0","0","60540","","null","","","null","71","NaN","","","","","","","","","","","","","","",""
"","S2","","html-keyboard-response","461","449764","0.0-1.0-643.0","0","0","60540","","null","","","null","71","","NaN","","","","","","","","","","","","","",""
"","response","","html-keyboard-response","462","450066","0.0-1.0-644.0-0.0","0","0","60540","","299","","","75","71","","","2","71","training","adjacent","CB","3","2","R.jpg","N.jpg","0","0","1","",""
"","feedback","","html-keyboard-response","463","451073","0.0-1.0-645.0-0.0","0","0","60540","","null","","","null","71","","","","","","","","","","","","","","","",""
"","ITI","","html-keyboard-response","464","452077","0.0-1.0-648.0","0","0","60540","","null","","","null","71","","","","","","","","","","","","","","","NaN",""
"","S1","","html-keyboard-response","465","452332","0.0-1.0-650.0","0","0","60540","","null","","","null","72","","","","","","","","","","","","","","","",""
"","ISI","","html-keyboard-response","466","453336","0.0-1.0-651.0","0","0","60540","","null","","","null","72","NaN","","","","","","","","","","","","","","",""
"","S2","","html-keyboard-response","467","453590","0.0-1.0-652.0","0","0","60540","","null","","","null","72","","NaN","","","","","","","","","","","","","",""
"","response","","html-keyboard-response","468","454123","0.0-1.0-653.0-0.0","0","0","60540","","530","","","75","72","","","2","72","training","adjacent","BC","2","3","N.jpg","R.jpg","0","1","0","",""
"","feedback","","html-keyboard-response","469","455128","0.0-1.0-654.0-0.0","0","0","60540","","null","","","null","72","","","","","","","","","","","","","","","",""
"","time_out","","html-keyboard-response","470","457132","0.0-1.0-656.0-0.0","0","0","60540","","null","","","null","72","","","","","","","","","","","","","","","",""
"","ITI","","html-keyboard-response","471","458136","0.0-1.0-657.0","0","0","60540","","null","","","null","72","","","","","","","","","","","","","","","NaN",""
"","S1","","html-keyboard-response","472","458391","0.0-1.0-659.0","0","0","60540","","null","","","null","73","","","","","","","","","","","","","","","",""
"","ISI","","html-keyboard-response","473","459395","0.0-1.0-660.0","0","0","60540","","null","","","null","73","NaN","","","","","","","","","","","","","","",""
"","S2","","html-keyboard-response","474","459651","0.0-1.0-661.0","0","0","60540","","null","","","null","73","","NaN","","","","","","","","","","","","","",""
"","response","","html-keyboard-response","475","460122","0.0-1.0-662.0-0.0","0","0","60540","","468","","","75","73","","","2","73","training","adjacent","CB","3","2","R.jpg","N.jpg","0","0","1","",""
"","feedback","","html-keyboard-response","476","461128","0.0-1.0-663.0-0.0","0","0","60540","","null","","","null","73","","","","","","","","","","","","","","","",""
"","ITI","","html-keyboard-response","477","462134","0.0-1.0-666.0","0","0","60540","","null","","","null","73","","","","","","","","","","","","","","","NaN",""
"","S1","","html-keyboard-response","478","462389","0.0-1.0-668.0","0","0","60540","","null","","","null","74","","","","","","","","","","","","","","","",""
"","ISI","","html-keyboard-response","479","463392","0.0-1.0-669.0","0","0","60540","","null","","","null","74","NaN","","","","","","","","","","","","","","",""
"","S2","","html-keyboard-response","480","463647","0.0-1.0-670.0","0","0","60540","","null","","","null","74","","NaN","","","","","","","","","","","","","",""
"","response","","html-keyboard-response","481","464287","0.0-1.0-671.0-0.0","0","0","60540","","636","","","75","74","","","2","74","training","adjacent","ED","5","4","Q.jpg","P.jpg","0","0","1","",""
"","feedback","","html-keyboard-response","482","465292","0.0-1.0-672.0-0.0","0","0","60540","","null","","","null","74","","","","","","","","","","","","","","","",""
"","ITI","","html-keyboard-response","483","466297","0.0-1.0-675.0","0","0","60540","","null","","","null","74","","","","","","","","","","","","","","","NaN",""
"","S1","","html-keyboard-response","484","466551","0.0-1.0-677.0","0","0","60540","","null","","","null","75","","","","","","","","","","","","","","","",""
"","ISI","","html-keyboard-response","485","467556","0.0-1.0-678.0","0","0","60540","","null","","","null","75","NaN","","","","","","","","","","","","","","",""
"","S2","","html-keyboard-response","486","467812","0.0-1.0-679.0","0","0","60540","","null","","","null","75","","NaN","","","","","","","","","","","","","",""
"","response","","html-keyboard-response","487","468570","0.0-1.0-680.0-0.0","0","0","60540","","755","","","68","75","","","2","75","training","adjacent","DE","4","5","P.jpg","Q.jpg","1","1","1","",""
"","feedback","","html-keyboard-response","488","469576","0.0-1.0-681.0-0.0","0","0","60540","","null","","","null","75","","","","","","","","","","","","","","","",""
"","ITI","","html-keyboard-response","489","470581","0.0-1.0-684.0","0","0","60540","","null","","","null","75","","","","","","","","","","","","","","","NaN",""
"","S1","","html-keyboard-response","490","470836","0.0-1.0-686.0","0","0","60540","","null","","","null","76","","","","","","","","","","","","","","","",""
"","ISI","","html-keyboard-response","491","471840","0.0-1.0-687.0","0","0","60540","","null","","","null","76","NaN","","","","","","","","","","","","","","",""
"","S2","","html-keyboard-response","492","472095","0.0-1.0-688.0","0","0","60540","","null","","","null","76","","NaN","","","","","","","","","","","","","",""
"","response","","html-keyboard-response","493","472383","0.0-1.0-689.0-0.0","0","0","60540","","284","","","75","76","","","2","76","training","adjacent","GF","7","6","M.jpg","L.jpg","0","0","1","",""
"","feedback","","html-keyboard-response","494","473388","0.0-1.0-690.0-0.0","0","0","60540","","null","","","null","76","","","","","","","","","","","","","","","",""
"","ITI","","html-keyboard-response","495","474393","0.0-1.0-693.0","0","0","60540","","null","","","null","76","","","","","","","","","","","","","","","NaN",""
"","S1","","html-keyboard-response","496","474648","0.0-1.0-695.0","0","0","60540","","null","","","null","77","","","","","","","","","","","","","","","",""
"","ISI","","html-keyboard-response","497","475659","0.0-1.0-696.0","0","0","60540","","null","","","null","77","NaN","","","","","","","","","","","","","","",""
"","S2","","html-keyboard-response","498","475926","0.0-1.0-697.0","0","0","60540","","null","","","null","77","","NaN","","","","","","","","","","","","","",""
"","response","","html-keyboard-response","499","476553","0.0-1.0-698.0-0.0","0","0","60540","","624","","","75","77","","","2","77","training","adjacent","ED","5","4","Q.jpg","P.jpg","0","0","1","",""
"","feedback","","html-keyboard-response","500","477558","0.0-1.0-699.0-0.0","0","0","60540","","null","","","null","77","","","","","","","","","","","","","","","",""
"","ITI","","html-keyboard-response","501","478563","0.0-1.0-702.0","0","0","60540","","null","","","null","77","","","","","","","","","","","","","","","NaN",""
"","S1","","html-keyboard-response","502","478817","0.0-1.0-704.0","0","0","60540","","null","","","null","78","","","","","","","","","","","","","","","",""
"","ISI","","html-keyboard-response","503","479821","0.0-1.0-705.0","0","0","60540","","null","","","null","78","NaN","","","","","","","","","","","","","","",""
"","S2","","html-keyboard-response","504","480076","0.0-1.0-706.0","0","0","60540","","null","","","null","78","","NaN","","","","","","","","","","","","","",""
"","response","","html-keyboard-response","505","480791","0.0-1.0-707.0-0.0","0","0","60540","","711","","","68","78","","","2","78","training","adjacent","FG","6","7","L.jpg","M.jpg","1","1","1","",""
"","feedback","","html-keyboard-response","506","481796","0.0-1.0-708.0-0.0","0","0","60540","","null","","","null","78","","","","","","","","","","","","","","","",""
"","ITI","","html-keyboard-response","507","482801","0.0-1.0-711.0","0","0","60540","","null","","","null","78","","","","","","","","","","","","","","","NaN",""
"","S1","","html-keyboard-response","508","483056","0.0-1.0-713.0","0","0","60540","","null","","","null","79","","","","","","","","","","","","","","","",""
"","ISI","","html-keyboard-response","509","484061","0.0-1.0-714.0","0","0","60540","","null","","","null","79","NaN","","","","","","","","","","","","","","",""
"","S2","","html-keyboard-response","510","484315","0.0-1.0-715.0","0","0","60540","","null","","","null","79","","NaN","","","","","","","","","","","","","",""
"","response","","html-keyboard-response","511","484885","0.0-1.0-716.0-0.0","0","0","60540","","566","","","75","79","","","2","79","training","adjacent","EF","5","6","Q.jpg","L.jpg","0","1","0","",""
"","feedback","","html-keyboard-response","512","485892","0.0-1.0-717.0-0.0","0","0","60540","","null","","","null","79","","","","","","","","","","","","","","","",""
"","time_out","","html-keyboard-response","513","487896","0.0-1.0-719.0-0.0","0","0","60540","","null","","","null","79","","","","","","","","","","","","","","","",""
"","ITI","","html-keyboard-response","514","488903","0.0-1.0-720.0","0","0","60540","","null","","","null","79","","","","","","","","","","","","","","","NaN",""
"","S1","","html-keyboard-response","515","489157","0.0-1.0-722.0","0","0","60540","","null","","","null","80","","","","","","","","","","","","","","","",""
"","ISI","","html-keyboard-response","516","490161","0.0-1.0-723.0","0","0","60540","","null","","","null","80","NaN","","","","","","","","","","","","","","",""
"","S2","","html-keyboard-response","517","490427","0.0-1.0-724.0","0","0","60540","","null","","","null","80","","NaN","","","","","","","","","","","","","",""
"","response","","html-keyboard-response","518","490723","0.0-1.0-725.0-0.0","0","0","60540","","292","","","75","80","","","2","80","training","adjacent","FE","6","5","L.jpg","Q.jpg","0","0","1","",""
"","feedback","","html-keyboard-response","519","491729","0.0-1.0-726.0-0.0","0","0","60540","","null","","","null","80","","","","","","","","","","","","","","","",""
"","ITI","","html-keyboard-response","520","492734","0.0-1.0-729.0","0","0","60540","","null","","","null","80","","","","","","","","","","","","","","","NaN",""
"","S1","","html-keyboard-response","521","492989","0.0-1.0-731.0","0","0","60540","","null","","","null","81","","","","","","","","","","","","","","","",""
"","ISI","","html-keyboard-response","522","493993","0.0-1.0-732.0","0","0","60540","","null","","","null","81","NaN","","","","","","","","","","","","","","",""
"","S2","","html-keyboard-response","523","494249","0.0-1.0-733.0","0","0","60540","","null","","","null","81","","NaN","","","","","","","","","","","","","",""
"","response","","html-keyboard-response","524","494623","0.0-1.0-734.0-0.0","0","0","60540","","371","","","75","81","","","2","81","training","adjacent","BA","2","1","N.jpg","O.jpg","0","0","1","",""
"","feedback","","html-keyboard-response","525","495629","0.0-1.0-735.0-0.0","0","0","60540","","null","","","null","81","","","","","","","","","","","","","","","",""
"","ITI","","html-keyboard-response","526","496634","0.0-1.0-738.0","0","0","60540","","null","","","null","81","","","","","","","","","","","","","","","NaN",""
"","S1","","html-keyboard-response","527","496888","0.0-1.0-740.0","0","0","60540","","null","","","null","82","","","","","","","","","","","","","","","",""
"","ISI","","html-keyboard-response","528","497893","0.0-1.0-741.0","0","0","60540","","null","","","null","82","NaN","","","","","","","","","","","","","","",""
"","S2","","html-keyboard-response","529","498147","0.0-1.0-742.0","0","0","60540","","null","","","null","82","","NaN","","","","","","","","","","","","","",""
"","response","","html-keyboard-response","530","498673","0.0-1.0-743.0-0.0","0","0","60540","","523","","","75","82","","","2","82","training","adjacent","ED","5","4","Q.jpg","P.jpg","0","0","1","",""
"","feedback","","html-keyboard-response","531","499681","0.0-1.0-744.0-0.0","0","0","60540","","null","","","null","82","","","","","","","","","","","","","","","",""
"","ITI","","html-keyboard-response","532","500698","0.0-1.0-747.0","0","0","60540","","null","","","null","82","","","","","","","","","","","","","","","NaN",""
"","S1","","html-keyboard-response","533","500952","0.0-1.0-749.0","0","0","60540","","null","","","null","83","","","","","","","","","","","","","","","",""
"","ISI","","html-keyboard-response","534","501957","0.0-1.0-750.0","0","0","60540","","null","","","null","83","NaN","","","","","","","","","","","","","","",""
"","S2","","html-keyboard-response","535","502213","0.0-1.0-751.0","0","0","60540","","null","","","null","83","","NaN","","","","","","","","","","","","","",""
"","response","","html-keyboard-response","536","502866","0.0-1.0-752.0-0.0","0","0","60540","","649","","","75","83","","","2","83","training","adjacent","CD","3","4","R.jpg","P.jpg","0","1","0","",""
"","feedback","","html-keyboard-response","537","503879","0.0-1.0-753.0-0.0","0","0","60540","","null","","","null","83","","","","","","","","","","","","","","","",""
"","time_out","","html-keyboard-response","538","505883","0.0-1.0-755.0-0.0","0","0","60540","","null","","","null","83","","","","","","","","","","","","","","","",""
"","ITI","","html-keyboard-response","539","506888","0.0-1.0-756.0","0","0","60540","","null","","","null","83","","","","","","","","","","","","","","","NaN",""
"","S1","","html-keyboard-response","540","507142","0.0-1.0-758.0","0","0","60540","","null","","","null","84","","","","","","","","","","","","","","","",""
"","ISI","","html-keyboard-response","541","508147","0.0-1.0-759.0","0","0","60540","","null","","","null","84","NaN","","","","","","","","","","","","","","",""
"","S2","","html-keyboard-response","542","508401","0.0-1.0-760.0","0","0","60540","","null","","","null","84","","NaN","","","","","","","","","","","","","",""
"","response","","html-keyboard-response","543","508721","0.0-1.0-761.0-0.0","0","0","60540","","316","","","75","84","","","2","84","training","adjacent","GF","7","6","M.jpg","L.jpg","0","0","1","",""
"","feedback","","html-keyboard-response","544","509726","0.0-1.0-762.0-0.0","0","0","60540","","null","","","null","84","","","","","","","","","","","","","","","",""
"","ITI","","html-keyboard-response","545","510731","0.0-1.0-765.0","0","0","60540","","null","","","null","84","","","","","","","","","","","","","","","NaN",""
"","S1","","html-keyboard-response","546","510986","0.0-1.0-767.0","0","0","60540","","null","","","null","85","","","","","","","","","","","","","","","",""
"","ISI","","html-keyboard-response","547","511990","0.0-1.0-768.0","0","0","60540","","null","","","null","85","NaN","","","","","","","","","","","","","","",""
"","S2","","html-keyboard-response","548","512245","0.0-1.0-769.0","0","0","60540","","null","","","null","85","","NaN","","","","","","","","","","","","","",""
"","response","","html-keyboard-response","549","512827","0.0-1.0-770.0-0.0","0","0","60540","","577","","","75","85","","","2","85","training","adjacent","EF","5","6","Q.jpg","L.jpg","0","1","0","",""
"","feedback","","html-keyboard-response","550","513843","0.0-1.0-771.0-0.0","0","0","60540","","null","","","null","85","","","","","","","","","","","","","","","",""
"","time_out","","html-keyboard-response","551","515847","0.0-1.0-773.0-0.0","0","0","60540","","null","","","null","85","","","","","","","","","","","","","","","",""
"","ITI","","html-keyboard-response","552","516859","0.0-1.0-774.0","0","0","60540","","null","","","null","85","","","","","","","","","","","","","","","NaN",""
"","S1","","html-keyboard-response","553","517115","0.0-1.0-776.0","0","0","60540","","null","","","null","86","","","","","","","","","","","","","","","",""
"","ISI","","html-keyboard-response","554","518118","0.0-1.0-777.0","0","0","60540","","null","","","null","86","NaN","","","","","","","","","","","","","","",""
"","S2","","html-keyboard-response","555","518372","0.0-1.0-778.0","0","0","60540","","null","","","null","86","","NaN","","","","","","","","","","","","","",""
"","response","","html-keyboard-response","556","519123","0.0-1.0-779.0-0.0","0","0","60540","","747","","","68","86","","","2","86","training","adjacent","FG","6","7","L.jpg","M.jpg","1","1","1","",""
"","feedback","","html-keyboard-response","557","520128","0.0-1.0-780.0-0.0","0","0","60540","","null","","","null","86","","","","","","","","","","","","","","","",""
"","ITI","","html-keyboard-response","558","521133","0.0-1.0-783.0","0","0","60540","","null","","","null","86","","","","","","","","","","","","","","","NaN",""
"","S1","","html-keyboard-response","559","521387","0.0-1.0-785.0","0","0","60540","","null","","","null","87","","","","","","","","","","","","","","","",""
"","ISI","","html-keyboard-response","560","522392","0.0-1.0-786.0","0","0","60540","","null","","","null","87","NaN","","","","","","","","","","","","","","",""
"","S2","","html-keyboard-response","561","522648","0.0-1.0-787.0","0","0","60540","","null","","","null","87","","NaN","","","","","","","","","","","","","",""
"","response","","html-keyboard-response","562","522981","0.0-1.0-788.0-0.0","0","0","60540","","329","","","75","87","","","2","87","training","adjacent","CB","3","2","R.jpg","N.jpg","0","0","1","",""
"","feedback","","html-keyboard-response","563","523985","0.0-1.0-789.0-0.0","0","0","60540","","null","","","null","87","","","","","","","","","","","","","","","",""
"","ITI","","html-keyboard-response","564","524990","0.0-1.0-792.0","0","0","60540","","null","","","null","87","","","","","","","","","","","","","","","NaN",""
"","S1","","html-keyboard-response","565","525244","0.0-1.0-794.0","0","0","60540","","null","","","null","88","","","","","","","","","","","","","","","",""
"","ISI","","html-keyboard-response","566","526249","0.0-1.0-795.0","0","0","60540","","null","","","null","88","NaN","","","","","","","","","","","","","","",""
"","S2","","html-keyboard-response","567","526503","0.0-1.0-796.0","0","0","60540","","null","","","null","88","","NaN","","","","","","","","","","","","","",""
"","response","","html-keyboard-response","568","526803","0.0-1.0-797.0-0.0","0","0","60540","","295","","","75","88","","","2","88","training","adjacent","BA","2","1","N.jpg","O.jpg","0","0","1","",""
"","feedback","","html-keyboard-response","569","527808","0.0-1.0-798.0-0.0","0","0","60540","","null","","","null","88","","","","","","","","","","","","","","","",""
"","ITI","","html-keyboard-response","570","528813","0.0-1.0-801.0","0","0","60540","","null","","","null","88","","","","","","","","","","","","","","","NaN",""
"","S1","","html-keyboard-response","571","529067","0.0-1.0-803.0","0","0","60540","","null","","","null","89","","","","","","","","","","","","","","","",""
"","ISI","","html-keyboard-response","572","530071","0.0-1.0-804.0","0","0","60540","","null","","","null","89","NaN","","","","","","","","","","","","","","",""
"","S2","","html-keyboard-response","573","530326","0.0-1.0-805.0","0","0","60540","","null","","","null","89","","NaN","","","","","","","","","","","","","",""
"","response","","html-keyboard-response","574","530641","0.0-1.0-806.0-0.0","0","0","60540","","311","","","68","89","","","2","89","training","adjacent","FG","6","7","L.jpg","M.jpg","1","1","1","",""
"","feedback","","html-keyboard-response","575","531645","0.0-1.0-807.0-0.0","0","0","60540","","null","","","null","89","","","","","","","","","","","","","","","",""
"","ITI","","html-keyboard-response","576","532650","0.0-1.0-810.0","0","0","60540","","null","","","null","89","","","","","","","","","","","","","","","NaN",""
"","S1","","html-keyboard-response","577","532903","0.0-1.0-812.0","0","0","60540","","null","","","null","90","","","","","","","","","","","","","","","",""
"","ISI","","html-keyboard-response","578","533907","0.0-1.0-813.0","0","0","60540","","null","","","null","90","NaN","","","","","","","","","","","","","","",""
"","S2","","html-keyboard-response","579","534161","0.0-1.0-814.0","0","0","60540","","null","","","null","90","","NaN","","","","","","","","","","","","","",""
"","response","","html-keyboard-response","580","534746","0.0-1.0-815.0-0.0","0","0","60540","","580","","","75","90","","","2","90","training","adjacent","CD","3","4","R.jpg","P.jpg","0","1","0","",""
"","feedback","","html-keyboard-response","581","535751","0.0-1.0-816.0-0.0","0","0","60540","","null","","","null","90","","","","","","","","","","","","","","","",""
"","time_out","","html-keyboard-response","582","537756","0.0-1.0-818.0-0.0","0","0","60540","","null","","","null","90","","","","","","","","","","","","","","","",""
