"success","ttype","start_time","trial_type","trial_index","time_elapsed","internal_node_id","warning","missed_checkup","PID","view_history","rt","responses","repeat_instructions","key_press","index","keypress_isi","keypress_S2","block","trial_num","phase","group_type","pair_type","S1_stim","S2_stim","S1_img","S2_img","S1_chosen","S1_higher","accuracy","keypress_iti","total_bonus_tally"
"true","full_screen","d03072023hr1743","fullscreen","0","16250","0.0-0.0","0","0","72773","","","","","","","","","","","","","","","","","","","","","",""
"","instructions","","instructions","1","40297","0.0-1.0-0.0-0.0","0","0","72773","[{""page_index"":0,""viewing_time"":5068},{""page_index"":1,""viewing_time"":12520},{""page_index"":2,""viewing_time"":5224},{""page_index"":3,""viewing_time"":1232}]","24045","","","","","","","","","","","","","","","","","","","",""
"","comprehension_check","","survey-multi-choice","2","66217","0.0-1.0-0.0-1.0","0","0","72773","","25915","{""Q0"":""True"",""Q1"":""K"",""Q2"":""Once the second image appears and while the screen 'MAKE A CHOICE' is shown"",""Q3"":""Green mark"",""Q4"":""either D or K""}","0","","","","","","","","","","","","","","","","","",""
"","start_exp","","html-keyboard-response","3","68438","0.0-1.0-1.0","0","0","72773","","2217","","","32","","","","","","","","","","","","","","","","",""
"","S1","","html-keyboard-response","4","68707","0.0-1.0-2.0","0","0","72773","","null","","","null","0","","","","","","","","","","","","","","","",""
"","ISI","","html-keyboard-response","5","69710","0.0-1.0-3.0","0","0","72773","","null","","","null","0","NaN","","","","","","","","","","","","","","",""
"","S2","","html-keyboard-response","6","69964","0.0-1.0-4.0","0","0","72773","","null","","","null","0","","NaN","","","","","","","","","","","","","",""
"","response","","html-keyboard-response","7","70587","0.0-1.0-5.0-0.0","0","0","72773","","621","","","75","0","","","1","0","training","adjacent","FE","6","5","P.jpg","N.jpg","1","0","0","",""
"","feedback","","html-keyboard-response","8","71590","0.0-1.0-6.0-0.0","0","0","72773","","null","","","null","0","","","","","","","","","","","","","","","",""
"","time_out","","html-keyboard-response","9","73594","0.0-1.0-8.0-0.0","0","0","72773","","null","","","null","0","","","","","","","","","","","","","","","",""
"","ITI","","html-keyboard-response","10","74596","0.0-1.0-9.0","0","0","72773","","null","","","null","0","","","","","","","","","","","","","","","NaN",""
"","S1","","html-keyboard-response","11","74848","0.0-1.0-11.0","0","0","72773","","null","","","null","1","","","","","","","","","","","","","","","",""
"","ISI","","html-keyboard-response","12","75851","0.0-1.0-12.0","0","0","72773","","null","","","null","1","NaN","","","","","","","","","","","","","","",""
"","S2","","html-keyboard-response","13","76104","0.0-1.0-13.0","0","0","72773","","null","","","null","1","","NaN","","","","","","","","","","","","","",""
"","response","","html-keyboard-response","14","77856","0.0-1.0-14.0-0.0","0","0","72773","","null","","","null","1","","","1","1","training","adjacent","CD","3","4","M.jpg","R.jpg","NaN","1","0","",""
"","too_slow_prompt","","html-keyboard-response","15","78859","0.0-1.0-16.0-0.0","1","0","72773","","null","","","null","","","","","","","","","","","","","","","","",""
"","time_out","","html-keyboard-response","16","80862","0.0-1.0-17.0-0.0","0","0","72773","","null","","","null","1","","","","","","","","","","","","","","","",""
"","ITI","","html-keyboard-response","17","81865","0.0-1.0-18.0","0","0","72773","","null","","","null","1","","","","","","","","","","","","","","","NaN",""
"","S1","","html-keyboard-response","18","82348","0.0-1.0-20.0","0","0","72773","","null","","","null","2","","","","","","","","","","","","","","","",""
"","ISI","","html-keyboard-response","19","83352","0.0-1.0-21.0","0","0","72773","","null","","","null","2","NaN","","","","","","","","","","","","","","",""
"","S2","","html-keyboard-response","20","83605","0.0-1.0-22.0","0","0","72773","","null","","","null","2","","NaN","","","","","","","","","","","","","",""
"","response","","html-keyboard-response","21","83827","0.0-1.0-23.0-0.0","0","0","72773","","220","","","68","2","","","1","2","training","adjacent","EF","5","6","N.jpg","P.jpg","0","1","0","",""
"","feedback","","html-keyboard-response","22","84831","0.0-1.0-24.0-0.0","0","0","72773","","null","","","null","2","","","","","","","","","","","","","","","",""
"","time_out","","html-keyboard-response","23","86832","0.0-1.0-26.0-0.0","0","0","72773","","null","","","null","2","","","","","","","","","","","","","","","",""
"","ITI","","html-keyboard-response","24","87836","0.0-1.0-27.0","0","0","72773","","null","","","null","2","","","","","","","","","","","","","","","NaN",""
"","S1","","html-keyboard-response","25","88088","0.0-1.0-29.0","0","0","72773","","null","","","null","3","","","","","","","","","","","","","","","",""
"","ISI","","html-keyboard-response","26","89090","0.0-1.0-30.0","0","0","72773","","null","","","null","3","NaN","","","","","","","","","","","","","","",""
"","S2","","html-keyboard-response","27","89344","0.0-1.0-31.0","0","0","72773","","null","","","null","3","","NaN","","","","","","","","","","","","","",""
"","response","","html-keyboard-response","28","89584","0.0-1.0-32.0-0.0","0","0","72773","","238","","","75","3","","","1","3","training","adjacent","BA","2","1","L.jpg","O.jpg","1","0","0","",""
"","feedback","","html-keyboard-response","29","90586","0.0-1.0-33.0-0.0","0","0","72773","","null","","","null","3","","","","","","","","","","","","","","","",""
"","time_out","","html-keyboard-response","30","92588","0.0-1.0-35.0-0.0","0","0","72773","","null","","","null","3","","","","","","","","","","","","","","","",""
"","ITI","","html-keyboard-response","31","93591","0.0-1.0-36.0","0","0","72773","","null","","","null","3","","","","","","","","","","","","","","","NaN",""
"","S1","","html-keyboard-response","32","93843","0.0-1.0-38.0","0","0","72773","","null","","","null","4","","","","","","","","","","","","","","","",""
"","ISI","","html-keyboard-response","33","94846","0.0-1.0-39.0","0","0","72773","","3","","","68","4","d","","","","","","","","","","","","","","",""
"","S2","","html-keyboard-response","34","94929","0.0-1.0-40.0","0","0","72773","","82","","","68","4","","d","1","4","training","adjacent","DC","4","3","R.jpg","M.jpg","0","0","1","",""
"","feedback","","html-keyboard-response","35","95933","0.0-1.0-42.0-0.0","0","0","72773","","null","","","null","4","","","","","","","","","","","","","","","",""
"","ITI","","html-keyboard-response","36","96935","0.0-1.0-45.0","0","0","72773","","417","","","68","4","","","","","","","","","","","","","","","d",""
"","S1","","html-keyboard-response","37","97187","0.0-1.0-47.0","0","0","72773","","null","","","null","5","","","","","","","","","","","","","","","",""
"","ISI","","html-keyboard-response","38","98191","0.0-1.0-48.0","0","0","72773","","250","","","68","5","d","","","","","","","","","","","","","","",""
"","S2","","html-keyboard-response","39","98266","0.0-1.0-49.0","0","0","72773","","73","","","68","5","","d","1","5","training","adjacent","FE","6","5","P.jpg","N.jpg","0","0","1","",""
"","feedback","","html-keyboard-response","40","99269","0.0-1.0-51.0-0.0","0","0","72773","","null","","","null","5","","","","","","","","","","","","","","","",""
"","ITI","","html-keyboard-response","41","100272","0.0-1.0-54.0","0","0","72773","","127","","","68","5","","","","","","","","","","","","","","","d",""
"","S1","","html-keyboard-response","42","100539","0.0-1.0-56.0","0","0","72773","","null","","","null","6","","","","","","","","","","","","","","","",""
"","ISI","","html-keyboard-response","43","101542","0.0-1.0-57.0","0","0","72773","","203","","","68","6","d","","","","","","","","","","","","","","",""
"","S2","","html-keyboard-response","44","101672","0.0-1.0-58.0","0","0","72773","","129","","","68","6","","d","1","6","training","adjacent","ED","5","4","N.jpg","R.jpg","0","0","1","",""
"","feedback","","html-keyboard-response","45","102674","0.0-1.0-60.0-0.0","0","0","72773","","null","","","null","6","","","","","","","","","","","","","","","",""
"","ITI","","html-keyboard-response","46","103676","0.0-1.0-63.0","0","0","72773","","62","","","75","6","","","","","","","","","","","","","","","k",""
"","S1","","html-keyboard-response","47","103928","0.0-1.0-65.0","0","0","72773","","null","","","null","7","","","","","","","","","","","","","","","",""
"","ISI","","html-keyboard-response","48","104931","0.0-1.0-66.0","0","0","72773","","122","","","75","7","k","","","","","","","","","","","","","","",""
"","S2","","html-keyboard-response","49","105089","0.0-1.0-67.0","0","0","72773","","155","","","75","7","","k","1","7","training","adjacent","CB","3","2","M.jpg","L.jpg","1","0","0","",""
"","feedback","","html-keyboard-response","50","106092","0.0-1.0-69.0-0.0","0","0","72773","","null","","","null","7","","","","","","","","","","","","","","","",""
"","time_out","","html-keyboard-response","51","108095","0.0-1.0-71.0-0.0","0","0","72773","","null","","","null","7","","","","","","","","","","","","","","","",""
"","ITI","","html-keyboard-response","52","109098","0.0-1.0-72.0","0","0","72773","","580","","","68","7","","","","","","","","","","","","","","","d",""
"","S1","","html-keyboard-response","53","109351","0.0-1.0-74.0","0","0","72773","","null","","","null","8","","","","","","","","","","","","","","","",""
"","ISI","","html-keyboard-response","54","110353","0.0-1.0-75.0","0","0","72773","","44","","","68","8","d","","","","","","","","","","","","","","",""
"","S2","","html-keyboard-response","55","110401","0.0-1.0-76.0","0","0","72773","","45","","","68","8","","d","1","8","training","adjacent","GF","7","6","Q.jpg","P.jpg","0","0","1","",""
"","feedback","","html-keyboard-response","56","111404","0.0-1.0-78.0-0.0","0","0","72773","","null","","","null","8","","","","","","","","","","","","","","","",""
"","ITI","","html-keyboard-response","57","112407","0.0-1.0-81.0","0","0","72773","","null","","","null","8","","","","","","","","","","","","","","","NaN",""
"","S1","","html-keyboard-response","58","112661","0.0-1.0-83.0","0","0","72773","","null","","","null","9","","","","","","","","","","","","","","","",""
"","ISI","","html-keyboard-response","59","113663","0.0-1.0-84.0","0","0","72773","","525","","","75","9","k","","","","","","","","","","","","","","",""
"","S2","","html-keyboard-response","60","113917","0.0-1.0-85.0","0","0","72773","","null","","","null","9","","NaN","","","","","","","","","","","","","",""
"","response","","html-keyboard-response","61","114165","0.0-1.0-86.0-0.0","0","0","72773","","247","","","75","9","","","1","9","training","adjacent","GF","7","6","Q.jpg","P.jpg","1","0","0","",""
"","feedback","","html-keyboard-response","62","115168","0.0-1.0-87.0-0.0","0","0","72773","","null","","","null","9","","","","","","","","","","","","","","","",""
"","time_out","","html-keyboard-response","63","117171","0.0-1.0-89.0-0.0","0","0","72773","","null","","","null","9","","","","","","","","","","","","","","","",""
"","ITI","","html-keyboard-response","64","118173","0.0-1.0-90.0","0","0","72773","","null","","","null","9","","","","","","","","","","","","","","","NaN",""
"","S1","","html-keyboard-response","65","118426","0.0-1.0-92.0","0","0","72773","","null","","","null","10","","","","","","","","","","","","","","","",""
"","ISI","","html-keyboard-response","66","119440","0.0-1.0-93.0","0","0","72773","","null","","","null","10","NaN","","","","","","","","","","","","","","",""
"","S2","","html-keyboard-response","67","119693","0.0-1.0-94.0","0","0","72773","","null","","","null","10","","NaN","","","","","","","","","","","","","",""
"","response","","html-keyboard-response","68","119909","0.0-1.0-95.0-0.0","0","0","72773","","214","","","75","10","","","1","10","training","adjacent","EF","5","6","N.jpg","P.jpg","1","1","1","",""
"","feedback","","html-keyboard-response","69","120912","0.0-1.0-96.0-0.0","0","0","72773","","null","","","null","10","","","","","","","","","","","","","","","",""
"","ITI","","html-keyboard-response","70","121914","0.0-1.0-99.0","0","0","72773","","null","","","null","10","","","","","","","","","","","","","","","NaN",""
"","S1","","html-keyboard-response","71","122166","0.0-1.0-101.0","0","0","72773","","null","","","null","11","","","","","","","","","","","","","","","",""
"","ISI","","html-keyboard-response","72","123168","0.0-1.0-102.0","0","0","72773","","null","","","null","11","NaN","","","","","","","","","","","","","","",""
"","S2","","html-keyboard-response","73","123421","0.0-1.0-103.0","0","0","72773","","null","","","null","11","","NaN","","","","","","","","","","","","","",""
"","response","","html-keyboard-response","74","123517","0.0-1.0-104.0-0.0","0","0","72773","","95","","","75","11","","","1","11","training","adjacent","AB","1","2","O.jpg","L.jpg","1","1","1","",""
"","feedback","","html-keyboard-response","75","124520","0.0-1.0-105.0-0.0","0","0","72773","","null","","","null","11","","","","","","","","","","","","","","","",""
"","ITI","","html-keyboard-response","76","125523","0.0-1.0-108.0","0","0","72773","","null","","","null","11","","","","","","","","","","","","","","","NaN",""
"","S1","","html-keyboard-response","77","125777","0.0-1.0-110.0","0","0","72773","","null","","","null","12","","","","","","","","","","","","","","","",""
"","ISI","","html-keyboard-response","78","126780","0.0-1.0-111.0","0","0","72773","","null","","","null","12","NaN","","","","","","","","","","","","","","",""
"","S2","","html-keyboard-response","79","127033","0.0-1.0-112.0","0","0","72773","","null","","","null","12","","NaN","","","","","","","","","","","","","",""
"","response","","html-keyboard-response","80","127205","0.0-1.0-113.0-0.0","0","0","72773","","170","","","68","12","","","1","12","training","adjacent","DC","4","3","R.jpg","M.jpg","0","0","1","",""
"","feedback","","html-keyboard-response","81","128207","0.0-1.0-114.0-0.0","0","0","72773","","null","","","null","12","","","","","","","","","","","","","","","",""
"","ITI","","html-keyboard-response","82","129209","0.0-1.0-117.0","0","0","72773","","null","","","null","12","","","","","","","","","","","","","","","NaN",""
"","S1","","html-keyboard-response","83","129463","0.0-1.0-119.0","0","0","72773","","null","","","null","13","","","","","","","","","","","","","","","",""
"","ISI","","html-keyboard-response","84","130465","0.0-1.0-120.0","0","0","72773","","null","","","null","13","NaN","","","","","","","","","","","","","","",""
"","S2","","html-keyboard-response","85","130718","0.0-1.0-121.0","0","0","72773","","null","","","null","13","","NaN","","","","","","","","","","","","","",""
"","response","","html-keyboard-response","86","130762","0.0-1.0-122.0-0.0","0","0","72773","","43","","","75","13","","","1","13","training","adjacent","GF","7","6","Q.jpg","P.jpg","1","0","0","",""
"","feedback","","html-keyboard-response","87","131765","0.0-1.0-123.0-0.0","0","0","72773","","null","","","null","13","","","","","","","","","","","","","","","",""
"","time_out","","html-keyboard-response","88","133769","0.0-1.0-125.0-0.0","0","0","72773","","null","","","null","13","","","","","","","","","","","","","","","",""
"","ITI","","html-keyboard-response","89","134771","0.0-1.0-126.0","0","0","72773","","null","","","null","13","","","","","","","","","","","","","","","NaN",""
"","S1","","html-keyboard-response","90","135024","0.0-1.0-128.0","0","0","72773","","null","","","null","14","","","","","","","","","","","","","","","",""
"","ISI","","html-keyboard-response","91","136027","0.0-1.0-129.0","0","0","72773","","null","","","null","14","NaN","","","","","","","","","","","","","","",""
"","S2","","html-keyboard-response","92","136202","0.0-1.0-130.0","0","0","72773","","174","","","68","14","","d","1","14","training","adjacent","DC","4","3","R.jpg","M.jpg","0","0","1","",""
"","feedback","","html-keyboard-response","93","137205","0.0-1.0-132.0-0.0","0","0","72773","","null","","","null","14","","","","","","","","","","","","","","","",""
"","ITI","","html-keyboard-response","94","138208","0.0-1.0-135.0","0","0","72773","","null","","","null","14","","","","","","","","","","","","","","","NaN",""
"","S1","","html-keyboard-response","95","138460","0.0-1.0-137.0","0","0","72773","","null","","","null","15","","","","","","","","","","","","","","","",""
"","ISI","","html-keyboard-response","96","139466","0.0-1.0-138.0","0","0","72773","","null","","","null","15","NaN","","","","","","","","","","","","","","",""
"","S2","","html-keyboard-response","97","139719","0.0-1.0-139.0","0","0","72773","","null","","","null","15","","NaN","","","","","","","","","","","","","",""
"","response","","html-keyboard-response","98","139820","0.0-1.0-140.0-0.0","0","0","72773","","98","","","68","15","","","1","15","training","adjacent","FG","6","7","P.jpg","Q.jpg","0","1","0","",""
"","feedback","","html-keyboard-response","99","140822","0.0-1.0-141.0-0.0","0","0","72773","","null","","","null","15","","","","","","","","","","","","","","","",""
"","time_out","","html-keyboard-response","100","142837","0.0-1.0-143.0-0.0","0","0","72773","","null","","","null","15","","","","","","","","","","","","","","","",""
"","ITI","","html-keyboard-response","101","143840","0.0-1.0-144.0","0","0","72773","","null","","","null","15","","","","","","","","","","","","","","","NaN",""
"","S1","","html-keyboard-response","102","144093","0.0-1.0-146.0","0","0","72773","","null","","","null","16","","","","","","","","","","","","","","","",""
"","ISI","","html-keyboard-response","103","145096","0.0-1.0-147.0","0","0","72773","","null","","","null","16","NaN","","","","","","","","","","","","","","",""
"","S2","","html-keyboard-response","104","145348","0.0-1.0-148.0","0","0","72773","","null","","","null","16","","NaN","","","","","","","","","","","","","",""
"","response","","html-keyboard-response","105","145454","0.0-1.0-149.0-0.0","0","0","72773","","104","","","68","16","","","1","16","training","adjacent","ED","5","4","N.jpg","R.jpg","0","0","1","",""
"","feedback","","html-keyboard-response","106","146456","0.0-1.0-150.0-0.0","0","0","72773","","null","","","null","16","","","","","","","","","","","","","","","",""
"","ITI","","html-keyboard-response","107","147458","0.0-1.0-153.0","0","0","72773","","null","","","null","16","","","","","","","","","","","","","","","NaN",""
"","S1","","html-keyboard-response","108","147711","0.0-1.0-155.0","0","0","72773","","null","","","null","17","","","","","","","","","","","","","","","",""
"","ISI","","html-keyboard-response","109","148714","0.0-1.0-156.0","0","0","72773","","null","","","null","17","NaN","","","","","","","","","","","","","","",""
"","S2","","html-keyboard-response","110","148966","0.0-1.0-157.0","0","0","72773","","null","","","null","17","","NaN","","","","","","","","","","","","","",""
"","response","","html-keyboard-response","111","149036","0.0-1.0-158.0-0.0","0","0","72773","","68","","","75","17","","","1","17","training","adjacent","CB","3","2","M.jpg","L.jpg","1","0","0","",""
"","feedback","","html-keyboard-response","112","150039","0.0-1.0-159.0-0.0","0","0","72773","","null","","","null","17","","","","","","","","","","","","","","","",""
"","time_out","","html-keyboard-response","113","152042","0.0-1.0-161.0-0.0","0","0","72773","","null","","","null","17","","","","","","","","","","","","","","","",""
"","ITI","","html-keyboard-response","114","153044","0.0-1.0-162.0","0","0","72773","","null","","","null","17","","","","","","","","","","","","","","","NaN",""
"","S1","","html-keyboard-response","115","153297","0.0-1.0-164.0","0","0","72773","","null","","","null","18","","","","","","","","","","","","","","","",""
"","ISI","","html-keyboard-response","116","154300","0.0-1.0-165.0","0","0","72773","","null","","","null","18","NaN","","","","","","","","","","","","","","",""
"","S2","","html-keyboard-response","117","154553","0.0-1.0-166.0","0","0","72773","","null","","","null","18","","NaN","","","","","","","","","","","","","",""
"","response","","html-keyboard-response","118","154673","0.0-1.0-167.0-0.0","0","0","72773","","119","","","68","18","","","1","18","training","adjacent","AB","1","2","O.jpg","L.jpg","0","1","0","",""
"","feedback","","html-keyboard-response","119","155676","0.0-1.0-168.0-0.0","0","0","72773","","null","","","null","18","","","","","","","","","","","","","","","",""
"","time_out","","html-keyboard-response","120","157678","0.0-1.0-170.0-0.0","0","0","72773","","null","","","null","18","","","","","","","","","","","","","","","",""
"","ITI","","html-keyboard-response","121","158681","0.0-1.0-171.0","0","0","72773","","null","","","null","18","","","","","","","","","","","","","","","NaN",""
"","S1","","html-keyboard-response","122","158933","0.0-1.0-173.0","0","0","72773","","null","","","null","19","","","","","","","","","","","","","","","",""
"","ISI","","html-keyboard-response","123","159936","0.0-1.0-174.0","0","0","72773","","null","","","null","19","NaN","","","","","","","","","","","","","","",""
"","S2","","html-keyboard-response","124","159968","0.0-1.0-175.0","0","0","72773","","29","","","68","19","","d","1","19","training","adjacent","ED","5","4","N.jpg","R.jpg","0","0","1","",""
"","feedback","","html-keyboard-response","125","160971","0.0-1.0-177.0-0.0","0","0","72773","","null","","","null","19","","","","","","","","","","","","","","","",""
"","ITI","","html-keyboard-response","126","161973","0.0-1.0-180.0","0","0","72773","","null","","","null","19","","","","","","","","","","","","","","","NaN",""
"","S1","","html-keyboard-response","127","162226","0.0-1.0-182.0","0","0","72773","","null","","","null","20","","","","","","","","","","","","","","","",""
"","ISI","","html-keyboard-response","128","163228","0.0-1.0-183.0","0","0","72773","","null","","","null","20","NaN","","","","","","","","","","","","","","",""
"","S2","","html-keyboard-response","129","163482","0.0-1.0-184.0","0","0","72773","","null","","","null","20","","NaN","","","","","","","","","","","","","",""
"","response","","html-keyboard-response","130","163787","0.0-1.0-185.0-0.0","0","0","72773","","304","","","75","20","","","1","20","training","adjacent","DE","4","5","R.jpg","N.jpg","1","1","1","",""
"","feedback","","html-keyboard-response","131","164790","0.0-1.0-186.0-0.0","0","0","72773","","null","","","null","20","","","","","","","","","","","","","","","",""
"","ITI","","html-keyboard-response","132","165793","0.0-1.0-189.0","0","0","72773","","null","","","null","20","","","","","","","","","","","","","","","NaN",""
"","S1","","html-keyboard-response","133","166047","0.0-1.0-191.0","0","0","72773","","null","","","null","21","","","","","","","","","","","","","","","",""
"","ISI","","html-keyboard-response","134","167050","0.0-1.0-192.0","0","0","72773","","null","","","null","21","NaN","","","","","","","","","","","","","","",""
"","S2","","html-keyboard-response","135","167303","0.0-1.0-193.0","0","0","72773","","null","","","null","21","","NaN","","","","","","","","","","","","","",""
"","response","","html-keyboard-response","136","167530","0.0-1.0-194.0-0.0","0","0","72773","","225","","","68","21","","","1","21","training","adjacent","BC","2","3","L.jpg","M.jpg","0","1","0","",""
"","feedback","","html-keyboard-response","137","168533","0.0-1.0-195.0-0.0","0","0","72773","","null","","","null","21","","","","","","","","","","","","","","","",""
"","time_out","","html-keyboard-response","138","170535","0.0-1.0-197.0-0.0","0","0","72773","","null","","","null","21","","","","","","","","","","","","","","","",""
"","ITI","","html-keyboard-response","139","171537","0.0-1.0-198.0","0","0","72773","","null","","","null","21","","","","","","","","","","","","","","","NaN",""
"","S1","","html-keyboard-response","140","171791","0.0-1.0-200.0","0","0","72773","","null","","","null","22","","","","","","","","","","","","","","","",""
"","ISI","","html-keyboard-response","141","172793","0.0-1.0-201.0","0","0","72773","","null","","","null","22","NaN","","","","","","","","","","","","","","",""
"","S2","","html-keyboard-response","142","173047","0.0-1.0-202.0","0","0","72773","","null","","","null","22","","NaN","","","","","","","","","","","","","",""
"","response","","html-keyboard-response","143","173295","0.0-1.0-203.0-0.0","0","0","72773","","247","","","75","22","","","1","22","training","adjacent","BA","2","1","L.jpg","O.jpg","1","0","0","",""
"","feedback","","html-keyboard-response","144","174298","0.0-1.0-204.0-0.0","0","0","72773","","null","","","null","22","","","","","","","","","","","","","","","",""
"","time_out","","html-keyboard-response","145","176301","0.0-1.0-206.0-0.0","0","0","72773","","null","","","null","22","","","","","","","","","","","","","","","",""
"","ITI","","html-keyboard-response","146","177304","0.0-1.0-207.0","0","0","72773","","null","","","null","22","","","","","","","","","","","","","","","NaN",""
"","S1","","html-keyboard-response","147","177556","0.0-1.0-209.0","0","0","72773","","null","","","null","23","","","","","","","","","","","","","","","",""
"","ISI","","html-keyboard-response","148","178559","0.0-1.0-210.0","0","0","72773","","null","","","null","23","NaN","","","","","","","","","","","","","","",""
"","S2","","html-keyboard-response","149","178786","0.0-1.0-211.0","0","0","72773","","226","","","68","23","","d","1","23","training","adjacent","CB","3","2","M.jpg","L.jpg","0","0","1","",""
"","feedback","","html-keyboard-response","150","179789","0.0-1.0-213.0-0.0","0","0","72773","","null","","","null","23","","","","","","","","","","","","","","","",""
"","ITI","","html-keyboard-response","151","180792","0.0-1.0-216.0","0","0","72773","","null","","","null","23","","","","","","","","","","","","","","","NaN",""
"","S1","","html-keyboard-response","152","181045","0.0-1.0-218.0","0","0","72773","","null","","","null","24","","","","","","","","","","","","","","","",""
"","ISI","","html-keyboard-response","153","182047","0.0-1.0-219.0","0","0","72773","","null","","","null","24","NaN","","","","","","","","","","","","","","",""
"","S2","","html-keyboard-response","154","182301","0.0-1.0-220.0","0","0","72773","","null","","","null","24","","NaN","","","","","","","","","","","","","",""
"","response","","html-keyboard-response","155","182562","0.0-1.0-221.0-0.0","0","0","72773","","259","","","75","24","","","1","24","training","adjacent","FG","6","7","P.jpg","Q.jpg","1","1","1","",""
"","feedback","","html-keyboard-response","156","183565","0.0-1.0-222.0-0.0","0","0","72773","","null","","","null","24","","","","","","","","","","","","","","","",""
"","ITI","","html-keyboard-response","157","184569","0.0-1.0-225.0","0","0","72773","","null","","","null","24","","","","","","","","","","","","","","","NaN",""
"","S1","","html-keyboard-response","158","184822","0.0-1.0-227.0","0","0","72773","","null","","","null","25","","","","","","","","","","","","","","","",""
"","ISI","","html-keyboard-response","159","185826","0.0-1.0-228.0","0","0","72773","","null","","","null","25","NaN","","","","","","","","","","","","","","",""
"","S2","","html-keyboard-response","160","186079","0.0-1.0-229.0","0","0","72773","","null","","","null","25","","NaN","","","","","","","","","","","","","",""
"","response","","html-keyboard-response","161","186262","0.0-1.0-230.0-0.0","0","0","72773","","181","","","68","25","","","1","25","training","adjacent","ED","5","4","N.jpg","R.jpg","0","0","1","",""
"","feedback","","html-keyboard-response","162","187264","0.0-1.0-231.0-0.0","0","0","72773","","null","","","null","25","","","","","","","","","","","","","","","",""
"","ITI","","html-keyboard-response","163","188268","0.0-1.0-234.0","0","0","72773","","null","","","null","25","","","","","","","","","","","","","","","NaN",""
"","S1","","html-keyboard-response","164","188520","0.0-1.0-236.0","0","0","72773","","null","","","null","26","","","","","","","","","","","","","","","",""
"","ISI","","html-keyboard-response","165","189523","0.0-1.0-237.0","0","0","72773","","null","","","null","26","NaN","","","","","","","","","","","","","","",""
"","S2","","html-keyboard-response","166","189777","0.0-1.0-238.0","0","0","72773","","null","","","null","26","","NaN","","","","","","","","","","","","","",""
"","response","","html-keyboard-response","167","189989","0.0-1.0-239.0-0.0","0","0","72773","","210","","","68","26","","","1","26","training","adjacent","EF","5","6","N.jpg","P.jpg","0","1","0","",""
"","feedback","","html-keyboard-response","168","190992","0.0-1.0-240.0-0.0","0","0","72773","","null","","","null","26","","","","","","","","","","","","","","","",""
"","time_out","","html-keyboard-response","169","192996","0.0-1.0-242.0-0.0","0","0","72773","","null","","","null","26","","","","","","","","","","","","","","","",""
"","ITI","","html-keyboard-response","170","194000","0.0-1.0-243.0","0","0","72773","","null","","","null","26","","","","","","","","","","","","","","","NaN",""
"","S1","","html-keyboard-response","171","194253","0.0-1.0-245.0","0","0","72773","","null","","","null","27","","","","","","","","","","","","","","","",""
"","ISI","","html-keyboard-response","172","195256","0.0-1.0-246.0","0","0","72773","","null","","","null","27","NaN","","","","","","","","","","","","","","",""
"","S2","","html-keyboard-response","173","195509","0.0-1.0-247.0","0","0","72773","","null","","","null","27","","NaN","","","","","","","","","","","","","",""
"","response","","html-keyboard-response","174","195649","0.0-1.0-248.0-0.0","0","0","72773","","138","","","75","27","","","1","27","training","adjacent","EF","5","6","N.jpg","P.jpg","1","1","1","",""
"","feedback","","html-keyboard-response","175","196653","0.0-1.0-249.0-0.0","0","0","72773","","null","","","null","27","","","","","","","","","","","","","","","",""
"","ITI","","html-keyboard-response","176","197658","0.0-1.0-252.0","0","0","72773","","null","","","null","27","","","","","","","","","","","","","","","NaN",""
"","S1","","html-keyboard-response","177","197910","0.0-1.0-254.0","0","0","72773","","null","","","null","28","","","","","","","","","","","","","","","",""
"","ISI","","html-keyboard-response","178","198914","0.0-1.0-255.0","0","0","72773","","null","","","null","28","NaN","","","","","","","","","","","","","","",""
"","S2","","html-keyboard-response","179","199167","0.0-1.0-256.0","0","0","72773","","null","","","null","28","","NaN","","","","","","","","","","","","","",""
"","response","","html-keyboard-response","180","199192","0.0-1.0-257.0-0.0","0","0","72773","","23","","","75","28","","","1","28","training","adjacent","AB","1","2","O.jpg","L.jpg","1","1","1","",""
"","feedback","","html-keyboard-response","181","200196","0.0-1.0-258.0-0.0","0","0","72773","","null","","","null","28","","","","","","","","","","","","","","","",""
"","ITI","","html-keyboard-response","182","201204","0.0-1.0-261.0","0","0","72773","","null","","","null","28","","","","","","","","","","","","","","","NaN",""
"","S1","","html-keyboard-response","183","201456","0.0-1.0-263.0","0","0","72773","","null","","","null","29","","","","","","","","","","","","","","","",""
"","ISI","","html-keyboard-response","184","202458","0.0-1.0-264.0","0","0","72773","","null","","","null","29","NaN","","","","","","","","","","","","","","",""
"","S2","","html-keyboard-response","185","202720","0.0-1.0-265.0","0","0","72773","","null","","","null","29","","NaN","","","","","","","","","","","","","",""
"","response","","html-keyboard-response","186","202818","0.0-1.0-266.0-0.0","0","0","72773","","95","","","68","29","","","1","29","training","adjacent","FG","6","7","P.jpg","Q.jpg","0","1","0","",""
"","feedback","","html-keyboard-response","187","203820","0.0-1.0-267.0-0.0","0","0","72773","","null","","","null","29","","","","","","","","","","","","","","","",""
"","time_out","","html-keyboard-response","188","205824","0.0-1.0-269.0-0.0","0","0","72773","","null","","","null","29","","","","","","","","","","","","","","","",""
"","ITI","","html-keyboard-response","189","206826","0.0-1.0-270.0","0","0","72773","","null","","","null","29","","","","","","","","","","","","","","","NaN",""
"","S1","","html-keyboard-response","190","207080","0.0-1.0-272.0","0","0","72773","","null","","","null","30","","","","","","","","","","","","","","","",""
"","ISI","","html-keyboard-response","191","208082","0.0-1.0-273.0","0","0","72773","","null","","","null","30","NaN","","","","","","","","","","","","","","",""
"","S2","","html-keyboard-response","192","208335","0.0-1.0-274.0","0","0","72773","","null","","","null","30","","NaN","","","","","","","","","","","","","",""
"","response","","html-keyboard-response","193","208535","0.0-1.0-275.0-0.0","0","0","72773","","199","","","75","30","","","1","30","training","adjacent","CD","3","4","M.jpg","R.jpg","1","1","1","",""
"","feedback","","html-keyboard-response","194","209537","0.0-1.0-276.0-0.0","0","0","72773","","null","","","null","30","","","","","","","","","","","","","","","",""
"","ITI","","html-keyboard-response","195","210539","0.0-1.0-279.0","0","0","72773","","null","","","null","30","","","","","","","","","","","","","","","NaN",""
"","S1","","html-keyboard-response","196","210792","0.0-1.0-281.0","0","0","72773","","null","","","null","31","","","","","","","","","","","","","","","",""
"","ISI","","html-keyboard-response","197","211794","0.0-1.0-282.0","0","0","72773","","null","","","null","31","NaN","","","","","","","","","","","","","","",""
"","S2","","html-keyboard-response","198","212047","0.0-1.0-283.0","0","0","72773","","null","","","null","31","","NaN","","","","","","","","","","","","","",""
"","response","","html-keyboard-response","199","212274","0.0-1.0-284.0-0.0","0","0","72773","","226","","","68","31","","","1","31","training","adjacent","DE","4","5","R.jpg","N.jpg","0","1","0","",""
"","feedback","","html-keyboard-response","200","213277","0.0-1.0-285.0-0.0","0","0","72773","","null","","","null","31","","","","","","","","","","","","","","","",""
"","time_out","","html-keyboard-response","201","215280","0.0-1.0-287.0-0.0","0","0","72773","","null","","","null","31","","","","","","","","","","","","","","","",""
"","ITI","","html-keyboard-response","202","216282","0.0-1.0-288.0","0","0","72773","","null","","","null","31","","","","","","","","","","","","","","","NaN",""
"","S1","","html-keyboard-response","203","216536","0.0-1.0-290.0","0","0","72773","","null","","","null","32","","","","","","","","","","","","","","","",""
"","ISI","","html-keyboard-response","204","217539","0.0-1.0-291.0","0","0","72773","","null","","","null","32","NaN","","","","","","","","","","","","","","",""
"","S2","","html-keyboard-response","205","217792","0.0-1.0-292.0","0","0","72773","","null","","","null","32","","NaN","","","","","","","","","","","","","",""
"","response","","html-keyboard-response","206","217988","0.0-1.0-293.0-0.0","0","0","72773","","193","","","68","32","","","1","32","training","adjacent","FE","6","5","P.jpg","N.jpg","0","0","1","",""
"","feedback","","html-keyboard-response","207","218992","0.0-1.0-294.0-0.0","0","0","72773","","null","","","null","32","","","","","","","","","","","","","","","",""
"","ITI","","html-keyboard-response","208","219995","0.0-1.0-297.0","0","0","72773","","null","","","null","32","","","","","","","","","","","","","","","NaN",""
"","S1","","html-keyboard-response","209","220248","0.0-1.0-299.0","0","0","72773","","null","","","null","33","","","","","","","","","","","","","","","",""
"","ISI","","html-keyboard-response","210","221251","0.0-1.0-300.0","0","0","72773","","null","","","null","33","NaN","","","","","","","","","","","","","","",""
"","S2","","html-keyboard-response","211","221504","0.0-1.0-301.0","0","0","72773","","null","","","null","33","","NaN","","","","","","","","","","","","","",""
"","response","","html-keyboard-response","212","221620","0.0-1.0-302.0-0.0","0","0","72773","","114","","","68","33","","","1","33","training","adjacent","BC","2","3","L.jpg","M.jpg","0","1","0","",""
"","feedback","","html-keyboard-response","213","222622","0.0-1.0-303.0-0.0","0","0","72773","","null","","","null","33","","","","","","","","","","","","","","","",""
"","time_out","","html-keyboard-response","214","224624","0.0-1.0-305.0-0.0","0","0","72773","","null","","","null","33","","","","","","","","","","","","","","","",""
"","ITI","","html-keyboard-response","215","225626","0.0-1.0-306.0","0","0","72773","","null","","","null","33","","","","","","","","","","","","","","","NaN",""
"","S1","","html-keyboard-response","216","225878","0.0-1.0-308.0","0","0","72773","","null","","","null","34","","","","","","","","","","","","","","","",""
"","ISI","","html-keyboard-response","217","226881","0.0-1.0-309.0","0","0","72773","","null","","","null","34","NaN","","","","","","","","","","","","","","",""
"","S2","","html-keyboard-response","218","227134","0.0-1.0-310.0","0","0","72773","","null","","","null","34","","NaN","","","","","","","","","","","","","",""
"","response","","html-keyboard-response","219","227277","0.0-1.0-311.0-0.0","0","0","72773","","140","","","68","34","","","1","34","training","adjacent","BA","2","1","L.jpg","O.jpg","0","0","1","",""
"","feedback","","html-keyboard-response","220","228280","0.0-1.0-312.0-0.0","0","0","72773","","null","","","null","34","","","","","","","","","","","","","","","",""
"","ITI","","html-keyboard-response","221","229282","0.0-1.0-315.0","0","0","72773","","null","","","null","34","","","","","","","","","","","","","","","NaN",""
"","S1","","html-keyboard-response","222","229536","0.0-1.0-317.0","0","0","72773","","null","","","null","35","","","","","","","","","","","","","","","",""
"","ISI","","html-keyboard-response","223","230539","0.0-1.0-318.0","0","0","72773","","null","","","null","35","NaN","","","","","","","","","","","","","","",""
"","S2","","html-keyboard-response","224","230792","0.0-1.0-319.0","0","0","72773","","null","","","null","35","","NaN","","","","","","","","","","","","","",""
"","response","","html-keyboard-response","225","231188","0.0-1.0-320.0-0.0","0","0","72773","","394","","","75","35","","","1","35","training","adjacent","CD","3","4","M.jpg","R.jpg","1","1","1","",""
"","feedback","","html-keyboard-response","226","232191","0.0-1.0-321.0-0.0","0","0","72773","","null","","","null","35","","","","","","","","","","","","","","","",""
"","ITI","","html-keyboard-response","227","233194","0.0-1.0-324.0","0","0","72773","","null","","","null","35","","","","","","","","","","","","","","","NaN",""
"","S1","","html-keyboard-response","228","233448","0.0-1.0-326.0","0","0","72773","","null","","","null","36","","","","","","","","","","","","","","","",""
"","ISI","","html-keyboard-response","229","234451","0.0-1.0-327.0","0","0","72773","","null","","","null","36","NaN","","","","","","","","","","","","","","",""
"","S2","","html-keyboard-response","230","234703","0.0-1.0-328.0","0","0","72773","","null","","","null","36","","NaN","","","","","","","","","","","","","",""
"","response","","html-keyboard-response","231","234971","0.0-1.0-329.0-0.0","0","0","72773","","266","","","75","36","","","1","36","training","adjacent","DE","4","5","R.jpg","N.jpg","1","1","1","",""
"","feedback","","html-keyboard-response","232","235975","0.0-1.0-330.0-0.0","0","0","72773","","null","","","null","36","","","","","","","","","","","","","","","",""
"","ITI","","html-keyboard-response","233","236977","0.0-1.0-333.0","0","0","72773","","null","","","null","36","","","","","","","","","","","","","","","NaN",""
"","S1","","html-keyboard-response","234","237230","0.0-1.0-335.0","0","0","72773","","null","","","null","37","","","","","","","","","","","","","","","",""
"","ISI","","html-keyboard-response","235","238233","0.0-1.0-336.0","0","0","72773","","null","","","null","37","NaN","","","","","","","","","","","","","","",""
"","S2","","html-keyboard-response","236","238487","0.0-1.0-337.0","0","0","72773","","null","","","null","37","","NaN","","","","","","","","","","","","","",""
"","response","","html-keyboard-response","237","238740","0.0-1.0-338.0-0.0","0","0","72773","","251","","","75","37","","","1","37","training","adjacent","DE","4","5","R.jpg","N.jpg","1","1","1","",""
"","feedback","","html-keyboard-response","238","239743","0.0-1.0-339.0-0.0","0","0","72773","","null","","","null","37","","","","","","","","","","","","","","","",""
"","ITI","","html-keyboard-response","239","240746","0.0-1.0-342.0","0","0","72773","","null","","","null","37","","","","","","","","","","","","","","","NaN",""
"","S1","","html-keyboard-response","240","240999","0.0-1.0-344.0","0","0","72773","","null","","","null","38","","","","","","","","","","","","","","","",""
"","ISI","","html-keyboard-response","241","242002","0.0-1.0-345.0","0","0","72773","","null","","","null","38","NaN","","","","","","","","","","","","","","",""
"","S2","","html-keyboard-response","242","242255","0.0-1.0-346.0","0","0","72773","","null","","","null","38","","NaN","","","","","","","","","","","","","",""
"","response","","html-keyboard-response","243","242556","0.0-1.0-347.0-0.0","0","0","72773","","299","","","68","38","","","1","38","training","adjacent","CB","3","2","M.jpg","L.jpg","0","0","1","",""
"","feedback","","html-keyboard-response","244","243559","0.0-1.0-348.0-0.0","0","0","72773","","null","","","null","38","","","","","","","","","","","","","","","",""
"","ITI","","html-keyboard-response","245","244562","0.0-1.0-351.0","0","0","72773","","null","","","null","38","","","","","","","","","","","","","","","NaN",""
"","S1","","html-keyboard-response","246","244815","0.0-1.0-353.0","0","0","72773","","null","","","null","39","","","","","","","","","","","","","","","",""
"","ISI","","html-keyboard-response","247","245818","0.0-1.0-354.0","0","0","72773","","null","","","null","39","NaN","","","","","","","","","","","","","","",""
"","S2","","html-keyboard-response","248","246071","0.0-1.0-355.0","0","0","72773","","null","","","null","39","","NaN","","","","","","","","","","","","","",""
"","response","","html-keyboard-response","249","246306","0.0-1.0-356.0-0.0","0","0","72773","","234","","","75","39","","","1","39","training","adjacent","GF","7","6","Q.jpg","P.jpg","1","0","0","",""
"","feedback","","html-keyboard-response","250","247309","0.0-1.0-357.0-0.0","0","0","72773","","null","","","null","39","","","","","","","","","","","","","","","",""
"","time_out","","html-keyboard-response","251","249312","0.0-1.0-359.0-0.0","0","0","72773","","null","","","null","39","","","","","","","","","","","","","","","",""
"","ITI","","html-keyboard-response","252","250315","0.0-1.0-360.0","0","0","72773","","null","","","null","39","","","","","","","","","","","","","","","NaN",""
"","S1","","html-keyboard-response","253","250569","0.0-1.0-362.0","0","0","72773","","null","","","null","40","","","","","","","","","","","","","","","",""
"","ISI","","html-keyboard-response","254","251571","0.0-1.0-363.0","0","0","72773","","null","","","null","40","NaN","","","","","","","","","","","","","","",""
"","S2","","html-keyboard-response","255","251823","0.0-1.0-364.0","0","0","72773","","null","","","null","40","","NaN","","","","","","","","","","","","","",""
"","response","","html-keyboard-response","256","252061","0.0-1.0-365.0-0.0","0","0","72773","","236","","","75","40","","","1","40","training","adjacent","BA","2","1","L.jpg","O.jpg","1","0","0","",""
"","feedback","","html-keyboard-response","257","253065","0.0-1.0-366.0-0.0","0","0","72773","","null","","","null","40","","","","","","","","","","","","","","","",""
"","time_out","","html-keyboard-response","258","255068","0.0-1.0-368.0-0.0","0","0","72773","","null","","","null","40","","","","","","","","","","","","","","","",""
"","ITI","","html-keyboard-response","259","256070","0.0-1.0-369.0","0","0","72773","","null","","","null","40","","","","","","","","","","","","","","","NaN",""
"","S1","","html-keyboard-response","260","256324","0.0-1.0-371.0","0","0","72773","","null","","","null","41","","","","","","","","","","","","","","","",""
"","ISI","","html-keyboard-response","261","257327","0.0-1.0-372.0","0","0","72773","","null","","","null","41","NaN","","","","","","","","","","","","","","",""
"","S2","","html-keyboard-response","262","257579","0.0-1.0-373.0","0","0","72773","","null","","","null","41","","NaN","","","","","","","","","","","","","",""
"","response","","html-keyboard-response","263","257695","0.0-1.0-374.0-0.0","0","0","72773","","114","","","68","41","","","1","41","training","adjacent","BC","2","3","L.jpg","M.jpg","0","1","0","",""
"","feedback","","html-keyboard-response","264","258698","0.0-1.0-375.0-0.0","0","0","72773","","null","","","null","41","","","","","","","","","","","","","","","",""
"","time_out","","html-keyboard-response","265","260701","0.0-1.0-377.0-0.0","0","0","72773","","null","","","null","41","","","","","","","","","","","","","","","",""
"","ITI","","html-keyboard-response","266","261704","0.0-1.0-378.0","0","0","72773","","null","","","null","41","","","","","","","","","","","","","","","NaN",""
"","S1","","html-keyboard-response","267","261957","0.0-1.0-380.0","0","0","72773","","null","","","null","42","","","","","","","","","","","","","","","",""
"","ISI","","html-keyboard-response","268","262959","0.0-1.0-381.0","0","0","72773","","null","","","null","42","NaN","","","","","","","","","","","","","","",""
"","S2","","html-keyboard-response","269","263212","0.0-1.0-382.0","0","0","72773","","null","","","null","42","","NaN","","","","","","","","","","","","","",""
"","response","","html-keyboard-response","270","263508","0.0-1.0-383.0-0.0","0","0","72773","","294","","","75","42","","","1","42","training","adjacent","DC","4","3","R.jpg","M.jpg","1","0","0","",""
"","feedback","","html-keyboard-response","271","264511","0.0-1.0-384.0-0.0","0","0","72773","","null","","","null","42","","","","","","","","","","","","","","","",""
"","time_out","","html-keyboard-response","272","266514","0.0-1.0-386.0-0.0","0","0","72773","","null","","","null","42","","","","","","","","","","","","","","","",""
"","ITI","","html-keyboard-response","273","267516","0.0-1.0-387.0","0","0","72773","","null","","","null","42","","","","","","","","","","","","","","","NaN",""
"","S1","","html-keyboard-response","274","267769","0.0-1.0-389.0","0","0","72773","","null","","","null","43","","","","","","","","","","","","","","","",""
"","ISI","","html-keyboard-response","275","268772","0.0-1.0-390.0","0","0","72773","","null","","","null","43","NaN","","","","","","","","","","","","","","",""
"","S2","","html-keyboard-response","276","269024","0.0-1.0-391.0","0","0","72773","","null","","","null","43","","NaN","","","","","","","","","","","","","",""
"","response","","html-keyboard-response","277","269380","0.0-1.0-392.0-0.0","0","0","72773","","355","","","68","43","","","1","43","training","adjacent","AB","1","2","O.jpg","L.jpg","0","1","0","",""
"","feedback","","html-keyboard-response","278","270383","0.0-1.0-393.0-0.0","0","0","72773","","null","","","null","43","","","","","","","","","","","","","","","",""
"","time_out","","html-keyboard-response","279","272386","0.0-1.0-395.0-0.0","0","0","72773","","null","","","null","43","","","","","","","","","","","","","","","",""
"","ITI","","html-keyboard-response","280","273389","0.0-1.0-396.0","0","0","72773","","null","","","null","43","","","","","","","","","","","","","","","NaN",""
"","S1","","html-keyboard-response","281","273642","0.0-1.0-398.0","0","0","72773","","null","","","null","44","","","","","","","","","","","","","","","",""
"","ISI","","html-keyboard-response","282","274645","0.0-1.0-399.0","0","0","72773","","null","","","null","44","NaN","","","","","","","","","","","","","","",""
"","S2","","html-keyboard-response","283","274898","0.0-1.0-400.0","0","0","72773","","null","","","null","44","","NaN","","","","","","","","","","","","","",""
"","response","","html-keyboard-response","284","275145","0.0-1.0-401.0-0.0","0","0","72773","","245","","","75","44","","","1","44","training","adjacent","CD","3","4","M.jpg","R.jpg","1","1","1","",""
"","feedback","","html-keyboard-response","285","276148","0.0-1.0-402.0-0.0","0","0","72773","","null","","","null","44","","","","","","","","","","","","","","","",""
"","ITI","","html-keyboard-response","286","277151","0.0-1.0-405.0","0","0","72773","","null","","","null","44","","","","","","","","","","","","","","","NaN",""
"","S1","","html-keyboard-response","287","277403","0.0-1.0-407.0","0","0","72773","","null","","","null","45","","","","","","","","","","","","","","","",""
"","ISI","","html-keyboard-response","288","278406","0.0-1.0-408.0","0","0","72773","","null","","","null","45","NaN","","","","","","","","","","","","","","",""
"","S2","","html-keyboard-response","289","278659","0.0-1.0-409.0","0","0","72773","","null","","","null","45","","NaN","","","","","","","","","","","","","",""
"","response","","html-keyboard-response","290","278902","0.0-1.0-410.0-0.0","0","0","72773","","241","","","68","45","","","1","45","training","adjacent","BC","2","3","L.jpg","M.jpg","0","1","0","",""
"","feedback","","html-keyboard-response","291","279905","0.0-1.0-411.0-0.0","0","0","72773","","null","","","null","45","","","","","","","","","","","","","","","",""
"","time_out","","html-keyboard-response","292","281908","0.0-1.0-413.0-0.0","0","0","72773","","null","","","null","45","","","","","","","","","","","","","","","",""
"","ITI","","html-keyboard-response","293","282910","0.0-1.0-414.0","0","0","72773","","null","","","null","45","","","","","","","","","","","","","","","NaN",""
"","S1","","html-keyboard-response","294","283164","0.0-1.0-416.0","0","0","72773","","null","","","null","46","","","","","","","","","","","","","","","",""
"","ISI","","html-keyboard-response","295","284166","0.0-1.0-417.0","0","0","72773","","null","","","null","46","NaN","","","","","","","","","","","","","","",""
"","S2","","html-keyboard-response","296","284420","0.0-1.0-418.0","0","0","72773","","null","","","null","46","","NaN","","","","","","","","","","","","","",""
"","response","","html-keyboard-response","297","284703","0.0-1.0-419.0-0.0","0","0","72773","","281","","","75","46","","","1","46","training","adjacent","FE","6","5","P.jpg","N.jpg","1","0","0","",""
"","feedback","","html-keyboard-response","298","285706","0.0-1.0-420.0-0.0","0","0","72773","","null","","","null","46","","","","","","","","","","","","","","","",""
"","time_out","","html-keyboard-response","299","287710","0.0-1.0-422.0-0.0","0","0","72773","","null","","","null","46","","","","","","","","","","","","","","","",""
"","ITI","","html-keyboard-response","300","288712","0.0-1.0-423.0","0","0","72773","","null","","","null","46","","","","","","","","","","","","","","","NaN",""
"","S1","","html-keyboard-response","301","288965","0.0-1.0-425.0","0","0","72773","","null","","","null","47","","","","","","","","","","","","","","","",""
"","ISI","","html-keyboard-response","302","289967","0.0-1.0-426.0","0","0","72773","","null","","","null","47","NaN","","","","","","","","","","","","","","",""
"","S2","","html-keyboard-response","303","290221","0.0-1.0-427.0","0","0","72773","","null","","","null","47","","NaN","","","","","","","","","","","","","",""
"","response","","html-keyboard-response","304","290569","0.0-1.0-428.0-0.0","0","0","72773","","346","","","75","47","","","1","47","training","adjacent","FG","6","7","P.jpg","Q.jpg","1","1","1","",""
"","feedback","","html-keyboard-response","305","291571","0.0-1.0-429.0-0.0","0","0","72773","","null","","","null","47","","","","","","","","","","","","","","","",""
"","ITI","","html-keyboard-response","306","292574","0.0-1.0-432.0","0","0","72773","","null","","","null","47","","","","","","","","","","","","","","","NaN",""
"","block_over","","html-keyboard-response","307","478842","0.0-1.0-433.0-0.0","0","0","72773","","186265","","","32","47","","","","","","","","","","","","","","","",""
"","S1","","html-keyboard-response","308","479095","0.0-1.0-434.0","0","0","72773","","null","","","null","48","","","","","","","","","","","","","","","",""
"","ISI","","html-keyboard-response","309","480098","0.0-1.0-435.0","0","0","72773","","null","","","null","48","NaN","","","","","","","","","","","","","","",""
"","S2","","html-keyboard-response","310","480366","0.0-1.0-436.0","0","0","72773","","null","","","null","48","","NaN","","","","","","","","","","","","","",""
"","response","","html-keyboard-response","311","480564","0.0-1.0-437.0-0.0","0","0","72773","","196","","","68","48","","","2","48","training","adjacent","BA","2","1","L.jpg","O.jpg","0","0","1","",""
"","feedback","","html-keyboard-response","312","481566","0.0-1.0-438.0-0.0","0","0","72773","","null","","","null","48","","","","","","","","","","","","","","","",""
"","ITI","","html-keyboard-response","313","482569","0.0-1.0-441.0","0","0","72773","","null","","","null","48","","","","","","","","","","","","","","","NaN",""
"","S1","","html-keyboard-response","314","482821","0.0-1.0-443.0","0","0","72773","","null","","","null","49","","","","","","","","","","","","","","","",""
"","ISI","","html-keyboard-response","315","483824","0.0-1.0-444.0","0","0","72773","","null","","","null","49","NaN","","","","","","","","","","","","","","",""
"","S2","","html-keyboard-response","316","484077","0.0-1.0-445.0","0","0","72773","","null","","","null","49","","NaN","","","","","","","","","","","","","",""
"","response","","html-keyboard-response","317","484164","0.0-1.0-446.0-0.0","0","0","72773","","85","","","75","49","","","2","49","training","adjacent","AB","1","2","O.jpg","L.jpg","1","1","1","",""
"","feedback","","html-keyboard-response","318","485167","0.0-1.0-447.0-0.0","0","0","72773","","null","","","null","49","","","","","","","","","","","","","","","",""
"","ITI","","html-keyboard-response","319","486170","0.0-1.0-450.0","0","0","72773","","null","","","null","49","","","","","","","","","","","","","","","NaN",""
"","S1","","html-keyboard-response","320","486423","0.0-1.0-452.0","0","0","72773","","null","","","null","50","","","","","","","","","","","","","","","",""
"","ISI","","html-keyboard-response","321","487426","0.0-1.0-453.0","0","0","72773","","null","","","null","50","NaN","","","","","","","","","","","","","","",""
"","S2","","html-keyboard-response","322","487679","0.0-1.0-454.0","0","0","72773","","null","","","null","50","","NaN","","","","","","","","","","","","","",""
"","response","","html-keyboard-response","323","487828","0.0-1.0-455.0-0.0","0","0","72773","","148","","","68","50","","","2","50","training","adjacent","BA","2","1","L.jpg","O.jpg","0","0","1","",""
"","feedback","","html-keyboard-response","324","488831","0.0-1.0-456.0-0.0","0","0","72773","","null","","","null","50","","","","","","","","","","","","","","","",""
"","ITI","","html-keyboard-response","325","489834","0.0-1.0-459.0","0","0","72773","","null","","","null","50","","","","","","","","","","","","","","","NaN",""
"","S1","","html-keyboard-response","326","490086","0.0-1.0-461.0","0","0","72773","","null","","","null","51","","","","","","","","","","","","","","","",""
"","ISI","","html-keyboard-response","327","491088","0.0-1.0-462.0","0","0","72773","","null","","","null","51","NaN","","","","","","","","","","","","","","",""
"","S2","","html-keyboard-response","328","491348","0.0-1.0-463.0","0","0","72773","","null","","","null","51","","NaN","","","","","","","","","","","","","",""
"","response","","html-keyboard-response","329","491383","0.0-1.0-464.0-0.0","0","0","72773","","34","","","75","51","","","2","51","training","adjacent","CD","3","4","M.jpg","R.jpg","1","1","1","",""
"","feedback","","html-keyboard-response","330","492386","0.0-1.0-465.0-0.0","0","0","72773","","null","","","null","51","","","","","","","","","","","","","","","",""
"","ITI","","html-keyboard-response","331","493389","0.0-1.0-468.0","0","0","72773","","null","","","null","51","","","","","","","","","","","","","","","NaN",""
"","S1","","html-keyboard-response","332","493643","0.0-1.0-470.0","0","0","72773","","null","","","null","52","","","","","","","","","","","","","","","",""
"","ISI","","html-keyboard-response","333","494646","0.0-1.0-471.0","0","0","72773","","null","","","null","52","NaN","","","","","","","","","","","","","","",""
"","S2","","html-keyboard-response","334","494873","0.0-1.0-472.0","0","0","72773","","226","","","75","52","","k","2","52","training","adjacent","ED","5","4","N.jpg","R.jpg","1","0","0","",""
"","feedback","","html-keyboard-response","335","495876","0.0-1.0-474.0-0.0","0","0","72773","","null","","","null","52","","","","","","","","","","","","","","","",""
"","time_out","","html-keyboard-response","336","497879","0.0-1.0-476.0-0.0","0","0","72773","","null","","","null","52","","","","","","","","","","","","","","","",""
"","ITI","","html-keyboard-response","337","498881","0.0-1.0-477.0","0","0","72773","","null","","","null","52","","","","","","","","","","","","","","","NaN",""
"","S1","","html-keyboard-response","338","499134","0.0-1.0-479.0","0","0","72773","","null","","","null","53","","","","","","","","","","","","","","","",""
"","ISI","","html-keyboard-response","339","500137","0.0-1.0-480.0","0","0","72773","","null","","","null","53","NaN","","","","","","","","","","","","","","",""
"","S2","","html-keyboard-response","340","500390","0.0-1.0-481.0","0","0","72773","","null","","","null","53","","NaN","","","","","","","","","","","","","",""
"","response","","html-keyboard-response","341","500612","0.0-1.0-482.0-0.0","0","0","72773","","221","","","68","53","","","2","53","training","adjacent","DC","4","3","R.jpg","M.jpg","0","0","1","",""
"","feedback","","html-keyboard-response","342","501615","0.0-1.0-483.0-0.0","0","0","72773","","null","","","null","53","","","","","","","","","","","","","","","",""
"","ITI","","html-keyboard-response","343","502618","0.0-1.0-486.0","0","0","72773","","null","","","null","53","","","","","","","","","","","","","","","NaN",""
"","S1","","html-keyboard-response","344","502871","0.0-1.0-488.0","0","0","72773","","null","","","null","54","","","","","","","","","","","","","","","",""
"","ISI","","html-keyboard-response","345","503874","0.0-1.0-489.0","0","0","72773","","null","","","null","54","NaN","","","","","","","","","","","","","","",""
"","S2","","html-keyboard-response","346","504127","0.0-1.0-490.0","0","0","72773","","null","","","null","54","","NaN","","","","","","","","","","","","","",""
"","response","","html-keyboard-response","347","504609","0.0-1.0-491.0-0.0","0","0","72773","","481","","","75","54","","","2","54","training","adjacent","BC","2","3","L.jpg","M.jpg","1","1","1","",""
"","feedback","","html-keyboard-response","348","505612","0.0-1.0-492.0-0.0","0","0","72773","","null","","","null","54","","","","","","","","","","","","","","","",""
"","ITI","","html-keyboard-response","349","506615","0.0-1.0-495.0","0","0","72773","","null","","","null","54","","","","","","","","","","","","","","","NaN",""
"","S1","","html-keyboard-response","350","506867","0.0-1.0-497.0","0","0","72773","","null","","","null","55","","","","","","","","","","","","","","","",""
"","ISI","","html-keyboard-response","351","507871","0.0-1.0-498.0","0","0","72773","","null","","","null","55","NaN","","","","","","","","","","","","","","",""
"","S2","","html-keyboard-response","352","508123","0.0-1.0-499.0","0","0","72773","","null","","","null","55","","NaN","","","","","","","","","","","","","",""
"","response","","html-keyboard-response","353","508404","0.0-1.0-500.0-0.0","0","0","72773","","279","","","68","55","","","2","55","training","adjacent","BC","2","3","L.jpg","M.jpg","0","1","0","",""
"","feedback","","html-keyboard-response","354","509407","0.0-1.0-501.0-0.0","0","0","72773","","null","","","null","55","","","","","","","","","","","","","","","",""
"","time_out","","html-keyboard-response","355","511410","0.0-1.0-503.0-0.0","0","0","72773","","null","","","null","55","","","","","","","","","","","","","","","",""
"","ITI","","html-keyboard-response","356","512413","0.0-1.0-504.0","0","0","72773","","null","","","null","55","","","","","","","","","","","","","","","NaN",""
"","S1","","html-keyboard-response","357","512665","0.0-1.0-506.0","0","0","72773","","null","","","null","56","","","","","","","","","","","","","","","",""
"","ISI","","html-keyboard-response","358","513668","0.0-1.0-507.0","0","0","72773","","null","","","null","56","NaN","","","","","","","","","","","","","","",""
"","S2","","html-keyboard-response","359","513921","0.0-1.0-508.0","0","0","72773","","null","","","null","56","","NaN","","","","","","","","","","","","","",""
"","response","","html-keyboard-response","360","514147","0.0-1.0-509.0-0.0","0","0","72773","","225","","","75","56","","","2","56","training","adjacent","CB","3","2","M.jpg","L.jpg","1","0","0","",""
"","feedback","","html-keyboard-response","361","515150","0.0-1.0-510.0-0.0","0","0","72773","","null","","","null","56","","","","","","","","","","","","","","","",""
"","time_out","","html-keyboard-response","362","517153","0.0-1.0-512.0-0.0","0","0","72773","","null","","","null","56","","","","","","","","","","","","","","","",""
"","ITI","","html-keyboard-response","363","518156","0.0-1.0-513.0","0","0","72773","","null","","","null","56","","","","","","","","","","","","","","","NaN",""
"","S1","","html-keyboard-response","364","518409","0.0-1.0-515.0","0","0","72773","","null","","","null","57","","","","","","","","","","","","","","","",""
"","ISI","","html-keyboard-response","365","519411","0.0-1.0-516.0","0","0","72773","","null","","","null","57","NaN","","","","","","","","","","","","","","",""
"","S2","","html-keyboard-response","366","519664","0.0-1.0-517.0","0","0","72773","","null","","","null","57","","NaN","","","","","","","","","","","","","",""
"","response","","html-keyboard-response","367","519962","0.0-1.0-518.0-0.0","0","0","72773","","297","","","68","57","","","2","57","training","adjacent","DE","4","5","R.jpg","N.jpg","0","1","0","",""
"","feedback","","html-keyboard-response","368","520965","0.0-1.0-519.0-0.0","0","0","72773","","null","","","null","57","","","","","","","","","","","","","","","",""
"","time_out","","html-keyboard-response","369","522968","0.0-1.0-521.0-0.0","0","0","72773","","null","","","null","57","","","","","","","","","","","","","","","",""
"","ITI","","html-keyboard-response","370","523971","0.0-1.0-522.0","0","0","72773","","null","","","null","57","","","","","","","","","","","","","","","NaN",""
"","S1","","html-keyboard-response","371","524223","0.0-1.0-524.0","0","0","72773","","null","","","null","58","","","","","","","","","","","","","","","",""
"","ISI","","html-keyboard-response","372","525226","0.0-1.0-525.0","0","0","72773","","null","","","null","58","NaN","","","","","","","","","","","","","","",""
"","S2","","html-keyboard-response","373","525479","0.0-1.0-526.0","0","0","72773","","null","","","null","58","","NaN","","","","","","","","","","","","","",""
"","response","","html-keyboard-response","374","525747","0.0-1.0-527.0-0.0","0","0","72773","","266","","","75","58","","","2","58","training","adjacent","CD","3","4","M.jpg","R.jpg","1","1","1","",""
"","feedback","","html-keyboard-response","375","526750","0.0-1.0-528.0-0.0","0","0","72773","","null","","","null","58","","","","","","","","","","","","","","","",""
"","ITI","","html-keyboard-response","376","527753","0.0-1.0-531.0","0","0","72773","","null","","","null","58","","","","","","","","","","","","","","","NaN",""
"","S1","","html-keyboard-response","377","528005","0.0-1.0-533.0","0","0","72773","","null","","","null","59","","","","","","","","","","","","","","","",""
"","ISI","","html-keyboard-response","378","529008","0.0-1.0-534.0","0","0","72773","","null","","","null","59","NaN","","","","","","","","","","","","","","",""
"","S2","","html-keyboard-response","379","529262","0.0-1.0-535.0","0","0","72773","","null","","","null","59","","NaN","","","","","","","","","","","","","",""
"","response","","html-keyboard-response","380","529541","0.0-1.0-536.0-0.0","0","0","72773","","277","","","75","59","","","2","59","training","adjacent","DE","4","5","R.jpg","N.jpg","1","1","1","",""
"","feedback","","html-keyboard-response","381","530544","0.0-1.0-537.0-0.0","0","0","72773","","null","","","null","59","","","","","","","","","","","","","","","",""
"","ITI","","html-keyboard-response","382","531546","0.0-1.0-540.0","0","0","72773","","null","","","null","59","","","","","","","","","","","","","","","NaN",""
"","S1","","html-keyboard-response","383","531799","0.0-1.0-542.0","0","0","72773","","null","","","null","60","","","","","","","","","","","","","","","",""
"","ISI","","html-keyboard-response","384","532803","0.0-1.0-543.0","0","0","72773","","null","","","null","60","NaN","","","","","","","","","","","","","","",""
"","S2","","html-keyboard-response","385","533066","0.0-1.0-544.0","0","0","72773","","null","","","null","60","","NaN","","","","","","","","","","","","","",""
"","response","","html-keyboard-response","386","533353","0.0-1.0-545.0-0.0","0","0","72773","","286","","","68","60","","","2","60","training","adjacent","CB","3","2","M.jpg","L.jpg","0","0","1","",""
"","feedback","","html-keyboard-response","387","534356","0.0-1.0-546.0-0.0","0","0","72773","","null","","","null","60","","","","","","","","","","","","","","","",""
"","ITI","","html-keyboard-response","388","535359","0.0-1.0-549.0","0","0","72773","","null","","","null","60","","","","","","","","","","","","","","","NaN",""
"","S1","","html-keyboard-response","389","535612","0.0-1.0-551.0","0","0","72773","","null","","","null","61","","","","","","","","","","","","","","","",""
"","ISI","","html-keyboard-response","390","536614","0.0-1.0-552.0","0","0","72773","","null","","","null","61","NaN","","","","","","","","","","","","","","",""
"","S2","","html-keyboard-response","391","536867","0.0-1.0-553.0","0","0","72773","","null","","","null","61","","NaN","","","","","","","","","","","","","",""
"","response","","html-keyboard-response","392","537171","0.0-1.0-554.0-0.0","0","0","72773","","303","","","75","61","","","2","61","training","adjacent","FG","6","7","P.jpg","Q.jpg","1","1","1","",""
"","feedback","","html-keyboard-response","393","538174","0.0-1.0-555.0-0.0","0","0","72773","","null","","","null","61","","","","","","","","","","","","","","","",""
"","ITI","","html-keyboard-response","394","539177","0.0-1.0-558.0","0","0","72773","","null","","","null","61","","","","","","","","","","","","","","","NaN",""
"","S1","","html-keyboard-response","395","539430","0.0-1.0-560.0","0","0","72773","","null","","","null","62","","","","","","","","","","","","","","","",""
"","ISI","","html-keyboard-response","396","540433","0.0-1.0-561.0","0","0","72773","","null","","","null","62","NaN","","","","","","","","","","","","","","",""
"","S2","","html-keyboard-response","397","540686","0.0-1.0-562.0","0","0","72773","","null","","","null","62","","NaN","","","","","","","","","","","","","",""
"","response","","html-keyboard-response","398","541230","0.0-1.0-563.0-0.0","0","0","72773","","543","","","68","62","","","2","62","training","adjacent","CB","3","2","M.jpg","L.jpg","0","0","1","",""
"","feedback","","html-keyboard-response","399","542233","0.0-1.0-564.0-0.0","0","0","72773","","null","","","null","62","","","","","","","","","","","","","","","",""
"","ITI","","html-keyboard-response","400","543236","0.0-1.0-567.0","0","0","72773","","null","","","null","62","","","","","","","","","","","","","","","NaN",""
"","S1","","html-keyboard-response","401","543489","0.0-1.0-569.0","0","0","72773","","null","","","null","63","","","","","","","","","","","","","","","",""
"","ISI","","html-keyboard-response","402","544492","0.0-1.0-570.0","0","0","72773","","null","","","null","63","NaN","","","","","","","","","","","","","","",""
"","S2","","html-keyboard-response","403","544744","0.0-1.0-571.0","0","0","72773","","null","","","null","63","","NaN","","","","","","","","","","","","","",""
"","response","","html-keyboard-response","404","545045","0.0-1.0-572.0-0.0","0","0","72773","","299","","","75","63","","","2","63","training","adjacent","AB","1","2","O.jpg","L.jpg","1","1","1","",""
"","feedback","","html-keyboard-response","405","546049","0.0-1.0-573.0-0.0","0","0","72773","","null","","","null","63","","","","","","","","","","","","","","","",""
"","ITI","","html-keyboard-response","406","547052","0.0-1.0-576.0","0","0","72773","","null","","","null","63","","","","","","","","","","","","","","","NaN",""
"","S1","","html-keyboard-response","407","547304","0.0-1.0-578.0","0","0","72773","","null","","","null","64","","","","","","","","","","","","","","","",""
"","ISI","","html-keyboard-response","408","548307","0.0-1.0-579.0","0","0","72773","","null","","","null","64","NaN","","","","","","","","","","","","","","",""
"","S2","","html-keyboard-response","409","548560","0.0-1.0-580.0","0","0","72773","","null","","","null","64","","NaN","","","","","","","","","","","","","",""
"","response","","html-keyboard-response","410","548823","0.0-1.0-581.0-0.0","0","0","72773","","262","","","75","64","","","2","64","training","adjacent","AB","1","2","O.jpg","L.jpg","1","1","1","",""
"","feedback","","html-keyboard-response","411","549833","0.0-1.0-582.0-0.0","0","0","72773","","null","","","null","64","","","","","","","","","","","","","","","",""
"","ITI","","html-keyboard-response","412","550836","0.0-1.0-585.0","0","0","72773","","null","","","null","64","","","","","","","","","","","","","","","NaN",""
"","S1","","html-keyboard-response","413","551089","0.0-1.0-587.0","0","0","72773","","null","","","null","65","","","","","","","","","","","","","","","",""
"","ISI","","html-keyboard-response","414","552091","0.0-1.0-588.0","0","0","72773","","null","","","null","65","NaN","","","","","","","","","","","","","","",""
"","S2","","html-keyboard-response","415","552344","0.0-1.0-589.0","0","0","72773","","null","","","null","65","","NaN","","","","","","","","","","","","","",""
"","response","","html-keyboard-response","416","552668","0.0-1.0-590.0-0.0","0","0","72773","","323","","","68","65","","","2","65","training","adjacent","GF","7","6","Q.jpg","P.jpg","0","0","1","",""
"","feedback","","html-keyboard-response","417","553671","0.0-1.0-591.0-0.0","0","0","72773","","null","","","null","65","","","","","","","","","","","","","","","",""
"","ITI","","html-keyboard-response","418","554674","0.0-1.0-594.0","0","0","72773","","null","","","null","65","","","","","","","","","","","","","","","NaN",""
"","S1","","html-keyboard-response","419","554927","0.0-1.0-596.0","0","0","72773","","null","","","null","66","","","","","","","","","","","","","","","",""
"","ISI","","html-keyboard-response","420","555929","0.0-1.0-597.0","0","0","72773","","null","","","null","66","NaN","","","","","","","","","","","","","","",""
"","S2","","html-keyboard-response","421","556183","0.0-1.0-598.0","0","0","72773","","null","","","null","66","","NaN","","","","","","","","","","","","","",""
"","response","","html-keyboard-response","422","556880","0.0-1.0-599.0-0.0","0","0","72773","","696","","","68","66","","","2","66","training","adjacent","GF","7","6","Q.jpg","P.jpg","0","0","1","",""
"","feedback","","html-keyboard-response","423","557883","0.0-1.0-600.0-0.0","0","0","72773","","null","","","null","66","","","","","","","","","","","","","","","",""
"","ITI","","html-keyboard-response","424","558899","0.0-1.0-603.0","0","0","72773","","null","","","null","66","","","","","","","","","","","","","","","NaN",""
"","S1","","html-keyboard-response","425","559151","0.0-1.0-605.0","0","0","72773","","null","","","null","67","","","","","","","","","","","","","","","",""
"","ISI","","html-keyboard-response","426","560154","0.0-1.0-606.0","0","0","72773","","null","","","null","67","NaN","","","","","","","","","","","","","","",""
"","S2","","html-keyboard-response","427","560407","0.0-1.0-607.0","0","0","72773","","null","","","null","67","","NaN","","","","","","","","","","","","","",""
"","response","","html-keyboard-response","428","561113","0.0-1.0-608.0-0.0","0","0","72773","","704","","","68","67","","","2","67","training","adjacent","BC","2","3","L.jpg","M.jpg","0","1","0","",""
"","feedback","","html-keyboard-response","429","562116","0.0-1.0-609.0-0.0","0","0","72773","","null","","","null","67","","","","","","","","","","","","","","","",""
"","time_out","","html-keyboard-response","430","564119","0.0-1.0-611.0-0.0","0","0","72773","","null","","","null","67","","","","","","","","","","","","","","","",""
"","ITI","","html-keyboard-response","431","565122","0.0-1.0-612.0","0","0","72773","","null","","","null","67","","","","","","","","","","","","","","","NaN",""
"","S1","","html-keyboard-response","432","565376","0.0-1.0-614.0","0","0","72773","","null","","","null","68","","","","","","","","","","","","","","","",""
"","ISI","","html-keyboard-response","433","566378","0.0-1.0-615.0","0","0","72773","","null","","","null","68","NaN","","","","","","","","","","","","","","",""
"","S2","","html-keyboard-response","434","566634","0.0-1.0-616.0","0","0","72773","","null","","","null","68","","NaN","","","","","","","","","","","","","",""
"","response","","html-keyboard-response","435","567291","0.0-1.0-617.0-0.0","0","0","72773","","656","","","68","68","","","2","68","training","adjacent","EF","5","6","N.jpg","P.jpg","0","1","0","",""
"","feedback","","html-keyboard-response","436","568294","0.0-1.0-618.0-0.0","0","0","72773","","null","","","null","68","","","","","","","","","","","","","","","",""
"","time_out","","html-keyboard-response","437","570297","0.0-1.0-620.0-0.0","0","0","72773","","null","","","null","68","","","","","","","","","","","","","","","",""
"","ITI","","html-keyboard-response","438","571300","0.0-1.0-621.0","0","0","72773","","null","","","null","68","","","","","","","","","","","","","","","NaN",""
"","S1","","html-keyboard-response","439","571553","0.0-1.0-623.0","0","0","72773","","null","","","null","69","","","","","","","","","","","","","","","",""
"","ISI","","html-keyboard-response","440","572556","0.0-1.0-624.0","0","0","72773","","null","","","null","69","NaN","","","","","","","","","","","","","","",""
"","S2","","html-keyboard-response","441","572809","0.0-1.0-625.0","0","0","72773","","null","","","null","69","","NaN","","","","","","","","","","","","","",""
"","response","","html-keyboard-response","442","573052","0.0-1.0-626.0-0.0","0","0","72773","","241","","","75","69","","","2","69","training","adjacent","CD","3","4","M.jpg","R.jpg","1","1","1","",""
"","feedback","","html-keyboard-response","443","574054","0.0-1.0-627.0-0.0","0","0","72773","","null","","","null","69","","","","","","","","","","","","","","","",""
"","ITI","","html-keyboard-response","444","575057","0.0-1.0-630.0","0","0","72773","","null","","","null","69","","","","","","","","","","","","","","","NaN",""
"","S1","","html-keyboard-response","445","575310","0.0-1.0-632.0","0","0","72773","","null","","","null","70","","","","","","","","","","","","","","","",""
"","ISI","","html-keyboard-response","446","576313","0.0-1.0-633.0","0","0","72773","","null","","","null","70","NaN","","","","","","","","","","","","","","",""
"","S2","","html-keyboard-response","447","576566","0.0-1.0-634.0","0","0","72773","","null","","","null","70","","NaN","","","","","","","","","","","","","",""
"","response","","html-keyboard-response","448","577050","0.0-1.0-635.0-0.0","0","0","72773","","482","","","68","70","","","2","70","training","adjacent","CD","3","4","M.jpg","R.jpg","0","1","0","",""
"","feedback","","html-keyboard-response","449","578053","0.0-1.0-636.0-0.0","0","0","72773","","null","","","null","70","","","","","","","","","","","","","","","",""
"","time_out","","html-keyboard-response","450","580056","0.0-1.0-638.0-0.0","0","0","72773","","null","","","null","70","","","","","","","","","","","","","","","",""
"","ITI","","html-keyboard-response","451","581059","0.0-1.0-639.0","0","0","72773","","null","","","null","70","","","","","","","","","","","","","","","NaN",""
"","S1","","html-keyboard-response","452","581321","0.0-1.0-641.0","0","0","72773","","null","","","null","71","","","","","","","","","","","","","","","",""
"","ISI","","html-keyboard-response","453","582324","0.0-1.0-642.0","0","0","72773","","null","","","null","71","NaN","","","","","","","","","","","","","","",""
"","S2","","html-keyboard-response","454","582577","0.0-1.0-643.0","0","0","72773","","null","","","null","71","","NaN","","","","","","","","","","","","","",""
"","response","","html-keyboard-response","455","582914","0.0-1.0-644.0-0.0","0","0","72773","","335","","","75","71","","","2","71","training","adjacent","AB","1","2","O.jpg","L.jpg","1","1","1","",""
"","feedback","","html-keyboard-response","456","583917","0.0-1.0-645.0-0.0","0","0","72773","","null","","","null","71","","","","","","","","","","","","","","","",""
"","ITI","","html-keyboard-response","457","584919","0.0-1.0-648.0","0","0","72773","","null","","","null","71","","","","","","","","","","","","","","","NaN",""
"","S1","","html-keyboard-response","458","585172","0.0-1.0-650.0","0","0","72773","","null","","","null","72","","","","","","","","","","","","","","","",""
"","ISI","","html-keyboard-response","459","586175","0.0-1.0-651.0","0","0","72773","","null","","","null","72","NaN","","","","","","","","","","","","","","",""
"","S2","","html-keyboard-response","460","586428","0.0-1.0-652.0","0","0","72773","","null","","","null","72","","NaN","","","","","","","","","","","","","",""
"","response","","html-keyboard-response","461","586803","0.0-1.0-653.0-0.0","0","0","72773","","373","","","75","72","","","2","72","training","adjacent","DC","4","3","R.jpg","M.jpg","1","0","0","",""
"","feedback","","html-keyboard-response","462","587805","0.0-1.0-654.0-0.0","0","0","72773","","null","","","null","72","","","","","","","","","","","","","","","",""
"","time_out","","html-keyboard-response","463","589808","0.0-1.0-656.0-0.0","0","0","72773","","null","","","null","72","","","","","","","","","","","","","","","",""
"","ITI","","html-keyboard-response","464","590811","0.0-1.0-657.0","0","0","72773","","null","","","null","72","","","","","","","","","","","","","","","NaN",""
"","S1","","html-keyboard-response","465","591063","0.0-1.0-659.0","0","0","72773","","null","","","null","73","","","","","","","","","","","","","","","",""
"","ISI","","html-keyboard-response","466","592065","0.0-1.0-660.0","0","0","72773","","null","","","null","73","NaN","","","","","","","","","","","","","","",""
"","S2","","html-keyboard-response","467","592318","0.0-1.0-661.0","0","0","72773","","null","","","null","73","","NaN","","","","","","","","","","","","","",""
"","response","","html-keyboard-response","468","592559","0.0-1.0-662.0-0.0","0","0","72773","","239","","","75","73","","","2","73","training","adjacent","FE","6","5","P.jpg","N.jpg","1","0","0","",""
"","feedback","","html-keyboard-response","469","593561","0.0-1.0-663.0-0.0","0","0","72773","","null","","","null","73","","","","","","","","","","","","","","","",""
"","time_out","","html-keyboard-response","470","595568","0.0-1.0-665.0-0.0","0","0","72773","","null","","","null","73","","","","","","","","","","","","","","","",""
"","ITI","","html-keyboard-response","471","596570","0.0-1.0-666.0","0","0","72773","","null","","","null","73","","","","","","","","","","","","","","","NaN",""
"","S1","","html-keyboard-response","472","596823","0.0-1.0-668.0","0","0","72773","","null","","","null","74","","","","","","","","","","","","","","","",""
"","ISI","","html-keyboard-response","473","597826","0.0-1.0-669.0","0","0","72773","","null","","","null","74","NaN","","","","","","","","","","","","","","",""
"","S2","","html-keyboard-response","474","598079","0.0-1.0-670.0","0","0","72773","","null","","","null","74","","NaN","","","","","","","","","","","","","",""
"","response","","html-keyboard-response","475","598312","0.0-1.0-671.0-0.0","0","0","72773","","232","","","75","74","","","2","74","training","adjacent","DE","4","5","R.jpg","N.jpg","1","1","1","",""
"","feedback","","html-keyboard-response","476","599315","0.0-1.0-672.0-0.0","0","0","72773","","null","","","null","74","","","","","","","","","","","","","","","",""
"","ITI","","html-keyboard-response","477","600318","0.0-1.0-675.0","0","0","72773","","null","","","null","74","","","","","","","","","","","","","","","NaN",""
"","S1","","html-keyboard-response","478","600571","0.0-1.0-677.0","0","0","72773","","null","","","null","75","","","","","","","","","","","","","","","",""
"","ISI","","html-keyboard-response","479","601574","0.0-1.0-678.0","0","0","72773","","null","","","null","75","NaN","","","","","","","","","","","","","","",""
"","S2","","html-keyboard-response","480","601827","0.0-1.0-679.0","0","0","72773","","null","","","null","75","","NaN","","","","","","","","","","","","","",""
"","response","","html-keyboard-response","481","602122","0.0-1.0-680.0-0.0","0","0","72773","","292","","","75","75","","","2","75","training","adjacent","FG","6","7","P.jpg","Q.jpg","1","1","1","",""
"","feedback","","html-keyboard-response","482","603125","0.0-1.0-681.0-0.0","0","0","72773","","null","","","null","75","","","","","","","","","","","","","","","",""
"","ITI","","html-keyboard-response","483","604128","0.0-1.0-684.0","0","0","72773","","null","","","null","75","","","","","","","","","","","","","","","NaN",""
"","S1","","html-keyboard-response","484","604381","0.0-1.0-686.0","0","0","72773","","null","","","null","76","","","","","","","","","","","","","","","",""
"","ISI","","html-keyboard-response","485","605383","0.0-1.0-687.0","0","0","72773","","null","","","null","76","NaN","","","","","","","","","","","","","","",""
"","S2","","html-keyboard-response","486","605637","0.0-1.0-688.0","0","0","72773","","null","","","null","76","","NaN","","","","","","","","","","","","","",""
"","response","","html-keyboard-response","487","606076","0.0-1.0-689.0-0.0","0","0","72773","","437","","","68","76","","","2","76","training","adjacent","GF","7","6","Q.jpg","P.jpg","0","0","1","",""
"","feedback","","html-keyboard-response","488","607080","0.0-1.0-690.0-0.0","0","0","72773","","null","","","null","76","","","","","","","","","","","","","","","",""
"","ITI","","html-keyboard-response","489","608082","0.0-1.0-693.0","0","0","72773","","null","","","null","76","","","","","","","","","","","","","","","NaN",""
"","S1","","html-keyboard-response","490","608335","0.0-1.0-695.0","0","0","72773","","null","","","null","77","","","","","","","","","","","","","","","",""
"","ISI","","html-keyboard-response","491","609337","0.0-1.0-696.0","0","0","72773","","null","","","null","77","NaN","","","","","","","","","","","","","","",""
"","S2","","html-keyboard-response","492","609590","0.0-1.0-697.0","0","0","72773","","null","","","null","77","","NaN","","","","","","","","","","","","","",""
"","response","","html-keyboard-response","493","609973","0.0-1.0-698.0-0.0","0","0","72773","","381","","","75","77","","","2","77","training","adjacent","FE","6","5","P.jpg","N.jpg","1","0","0","",""
"","feedback","","html-keyboard-response","494","610976","0.0-1.0-699.0-0.0","0","0","72773","","null","","","null","77","","","","","","","","","","","","","","","",""
"","time_out","","html-keyboard-response","495","612979","0.0-1.0-701.0-0.0","0","0","72773","","null","","","null","77","","","","","","","","","","","","","","","",""
"","ITI","","html-keyboard-response","496","613983","0.0-1.0-702.0","0","0","72773","","null","","","null","77","","","","","","","","","","","","","","","NaN",""
"","S1","","html-keyboard-response","497","614235","0.0-1.0-704.0","0","0","72773","","null","","","null","78","","","","","","","","","","","","","","","",""
"","ISI","","html-keyboard-response","498","615238","0.0-1.0-705.0","0","0","72773","","null","","","null","78","NaN","","","","","","","","","","","","","","",""
"","S2","","html-keyboard-response","499","615491","0.0-1.0-706.0","0","0","72773","","null","","","null","78","","NaN","","","","","","","","","","","","","",""
"","response","","html-keyboard-response","500","615817","0.0-1.0-707.0-0.0","0","0","72773","","323","","","68","78","","","2","78","training","adjacent","BA","2","1","L.jpg","O.jpg","0","0","1","",""
"","feedback","","html-keyboard-response","501","616820","0.0-1.0-708.0-0.0","0","0","72773","","null","","","null","78","","","","","","","","","","","","","","","",""
"","ITI","","html-keyboard-response","502","617823","0.0-1.0-711.0","0","0","72773","","null","","","null","78","","","","","","","","","","","","","","","NaN",""
"","S1","","html-keyboard-response","503","618076","0.0-1.0-713.0","0","0","72773","","null","","","null","79","","","","","","","","","","","","","","","",""
"","ISI","","html-keyboard-response","504","619079","0.0-1.0-714.0","0","0","72773","","null","","","null","79","NaN","","","","","","","","","","","","","","",""
"","S2","","html-keyboard-response","505","619331","0.0-1.0-715.0","0","0","72773","","null","","","null","79","","NaN","","","","","","","","","","","","","",""
"","response","","html-keyboard-response","506","619577","0.0-1.0-716.0-0.0","0","0","72773","","245","","","68","79","","","2","79","training","adjacent","EF","5","6","N.jpg","P.jpg","0","1","0","",""
"","feedback","","html-keyboard-response","507","620580","0.0-1.0-717.0-0.0","0","0","72773","","null","","","null","79","","","","","","","","","","","","","","","",""
"","time_out","","html-keyboard-response","508","622583","0.0-1.0-719.0-0.0","0","0","72773","","null","","","null","79","","","","","","","","","","","","","","","",""
"","ITI","","html-keyboard-response","509","623586","0.0-1.0-720.0","0","0","72773","","null","","","null","79","","","","","","","","","","","","","","","NaN",""
"","S1","","html-keyboard-response","510","623838","0.0-1.0-722.0","0","0","72773","","null","","","null","80","","","","","","","","","","","","","","","",""
"","ISI","","html-keyboard-response","511","624841","0.0-1.0-723.0","0","0","72773","","null","","","null","80","NaN","","","","","","","","","","","","","","",""
"","S2","","html-keyboard-response","512","625094","0.0-1.0-724.0","0","0","72773","","null","","","null","80","","NaN","","","","","","","","","","","","","",""
"","response","","html-keyboard-response","513","625366","0.0-1.0-725.0-0.0","0","0","72773","","270","","","68","80","","","2","80","training","adjacent","DC","4","3","R.jpg","M.jpg","0","0","1","",""
"","feedback","","html-keyboard-response","514","626369","0.0-1.0-726.0-0.0","0","0","72773","","null","","","null","80","","","","","","","","","","","","","","","",""
"","ITI","","html-keyboard-response","515","627372","0.0-1.0-729.0","0","0","72773","","null","","","null","80","","","","","","","","","","","","","","","NaN",""
"","S1","","html-keyboard-response","516","627625","0.0-1.0-731.0","0","0","72773","","null","","","null","81","","","","","","","","","","","","","","","",""
"","ISI","","html-keyboard-response","517","628627","0.0-1.0-732.0","0","0","72773","","null","","","null","81","NaN","","","","","","","","","","","","","","",""
"","S2","","html-keyboard-response","518","628881","0.0-1.0-733.0","0","0","72773","","null","","","null","81","","NaN","","","","","","","","","","","","","",""
"","response","","html-keyboard-response","519","629154","0.0-1.0-734.0-0.0","0","0","72773","","272","","","68","81","","","2","81","training","adjacent","DC","4","3","R.jpg","M.jpg","0","0","1","",""
"","feedback","","html-keyboard-response","520","630157","0.0-1.0-735.0-0.0","0","0","72773","","null","","","null","81","","","","","","","","","","","","","","","",""
"","ITI","","html-keyboard-response","521","631160","0.0-1.0-738.0","0","0","72773","","null","","","null","81","","","","","","","","","","","","","","","NaN",""
"","S1","","html-keyboard-response","522","631413","0.0-1.0-740.0","0","0","72773","","null","","","null","82","","","","","","","","","","","","","","","",""
"","ISI","","html-keyboard-response","523","632416","0.0-1.0-741.0","0","0","72773","","null","","","null","82","NaN","","","","","","","","","","","","","","",""
"","S2","","html-keyboard-response","524","632669","0.0-1.0-742.0","0","0","72773","","null","","","null","82","","NaN","","","","","","","","","","","","","",""
"","response","","html-keyboard-response","525","632985","0.0-1.0-743.0-0.0","0","0","72773","","314","","","68","82","","","2","82","training","adjacent","ED","5","4","N.jpg","R.jpg","0","0","1","",""
"","feedback","","html-keyboard-response","526","633999","0.0-1.0-744.0-0.0","0","0","72773","","null","","","null","82","","","","","","","","","","","","","","","",""
"","ITI","","html-keyboard-response","527","635002","0.0-1.0-747.0","0","0","72773","","null","","","null","82","","","","","","","","","","","","","","","NaN",""
"","S1","","html-keyboard-response","528","635254","0.0-1.0-749.0","0","0","72773","","null","","","null","83","","","","","","","","","","","","","","","",""
"","ISI","","html-keyboard-response","529","636257","0.0-1.0-750.0","0","0","72773","","null","","","null","83","NaN","","","","","","","","","","","","","","",""
"","S2","","html-keyboard-response","530","636509","0.0-1.0-751.0","0","0","72773","","null","","","null","83","","NaN","","","","","","","","","","","","","",""
"","response","","html-keyboard-response","531","636820","0.0-1.0-752.0-0.0","0","0","72773","","308","","","75","83","","","2","83","training","adjacent","BC","2","3","L.jpg","M.jpg","1","1","1","",""
"","feedback","","html-keyboard-response","532","637831","0.0-1.0-753.0-0.0","0","0","72773","","null","","","null","83","","","","","","","","","","","","","","","",""
"","ITI","","html-keyboard-response","533","638834","0.0-1.0-756.0","0","0","72773","","null","","","null","83","","","","","","","","","","","","","","","NaN",""
"","S1","","html-keyboard-response","534","639087","0.0-1.0-758.0","0","0","72773","","null","","","null","84","","","","","","","","","","","","","","","",""
"","ISI","","html-keyboard-response","535","640090","0.0-1.0-759.0","0","0","72773","","null","","","null","84","NaN","","","","","","","","","","","","","","",""
"","S2","","html-keyboard-response","536","640343","0.0-1.0-760.0","0","0","72773","","null","","","null","84","","NaN","","","","","","","","","","","","","",""
"","response","","html-keyboard-response","537","640641","0.0-1.0-761.0-0.0","0","0","72773","","297","","","75","84","","","2","84","training","adjacent","FE","6","5","P.jpg","N.jpg","1","0","0","",""
"","feedback","","html-keyboard-response","538","641644","0.0-1.0-762.0-0.0","0","0","72773","","null","","","null","84","","","","","","","","","","","","","","","",""
"","time_out","","html-keyboard-response","539","643647","0.0-1.0-764.0-0.0","0","0","72773","","null","","","null","84","","","","","","","","","","","","","","","",""
"","ITI","","html-keyboard-response","540","644650","0.0-1.0-765.0","0","0","72773","","null","","","null","84","","","","","","","","","","","","","","","NaN",""
"","S1","","html-keyboard-response","541","644902","0.0-1.0-767.0","0","0","72773","","null","","","null","85","","","","","","","","","","","","","","","",""
"","ISI","","html-keyboard-response","542","645905","0.0-1.0-768.0","0","0","72773","","null","","","null","85","NaN","","","","","","","","","","","","","","",""
"","S2","","html-keyboard-response","543","646158","0.0-1.0-769.0","0","0","72773","","null","","","null","85","","NaN","","","","","","","","","","","","","",""
"","response","","html-keyboard-response","544","646438","0.0-1.0-770.0-0.0","0","0","72773","","279","","","75","85","","","2","85","training","adjacent","ED","5","4","N.jpg","R.jpg","1","0","0","",""
"","feedback","","html-keyboard-response","545","647441","0.0-1.0-771.0-0.0","0","0","72773","","null","","","null","85","","","","","","","","","","","","","","","",""
"","time_out","","html-keyboard-response","546","649443","0.0-1.0-773.0-0.0","0","0","72773","","null","","","null","85","","","","","","","","","","","","","","","",""
"","ITI","","html-keyboard-response","547","650446","0.0-1.0-774.0","0","0","72773","","null","","","null","85","","","","","","","","","","","","","","","NaN",""
"","S1","","html-keyboard-response","548","650698","0.0-1.0-776.0","0","0","72773","","null","","","null","86","","","","","","","","","","","","","","","",""
"","ISI","","html-keyboard-response","549","651701","0.0-1.0-777.0","0","0","72773","","null","","","null","86","NaN","","","","","","","","","","","","","","",""
"","S2","","html-keyboard-response","550","651954","0.0-1.0-778.0","0","0","72773","","null","","","null","86","","NaN","","","","","","","","","","","","","",""
"","response","","html-keyboard-response","551","652196","0.0-1.0-779.0-0.0","0","0","72773","","240","","","68","86","","","2","86","training","adjacent","GF","7","6","Q.jpg","P.jpg","0","0","1","",""
"","feedback","","html-keyboard-response","552","653199","0.0-1.0-780.0-0.0","0","0","72773","","null","","","null","86","","","","","","","","","","","","","","","",""
"","ITI","","html-keyboard-response","553","654202","0.0-1.0-783.0","0","0","72773","","null","","","null","86","","","","","","","","","","","","","","","NaN",""
"","S1","","html-keyboard-response","554","654454","0.0-1.0-785.0","0","0","72773","","null","","","null","87","","","","","","","","","","","","","","","",""
"","ISI","","html-keyboard-response","555","655457","0.0-1.0-786.0","0","0","72773","","null","","","null","87","NaN","","","","","","","","","","","","","","",""
"","S2","","html-keyboard-response","556","655709","0.0-1.0-787.0","0","0","72773","","null","","","null","87","","NaN","","","","","","","","","","","","","",""
"","response","","html-keyboard-response","557","655987","0.0-1.0-788.0-0.0","0","0","72773","","276","","","75","87","","","2","87","training","adjacent","FE","6","5","P.jpg","N.jpg","1","0","0","",""
"","feedback","","html-keyboard-response","558","656990","0.0-1.0-789.0-0.0","0","0","72773","","null","","","null","87","","","","","","","","","","","","","","","",""
"","time_out","","html-keyboard-response","559","659003","0.0-1.0-791.0-0.0","0","0","72773","","null","","","null","87","","","","","","","","","","","","","","","",""
"","ITI","","html-keyboard-response","560","660005","0.0-1.0-792.0","0","0","72773","","null","","","null","87","","","","","","","","","","","","","","","NaN",""
"","S1","","html-keyboard-response","561","660259","0.0-1.0-794.0","0","0","72773","","null","","","null","88","","","","","","","","","","","","","","","",""
"","ISI","","html-keyboard-response","562","661261","0.0-1.0-795.0","0","0","72773","","null","","","null","88","NaN","","","","","","","","","","","","","","",""
"","S2","","html-keyboard-response","563","661514","0.0-1.0-796.0","0","0","72773","","null","","","null","88","","NaN","","","","","","","","","","","","","",""
"","response","","html-keyboard-response","564","661794","0.0-1.0-797.0-0.0","0","0","72773","","279","","","75","88","","","2","88","training","adjacent","ED","5","4","N.jpg","R.jpg","1","0","0","",""
"","feedback","","html-keyboard-response","565","662797","0.0-1.0-798.0-0.0","0","0","72773","","null","","","null","88","","","","","","","","","","","","","","","",""
"","time_out","","html-keyboard-response","566","664800","0.0-1.0-800.0-0.0","0","0","72773","","null","","","null","88","","","","","","","","","","","","","","","",""
"","ITI","","html-keyboard-response","567","665803","0.0-1.0-801.0","0","0","72773","","null","","","null","88","","","","","","","","","","","","","","","NaN",""
"","S1","","html-keyboard-response","568","666056","0.0-1.0-803.0","0","0","72773","","null","","","null","89","","","","","","","","","","","","","","","",""
"","ISI","","html-keyboard-response","569","667059","0.0-1.0-804.0","0","0","72773","","null","","","null","89","NaN","","","","","","","","","","","","","","",""
"","S2","","html-keyboard-response","570","667311","0.0-1.0-805.0","0","0","72773","","null","","","null","89","","NaN","","","","","","","","","","","","","",""
"","response","","html-keyboard-response","571","667672","0.0-1.0-806.0-0.0","0","0","72773","","360","","","68","89","","","2","89","training","adjacent","CB","3","2","M.jpg","L.jpg","0","0","1","",""
"","feedback","","html-keyboard-response","572","668676","0.0-1.0-807.0-0.0","0","0","72773","","null","","","null","89","","","","","","","","","","","","","","","",""
"","ITI","","html-keyboard-response","573","669679","0.0-1.0-810.0","0","0","72773","","null","","","null","89","","","","","","","","","","","","","","","NaN",""
"","S1","","html-keyboard-response","574","669933","0.0-1.0-812.0","0","0","72773","","null","","","null","90","","","","","","","","","","","","","","","",""
"","ISI","","html-keyboard-response","575","670935","0.0-1.0-813.0","0","0","72773","","null","","","null","90","NaN","","","","","","","","","","","","","","",""
"","S2","","html-keyboard-response","576","671188","0.0-1.0-814.0","0","0","72773","","null","","","null","90","","NaN","","","","","","","","","","","","","",""
"","response","","html-keyboard-response","577","671362","0.0-1.0-815.0-0.0","0","0","72773","","171","","","75","90","","","2","90","training","adjacent","FG","6","7","P.jpg","Q.jpg","1","1","1","",""
"","feedback","","html-keyboard-response","578","672365","0.0-1.0-816.0-0.0","0","0","72773","","null","","","null","90","","","","","","","","","","","","","","","",""
"","ITI","","html-keyboard-response","579","673367","0.0-1.0-819.0","0","0","72773","","null","","","null","90","","","","","","","","","","","","","","","NaN",""
"","S1","","html-keyboard-response","580","673620","0.0-1.0-821.0","0","0","72773","","null","","","null","91","","","","","","","","","","","","","","","",""
"","ISI","","html-keyboard-response","581","674623","0.0-1.0-822.0","0","0","72773","","null","","","null","91","NaN","","","","","","","","","","","","","","",""
"","S2","","html-keyboard-response","582","674876","0.0-1.0-823.0","0","0","72773","","null","","","null","91","","NaN","","","","","","","","","","","","","",""
"","response","","html-keyboard-response","583","675125","0.0-1.0-824.0-0.0","0","0","72773","","247","","","68","91","","","2","91","training","adjacent","EF","5","6","N.jpg","P.jpg","0","1","0","",""
