"success","ttype","start_time","trial_type","trial_index","time_elapsed","internal_node_id","warning","missed_checkup","PID","view_history","rt","responses","repeat_instructions","key_press","index","keypress_isi","keypress_S2","block","trial_num","phase","group_type","pair_type","S1_stim","S2_stim","S1_img","S2_img","S1_chosen","S1_higher","accuracy","keypress_iti","total_bonus_tally"
"true","full_screen","d03032023hr1945","fullscreen","0","9558","0.0-0.0","0","0","43973","","","","","","","","","","","","","","","","","","","","","",""
"","instructions","","instructions","1","98239","0.0-1.0-0.0-0.0","0","0","43973","[{""page_index"":0,""viewing_time"":4434},{""page_index"":1,""viewing_time"":64630},{""page_index"":2,""viewing_time"":16781},{""page_index"":3,""viewing_time"":2832}]","88678","","","","","","","","","","","","","","","","","","","",""
"","comprehension_check","","survey-multi-choice","2","162216","0.0-1.0-0.0-1.0","0","0","43973","","63975","{""Q0"":""True"",""Q1"":""K"",""Q2"":""Only when the screen 'MAKE A CHOICE' is shown"",""Q3"":""Green mark"",""Q4"":""either D or K""}","1","","","","","","","","","","","","","","","","","",""
"","missed_instruction_checkup","","html-keyboard-response","3","165156","0.0-1.0-0.0-2.0-0.0","0","1","43973","","2937","","","32","","","","","","","","","","","","","","","","",""
"","instructions","","instructions","4","172062","0.0-1.0-0.1-0.1","0","0","43973","[{""page_index"":0,""viewing_time"":2440},{""page_index"":1,""viewing_time"":1425},{""page_index"":2,""viewing_time"":1777},{""page_index"":3,""viewing_time"":1262}]","6904","","","","","","","","","","","","","","","","","","","",""
"","comprehension_check","","survey-multi-choice","5","194440","0.0-1.0-0.1-1.1","0","0","43973","","22375","{""Q0"":""True"",""Q1"":""K"",""Q2"":""Once the second image appears and while the screen 'MAKE A CHOICE' is shown"",""Q3"":""Green mark"",""Q4"":""either D or K""}","0","","","","","","","","","","","","","","","","","",""
"","start_exp","","html-keyboard-response","6","202693","0.0-1.0-1.0","0","0","43973","","8250","","","32","","","","","","","","","","","","","","","","",""
"","S1","","html-keyboard-response","7","202951","0.0-1.0-2.0","0","0","43973","","null","","","null","0","","","","","","","","","","","","","","","",""
"","ISI","","html-keyboard-response","8","203455","0.0-1.0-3.0","0","0","43973","","null","","","null","0","NaN","","","","","","","","","","","","","","",""
"","S2","","html-keyboard-response","9","203711","0.0-1.0-4.0","0","0","43973","","null","","","null","0","","NaN","","","","","","","","","","","","","",""
"","response","","html-keyboard-response","10","205283","0.0-1.0-5.0-0.0","0","0","43973","","1570","","","75","0","","","1","0","training","adjacent","BC","2","3","P.jpg","O.jpg","1","1","1","",""
"","feedback","","html-keyboard-response","11","206286","0.0-1.0-6.0-0.0","0","0","43973","","null","","","null","0","","","","","","","","","","","","","","","",""
"","ITI","","html-keyboard-response","12","207295","0.0-1.0-9.0","0","0","43973","","null","","","null","0","","","","","","","","","","","","","","","NaN",""
"","S1","","html-keyboard-response","13","207551","0.0-1.0-11.0","0","0","43973","","null","","","null","1","","","","","","","","","","","","","","","",""
"","ISI","","html-keyboard-response","14","208055","0.0-1.0-12.0","0","0","43973","","null","","","null","1","NaN","","","","","","","","","","","","","","",""
"","S2","","html-keyboard-response","15","208310","0.0-1.0-13.0","0","0","43973","","null","","","null","1","","NaN","","","","","","","","","","","","","",""
"","response","","html-keyboard-response","16","208885","0.0-1.0-14.0-0.0","0","0","43973","","574","","","75","1","","","1","1","training","adjacent","EF","5","6","N.jpg","L.jpg","1","1","1","",""
"","feedback","","html-keyboard-response","17","209909","0.0-1.0-15.0-0.0","0","0","43973","","null","","","null","1","","","","","","","","","","","","","","","",""
"","ITI","","html-keyboard-response","18","210910","0.0-1.0-18.0","0","0","43973","","null","","","null","1","","","","","","","","","","","","","","","NaN",""
"","S1","","html-keyboard-response","19","211166","0.0-1.0-20.0","0","0","43973","","null","","","null","2","","","","","","","","","","","","","","","",""
"","ISI","","html-keyboard-response","20","211670","0.0-1.0-21.0","0","0","43973","","472","","","68","2","d","","","","","","","","","","","","","","",""
"","S2","","html-keyboard-response","21","211928","0.0-1.0-22.0","0","0","43973","","null","","","null","2","","NaN","","","","","","","","","","","","","",""
"","response","","html-keyboard-response","22","213247","0.0-1.0-23.0-0.0","0","0","43973","","1317","","","68","2","","","1","2","training","adjacent","EF","5","6","N.jpg","L.jpg","0","1","0","",""
"","feedback","","html-keyboard-response","23","214255","0.0-1.0-24.0-0.0","0","0","43973","","null","","","null","2","","","","","","","","","","","","","","","",""
"","time_out","","html-keyboard-response","24","216263","0.0-1.0-26.0-0.0","0","0","43973","","null","","","null","2","","","","","","","","","","","","","","","",""
"","ITI","","html-keyboard-response","25","217271","0.0-1.0-27.0","0","0","43973","","null","","","null","2","","","","","","","","","","","","","","","NaN",""
"","S1","","html-keyboard-response","26","217526","0.0-1.0-29.0","0","0","43973","","null","","","null","3","","","","","","","","","","","","","","","",""
"","ISI","","html-keyboard-response","27","218030","0.0-1.0-30.0","0","0","43973","","null","","","null","3","NaN","","","","","","","","","","","","","","",""
"","S2","","html-keyboard-response","28","218286","0.0-1.0-31.0","0","0","43973","","null","","","null","3","","NaN","","","","","","","","","","","","","",""
"","response","","html-keyboard-response","29","218404","0.0-1.0-32.0-0.0","0","0","43973","","116","","","75","3","","","1","3","training","adjacent","DC","4","3","R.jpg","O.jpg","1","0","0","",""
"","feedback","","html-keyboard-response","30","219406","0.0-1.0-33.0-0.0","0","0","43973","","null","","","null","3","","","","","","","","","","","","","","","",""
"","time_out","","html-keyboard-response","31","221415","0.0-1.0-35.0-0.0","0","0","43973","","null","","","null","3","","","","","","","","","","","","","","","",""
"","ITI","","html-keyboard-response","32","222423","0.0-1.0-36.0","0","0","43973","","null","","","null","3","","","","","","","","","","","","","","","NaN",""
"","S1","","html-keyboard-response","33","222679","0.0-1.0-38.0","0","0","43973","","null","","","null","4","","","","","","","","","","","","","","","",""
"","ISI","","html-keyboard-response","34","223182","0.0-1.0-39.0","0","0","43973","","257","","","75","4","k","","","","","","","","","","","","","","",""
"","S2","","html-keyboard-response","35","223438","0.0-1.0-40.0","0","0","43973","","null","","","null","4","","NaN","","","","","","","","","","","","","",""
"","response","","html-keyboard-response","36","224876","0.0-1.0-41.0-0.0","0","0","43973","","1436","","","75","4","","","1","4","training","adjacent","ED","5","4","N.jpg","R.jpg","1","0","0","",""
"","feedback","","html-keyboard-response","37","225879","0.0-1.0-42.0-0.0","0","0","43973","","null","","","null","4","","","","","","","","","","","","","","","",""
"","time_out","","html-keyboard-response","38","227887","0.0-1.0-44.0-0.0","0","0","43973","","null","","","null","4","","","","","","","","","","","","","","","",""
"","ITI","","html-keyboard-response","39","228894","0.0-1.0-45.0","0","0","43973","","null","","","null","4","","","","","","","","","","","","","","","NaN",""
"","S1","","html-keyboard-response","40","229153","0.0-1.0-47.0","0","0","43973","","null","","","null","5","","","","","","","","","","","","","","","",""
"","ISI","","html-keyboard-response","41","229655","0.0-1.0-48.0","0","0","43973","","null","","","null","5","NaN","","","","","","","","","","","","","","",""
"","S2","","html-keyboard-response","42","229911","0.0-1.0-49.0","0","0","43973","","null","","","null","5","","NaN","","","","","","","","","","","","","",""
"","response","","html-keyboard-response","43","229934","0.0-1.0-50.0-0.0","0","0","43973","","21","","","75","5","","","1","5","training","adjacent","DE","4","5","R.jpg","N.jpg","1","1","1","",""
"","feedback","","html-keyboard-response","44","230942","0.0-1.0-51.0-0.0","0","0","43973","","null","","","null","5","","","","","","","","","","","","","","","",""
"","ITI","","html-keyboard-response","45","231950","0.0-1.0-54.0","0","0","43973","","null","","","null","5","","","","","","","","","","","","","","","NaN",""
"","S1","","html-keyboard-response","46","232206","0.0-1.0-56.0","0","0","43973","","null","","","null","6","","","","","","","","","","","","","","","",""
"","ISI","","html-keyboard-response","47","232715","0.0-1.0-57.0","0","0","43973","","null","","","null","6","NaN","","","","","","","","","","","","","","",""
"","S2","","html-keyboard-response","48","232967","0.0-1.0-58.0","0","0","43973","","null","","","null","6","","NaN","","","","","","","","","","","","","",""
"","response","","html-keyboard-response","49","234100","0.0-1.0-59.0-0.0","0","0","43973","","1131","","","75","6","","","1","6","training","adjacent","CD","3","4","O.jpg","R.jpg","1","1","1","",""
"","feedback","","html-keyboard-response","50","235102","0.0-1.0-60.0-0.0","0","0","43973","","null","","","null","6","","","","","","","","","","","","","","","",""
"","ITI","","html-keyboard-response","51","236110","0.0-1.0-63.0","0","0","43973","","null","","","null","6","","","","","","","","","","","","","","","NaN",""
"","S1","","html-keyboard-response","52","236365","0.0-1.0-65.0","0","0","43973","","null","","","null","7","","","","","","","","","","","","","","","",""
"","ISI","","html-keyboard-response","53","236871","0.0-1.0-66.0","0","0","43973","","null","","","null","7","NaN","","","","","","","","","","","","","","",""
"","S2","","html-keyboard-response","54","237126","0.0-1.0-67.0","0","0","43973","","null","","","null","7","","NaN","","","","","","","","","","","","","",""
"","response","","html-keyboard-response","55","237956","0.0-1.0-68.0-0.0","0","0","43973","","828","","","75","7","","","1","7","training","adjacent","CD","3","4","O.jpg","R.jpg","1","1","1","",""
"","feedback","","html-keyboard-response","56","238959","0.0-1.0-69.0-0.0","0","0","43973","","null","","","null","7","","","","","","","","","","","","","","","",""
"","ITI","","html-keyboard-response","57","239966","0.0-1.0-72.0","0","0","43973","","null","","","null","7","","","","","","","","","","","","","","","NaN",""
"","S1","","html-keyboard-response","58","240223","0.0-1.0-74.0","0","0","43973","","null","","","null","8","","","","","","","","","","","","","","","",""
"","ISI","","html-keyboard-response","59","240727","0.0-1.0-75.0","0","0","43973","","null","","","null","8","NaN","","","","","","","","","","","","","","",""
"","S2","","html-keyboard-response","60","240982","0.0-1.0-76.0","0","0","43973","","null","","","null","8","","NaN","","","","","","","","","","","","","",""
"","response","","html-keyboard-response","61","242323","0.0-1.0-77.0-0.0","0","0","43973","","1340","","","75","8","","","1","8","training","adjacent","FG","6","7","L.jpg","Q.jpg","1","1","1","",""
"","feedback","","html-keyboard-response","62","243326","0.0-1.0-78.0-0.0","0","0","43973","","null","","","null","8","","","","","","","","","","","","","","","",""
"","ITI","","html-keyboard-response","63","244335","0.0-1.0-81.0","0","0","43973","","null","","","null","8","","","","","","","","","","","","","","","NaN",""
"","S1","","html-keyboard-response","64","244591","0.0-1.0-83.0","0","0","43973","","null","","","null","9","","","","","","","","","","","","","","","",""
"","ISI","","html-keyboard-response","65","245095","0.0-1.0-84.0","0","0","43973","","null","","","null","9","NaN","","","","","","","","","","","","","","",""
"","S2","","html-keyboard-response","66","245350","0.0-1.0-85.0","0","0","43973","","null","","","null","9","","NaN","","","","","","","","","","","","","",""
"","response","","html-keyboard-response","67","246100","0.0-1.0-86.0-0.0","0","0","43973","","748","","","68","9","","","1","9","training","adjacent","CB","3","2","O.jpg","P.jpg","0","0","1","",""
"","feedback","","html-keyboard-response","68","247102","0.0-1.0-87.0-0.0","0","0","43973","","null","","","null","9","","","","","","","","","","","","","","","",""
"","ITI","","html-keyboard-response","69","248110","0.0-1.0-90.0","0","0","43973","","null","","","null","9","","","","","","","","","","","","","","","NaN",""
"","S1","","html-keyboard-response","70","248367","0.0-1.0-92.0","0","0","43973","","null","","","null","10","","","","","","","","","","","","","","","",""
"","ISI","","html-keyboard-response","71","248870","0.0-1.0-93.0","0","0","43973","","null","","","null","10","NaN","","","","","","","","","","","","","","",""
"","S2","","html-keyboard-response","72","249152","0.0-1.0-94.0","0","0","43973","","null","","","null","10","","NaN","","","","","","","","","","","","","",""
"","response","","html-keyboard-response","73","250797","0.0-1.0-95.0-0.0","0","0","43973","","1643","","","75","10","","","1","10","training","adjacent","GF","7","6","Q.jpg","L.jpg","1","0","0","",""
"","feedback","","html-keyboard-response","74","251799","0.0-1.0-96.0-0.0","0","0","43973","","null","","","null","10","","","","","","","","","","","","","","","",""
"","time_out","","html-keyboard-response","75","253807","0.0-1.0-98.0-0.0","0","0","43973","","null","","","null","10","","","","","","","","","","","","","","","",""
"","ITI","","html-keyboard-response","76","254814","0.0-1.0-99.0","0","0","43973","","null","","","null","10","","","","","","","","","","","","","","","NaN",""
"","S1","","html-keyboard-response","77","255070","0.0-1.0-101.0","0","0","43973","","null","","","null","11","","","","","","","","","","","","","","","",""
"","ISI","","html-keyboard-response","78","255574","0.0-1.0-102.0","0","0","43973","","null","","","null","11","NaN","","","","","","","","","","","","","","",""
"","S2","","html-keyboard-response","79","255830","0.0-1.0-103.0","0","0","43973","","null","","","null","11","","NaN","","","","","","","","","","","","","",""
"","response","","html-keyboard-response","80","256419","0.0-1.0-104.0-0.0","0","0","43973","","588","","","68","11","","","1","11","training","adjacent","EF","5","6","N.jpg","L.jpg","0","1","0","",""
"","feedback","","html-keyboard-response","81","257421","0.0-1.0-105.0-0.0","0","0","43973","","null","","","null","11","","","","","","","","","","","","","","","",""
"","time_out","","html-keyboard-response","82","259431","0.0-1.0-107.0-0.0","0","0","43973","","null","","","null","11","","","","","","","","","","","","","","","",""
"","ITI","","html-keyboard-response","83","260438","0.0-1.0-108.0","0","0","43973","","null","","","null","11","","","","","","","","","","","","","","","NaN",""
"","S1","","html-keyboard-response","84","260694","0.0-1.0-110.0","0","0","43973","","null","","","null","12","","","","","","","","","","","","","","","",""
"","ISI","","html-keyboard-response","85","261198","0.0-1.0-111.0","0","0","43973","","null","","","null","12","NaN","","","","","","","","","","","","","","",""
"","S2","","html-keyboard-response","86","261455","0.0-1.0-112.0","0","0","43973","","null","","","null","12","","NaN","","","","","","","","","","","","","",""
"","response","","html-keyboard-response","87","262038","0.0-1.0-113.0-0.0","0","0","43973","","579","","","68","12","","","1","12","training","adjacent","CB","3","2","O.jpg","P.jpg","0","0","1","",""
"","feedback","","html-keyboard-response","88","263047","0.0-1.0-114.0-0.0","0","0","43973","","null","","","null","12","","","","","","","","","","","","","","","",""
"","ITI","","html-keyboard-response","89","264056","0.0-1.0-117.0","0","0","43973","","null","","","null","12","","","","","","","","","","","","","","","NaN",""
"","S1","","html-keyboard-response","90","264310","0.0-1.0-119.0","0","0","43973","","null","","","null","13","","","","","","","","","","","","","","","",""
"","ISI","","html-keyboard-response","91","264814","0.0-1.0-120.0","0","0","43973","","null","","","null","13","NaN","","","","","","","","","","","","","","",""
"","S2","","html-keyboard-response","92","265070","0.0-1.0-121.0","0","0","43973","","null","","","null","13","","NaN","","","","","","","","","","","","","",""
"","response","","html-keyboard-response","93","265468","0.0-1.0-122.0-0.0","0","0","43973","","396","","","68","13","","","1","13","training","adjacent","CB","3","2","O.jpg","P.jpg","0","0","1","",""
"","feedback","","html-keyboard-response","94","266471","0.0-1.0-123.0-0.0","0","0","43973","","null","","","null","13","","","","","","","","","","","","","","","",""
"","ITI","","html-keyboard-response","95","267480","0.0-1.0-126.0","0","0","43973","","null","","","null","13","","","","","","","","","","","","","","","NaN",""
"","S1","","html-keyboard-response","96","267734","0.0-1.0-128.0","0","0","43973","","null","","","null","14","","","","","","","","","","","","","","","",""
"","ISI","","html-keyboard-response","97","268238","0.0-1.0-129.0","0","0","43973","","null","","","null","14","NaN","","","","","","","","","","","","","","",""
"","S2","","html-keyboard-response","98","268494","0.0-1.0-130.0","0","0","43973","","null","","","null","14","","NaN","","","","","","","","","","","","","",""
"","response","","html-keyboard-response","99","270203","0.0-1.0-131.0-0.0","0","0","43973","","1707","","","75","14","","","1","14","training","adjacent","AB","1","2","M.jpg","P.jpg","1","1","1","",""
"","feedback","","html-keyboard-response","100","271207","0.0-1.0-132.0-0.0","0","0","43973","","null","","","null","14","","","","","","","","","","","","","","","",""
"","ITI","","html-keyboard-response","101","272214","0.0-1.0-135.0","0","0","43973","","null","","","null","14","","","","","","","","","","","","","","","NaN",""
"","S1","","html-keyboard-response","102","272471","0.0-1.0-137.0","0","0","43973","","null","","","null","15","","","","","","","","","","","","","","","",""
"","ISI","","html-keyboard-response","103","272975","0.0-1.0-138.0","0","0","43973","","null","","","null","15","NaN","","","","","","","","","","","","","","",""
"","S2","","html-keyboard-response","104","273230","0.0-1.0-139.0","0","0","43973","","null","","","null","15","","NaN","","","","","","","","","","","","","",""
"","response","","html-keyboard-response","105","273644","0.0-1.0-140.0-0.0","0","0","43973","","412","","","75","15","","","1","15","training","adjacent","BA","2","1","P.jpg","M.jpg","1","0","0","",""
"","feedback","","html-keyboard-response","106","274655","0.0-1.0-141.0-0.0","0","0","43973","","null","","","null","15","","","","","","","","","","","","","","","",""
"","time_out","","html-keyboard-response","107","276663","0.0-1.0-143.0-0.0","0","0","43973","","null","","","null","15","","","","","","","","","","","","","","","",""
"","ITI","","html-keyboard-response","108","277673","0.0-1.0-144.0","0","0","43973","","null","","","null","15","","","","","","","","","","","","","","","NaN",""
"","S1","","html-keyboard-response","109","277926","0.0-1.0-146.0","0","0","43973","","null","","","null","16","","","","","","","","","","","","","","","",""
"","ISI","","html-keyboard-response","110","278431","0.0-1.0-147.0","0","0","43973","","null","","","null","16","NaN","","","","","","","","","","","","","","",""
"","S2","","html-keyboard-response","111","278686","0.0-1.0-148.0","0","0","43973","","null","","","null","16","","NaN","","","","","","","","","","","","","",""
"","response","","html-keyboard-response","112","279764","0.0-1.0-149.0-0.0","0","0","43973","","1076","","","75","16","","","1","16","training","adjacent","DE","4","5","R.jpg","N.jpg","1","1","1","",""
"","feedback","","html-keyboard-response","113","280767","0.0-1.0-150.0-0.0","0","0","43973","","null","","","null","16","","","","","","","","","","","","","","","",""
"","ITI","","html-keyboard-response","114","281774","0.0-1.0-153.0","0","0","43973","","null","","","null","16","","","","","","","","","","","","","","","NaN",""
"","S1","","html-keyboard-response","115","282030","0.0-1.0-155.0","0","0","43973","","null","","","null","17","","","","","","","","","","","","","","","",""
"","ISI","","html-keyboard-response","116","282535","0.0-1.0-156.0","0","0","43973","","null","","","null","17","NaN","","","","","","","","","","","","","","",""
"","S2","","html-keyboard-response","117","282790","0.0-1.0-157.0","0","0","43973","","null","","","null","17","","NaN","","","","","","","","","","","","","",""
"","response","","html-keyboard-response","118","284115","0.0-1.0-158.0-0.0","0","0","43973","","1325","","","75","17","","","1","17","training","adjacent","CB","3","2","O.jpg","P.jpg","1","0","0","",""
"","feedback","","html-keyboard-response","119","285119","0.0-1.0-159.0-0.0","0","0","43973","","null","","","null","17","","","","","","","","","","","","","","","",""
"","time_out","","html-keyboard-response","120","287127","0.0-1.0-161.0-0.0","0","0","43973","","null","","","null","17","","","","","","","","","","","","","","","",""
"","ITI","","html-keyboard-response","121","288184","0.0-1.0-162.0","0","0","43973","","null","","","null","17","","","","","","","","","","","","","","","NaN",""
"","S1","","html-keyboard-response","122","288439","0.0-1.0-164.0","0","0","43973","","null","","","null","18","","","","","","","","","","","","","","","",""
"","ISI","","html-keyboard-response","123","288941","0.0-1.0-165.0","0","0","43973","","null","","","null","18","NaN","","","","","","","","","","","","","","",""
"","S2","","html-keyboard-response","124","289198","0.0-1.0-166.0","0","0","43973","","null","","","null","18","","NaN","","","","","","","","","","","","","",""
"","response","","html-keyboard-response","125","290291","0.0-1.0-167.0-0.0","0","0","43973","","1092","","","68","18","","","1","18","training","adjacent","FE","6","5","L.jpg","N.jpg","0","0","1","",""
"","feedback","","html-keyboard-response","126","291295","0.0-1.0-168.0-0.0","0","0","43973","","null","","","null","18","","","","","","","","","","","","","","","",""
"","ITI","","html-keyboard-response","127","292316","0.0-1.0-171.0","0","0","43973","","null","","","null","18","","","","","","","","","","","","","","","NaN",""
"","S1","","html-keyboard-response","128","292574","0.0-1.0-173.0","0","0","43973","","null","","","null","19","","","","","","","","","","","","","","","",""
"","ISI","","html-keyboard-response","129","293079","0.0-1.0-174.0","0","0","43973","","null","","","null","19","NaN","","","","","","","","","","","","","","",""
"","S2","","html-keyboard-response","130","293335","0.0-1.0-175.0","0","0","43973","","null","","","null","19","","NaN","","","","","","","","","","","","","",""
"","response","","html-keyboard-response","131","293979","0.0-1.0-176.0-0.0","0","0","43973","","642","","","68","19","","","1","19","training","adjacent","ED","5","4","N.jpg","R.jpg","0","0","1","",""
"","feedback","","html-keyboard-response","132","294981","0.0-1.0-177.0-0.0","0","0","43973","","null","","","null","19","","","","","","","","","","","","","","","",""
"","ITI","","html-keyboard-response","133","295990","0.0-1.0-180.0","0","0","43973","","null","","","null","19","","","","","","","","","","","","","","","NaN",""
"","S1","","html-keyboard-response","134","296246","0.0-1.0-182.0","0","0","43973","","null","","","null","20","","","","","","","","","","","","","","","",""
"","ISI","","html-keyboard-response","135","296754","0.0-1.0-183.0","0","0","43973","","null","","","null","20","NaN","","","","","","","","","","","","","","",""
"","S2","","html-keyboard-response","136","297007","0.0-1.0-184.0","0","0","43973","","null","","","null","20","","NaN","","","","","","","","","","","","","",""
"","response","","html-keyboard-response","137","297651","0.0-1.0-185.0-0.0","0","0","43973","","643","","","75","20","","","1","20","training","adjacent","BC","2","3","P.jpg","O.jpg","1","1","1","",""
"","feedback","","html-keyboard-response","138","298695","0.0-1.0-186.0-0.0","0","0","43973","","null","","","null","20","","","","","","","","","","","","","","","",""
"","ITI","","html-keyboard-response","139","299702","0.0-1.0-189.0","0","0","43973","","null","","","null","20","","","","","","","","","","","","","","","NaN",""
"","S1","","html-keyboard-response","140","299958","0.0-1.0-191.0","0","0","43973","","null","","","null","21","","","","","","","","","","","","","","","",""
"","ISI","","html-keyboard-response","141","300463","0.0-1.0-192.0","0","0","43973","","null","","","null","21","NaN","","","","","","","","","","","","","","",""
"","S2","","html-keyboard-response","142","300720","0.0-1.0-193.0","0","0","43973","","null","","","null","21","","NaN","","","","","","","","","","","","","",""
"","response","","html-keyboard-response","143","301604","0.0-1.0-194.0-0.0","0","0","43973","","883","","","68","21","","","1","21","training","adjacent","AB","1","2","M.jpg","P.jpg","0","1","0","",""
"","feedback","","html-keyboard-response","144","302607","0.0-1.0-195.0-0.0","0","0","43973","","null","","","null","21","","","","","","","","","","","","","","","",""
"","time_out","","html-keyboard-response","145","304613","0.0-1.0-197.0-0.0","0","0","43973","","null","","","null","21","","","","","","","","","","","","","","","",""
"","ITI","","html-keyboard-response","146","305615","0.0-1.0-198.0","0","0","43973","","null","","","null","21","","","","","","","","","","","","","","","NaN",""
"","S1","","html-keyboard-response","147","305870","0.0-1.0-200.0","0","0","43973","","null","","","null","22","","","","","","","","","","","","","","","",""
"","ISI","","html-keyboard-response","148","306374","0.0-1.0-201.0","0","0","43973","","null","","","null","22","NaN","","","","","","","","","","","","","","",""
"","S2","","html-keyboard-response","149","306632","0.0-1.0-202.0","0","0","43973","","null","","","null","22","","NaN","","","","","","","","","","","","","",""
"","response","","html-keyboard-response","150","307158","0.0-1.0-203.0-0.0","0","0","43973","","524","","","75","22","","","1","22","training","adjacent","FE","6","5","L.jpg","N.jpg","1","0","0","",""
"","feedback","","html-keyboard-response","151","308166","0.0-1.0-204.0-0.0","0","0","43973","","null","","","null","22","","","","","","","","","","","","","","","",""
"","time_out","","html-keyboard-response","152","310174","0.0-1.0-206.0-0.0","0","0","43973","","null","","","null","22","","","","","","","","","","","","","","","",""
"","ITI","","html-keyboard-response","153","311182","0.0-1.0-207.0","0","0","43973","","null","","","null","22","","","","","","","","","","","","","","","NaN",""
"","S1","","html-keyboard-response","154","311438","0.0-1.0-209.0","0","0","43973","","null","","","null","23","","","","","","","","","","","","","","","",""
"","ISI","","html-keyboard-response","155","311942","0.0-1.0-210.0","0","0","43973","","null","","","null","23","NaN","","","","","","","","","","","","","","",""
"","S2","","html-keyboard-response","156","312198","0.0-1.0-211.0","0","0","43973","","null","","","null","23","","NaN","","","","","","","","","","","","","",""
"","response","","html-keyboard-response","157","312651","0.0-1.0-212.0-0.0","0","0","43973","","452","","","75","23","","","1","23","training","adjacent","AB","1","2","M.jpg","P.jpg","1","1","1","",""
"","feedback","","html-keyboard-response","158","313674","0.0-1.0-213.0-0.0","0","0","43973","","null","","","null","23","","","","","","","","","","","","","","","",""
"","ITI","","html-keyboard-response","159","314679","0.0-1.0-216.0","0","0","43973","","null","","","null","23","","","","","","","","","","","","","","","NaN",""
"","S1","","html-keyboard-response","160","314935","0.0-1.0-218.0","0","0","43973","","null","","","null","24","","","","","","","","","","","","","","","",""
"","ISI","","html-keyboard-response","161","315438","0.0-1.0-219.0","0","0","43973","","null","","","null","24","NaN","","","","","","","","","","","","","","",""
"","S2","","html-keyboard-response","162","315694","0.0-1.0-220.0","0","0","43973","","null","","","null","24","","NaN","","","","","","","","","","","","","",""
"","response","","html-keyboard-response","163","316988","0.0-1.0-221.0-0.0","0","0","43973","","1292","","","68","24","","","1","24","training","adjacent","FG","6","7","L.jpg","Q.jpg","0","1","0","",""
"","feedback","","html-keyboard-response","164","317990","0.0-1.0-222.0-0.0","0","0","43973","","null","","","null","24","","","","","","","","","","","","","","","",""
"","time_out","","html-keyboard-response","165","319999","0.0-1.0-224.0-0.0","0","0","43973","","null","","","null","24","","","","","","","","","","","","","","","",""
"","ITI","","html-keyboard-response","166","321007","0.0-1.0-225.0","0","0","43973","","null","","","null","24","","","","","","","","","","","","","","","NaN",""
"","S1","","html-keyboard-response","167","321263","0.0-1.0-227.0","0","0","43973","","null","","","null","25","","","","","","","","","","","","","","","",""
"","ISI","","html-keyboard-response","168","321767","0.0-1.0-228.0","0","0","43973","","null","","","null","25","NaN","","","","","","","","","","","","","","",""
"","S2","","html-keyboard-response","169","322023","0.0-1.0-229.0","0","0","43973","","null","","","null","25","","NaN","","","","","","","","","","","","","",""
"","response","","html-keyboard-response","170","322412","0.0-1.0-230.0-0.0","0","0","43973","","388","","","75","25","","","1","25","training","adjacent","GF","7","6","Q.jpg","L.jpg","1","0","0","",""
"","feedback","","html-keyboard-response","171","323414","0.0-1.0-231.0-0.0","0","0","43973","","null","","","null","25","","","","","","","","","","","","","","","",""
"","time_out","","html-keyboard-response","172","325423","0.0-1.0-233.0-0.0","0","0","43973","","null","","","null","25","","","","","","","","","","","","","","","",""
"","ITI","","html-keyboard-response","173","326431","0.0-1.0-234.0","0","0","43973","","43","","","68","25","","","","","","","","","","","","","","","d",""
"","S1","","html-keyboard-response","174","326687","0.0-1.0-236.0","0","0","43973","","null","","","null","26","","","","","","","","","","","","","","","",""
"","ISI","","html-keyboard-response","175","327190","0.0-1.0-237.0","0","0","43973","","92","","","68","26","d","","","","","","","","","","","","","","",""
"","S2","","html-keyboard-response","176","327212","0.0-1.0-238.0","0","0","43973","","20","","","68","26","","d","1","26","training","adjacent","DC","4","3","R.jpg","O.jpg","0","0","1","",""
"","feedback","","html-keyboard-response","177","328214","0.0-1.0-240.0-0.0","0","0","43973","","null","","","null","26","","","","","","","","","","","","","","","",""
"","ITI","","html-keyboard-response","178","329223","0.0-1.0-243.0","0","0","43973","","174","","","75","26","","","","","","","","","","","","","","","k",""
"","S1","","html-keyboard-response","179","329478","0.0-1.0-245.0","0","0","43973","","null","","","null","27","","","","","","","","","","","","","","","",""
"","ISI","","html-keyboard-response","180","329982","0.0-1.0-246.0","0","0","43973","","68","","","75","27","k","","","","","","","","","","","","","","",""
"","S2","","html-keyboard-response","181","330076","0.0-1.0-247.0","0","0","43973","","93","","","68","27","","d","1","27","training","adjacent","FE","6","5","L.jpg","N.jpg","0","0","1","",""
"","feedback","","html-keyboard-response","182","331078","0.0-1.0-249.0-0.0","0","0","43973","","null","","","null","27","","","","","","","","","","","","","","","",""
"","ITI","","html-keyboard-response","183","332086","0.0-1.0-252.0","0","0","43973","","null","","","null","27","","","","","","","","","","","","","","","NaN",""
"","S1","","html-keyboard-response","184","332343","0.0-1.0-254.0","0","0","43973","","null","","","null","28","","","","","","","","","","","","","","","",""
"","ISI","","html-keyboard-response","185","332846","0.0-1.0-255.0","0","0","43973","","null","","","null","28","NaN","","","","","","","","","","","","","","",""
"","S2","","html-keyboard-response","186","333102","0.0-1.0-256.0","0","0","43973","","null","","","null","28","","NaN","","","","","","","","","","","","","",""
"","response","","html-keyboard-response","187","333761","0.0-1.0-257.0-0.0","0","0","43973","","658","","","75","28","","","1","28","training","adjacent","DC","4","3","R.jpg","O.jpg","1","0","0","",""
"","feedback","","html-keyboard-response","188","334767","0.0-1.0-258.0-0.0","0","0","43973","","null","","","null","28","","","","","","","","","","","","","","","",""
"","time_out","","html-keyboard-response","189","336774","0.0-1.0-260.0-0.0","0","0","43973","","null","","","null","28","","","","","","","","","","","","","","","",""
"","ITI","","html-keyboard-response","190","337783","0.0-1.0-261.0","0","0","43973","","null","","","null","28","","","","","","","","","","","","","","","NaN",""
"","S1","","html-keyboard-response","191","338038","0.0-1.0-263.0","0","0","43973","","null","","","null","29","","","","","","","","","","","","","","","",""
"","ISI","","html-keyboard-response","192","338557","0.0-1.0-264.0","0","0","43973","","null","","","null","29","NaN","","","","","","","","","","","","","","",""
"","S2","","html-keyboard-response","193","338814","0.0-1.0-265.0","0","0","43973","","null","","","null","29","","NaN","","","","","","","","","","","","","",""
"","response","","html-keyboard-response","194","339358","0.0-1.0-266.0-0.0","0","0","43973","","541","","","75","29","","","1","29","training","adjacent","BC","2","3","P.jpg","O.jpg","1","1","1","",""
"","feedback","","html-keyboard-response","195","340367","0.0-1.0-267.0-0.0","0","0","43973","","null","","","null","29","","","","","","","","","","","","","","","",""
"","ITI","","html-keyboard-response","196","341374","0.0-1.0-270.0","0","0","43973","","null","","","null","29","","","","","","","","","","","","","","","NaN",""
"","S1","","html-keyboard-response","197","341632","0.0-1.0-272.0","0","0","43973","","null","","","null","30","","","","","","","","","","","","","","","",""
"","ISI","","html-keyboard-response","198","342135","0.0-1.0-273.0","0","0","43973","","null","","","null","30","NaN","","","","","","","","","","","","","","",""
"","S2","","html-keyboard-response","199","342391","0.0-1.0-274.0","0","0","43973","","null","","","null","30","","NaN","","","","","","","","","","","","","",""
"","response","","html-keyboard-response","200","343075","0.0-1.0-275.0-0.0","0","0","43973","","683","","","75","30","","","1","30","training","adjacent","DE","4","5","R.jpg","N.jpg","1","1","1","",""
"","feedback","","html-keyboard-response","201","344078","0.0-1.0-276.0-0.0","0","0","43973","","null","","","null","30","","","","","","","","","","","","","","","",""
"","ITI","","html-keyboard-response","202","345087","0.0-1.0-279.0","0","0","43973","","null","","","null","30","","","","","","","","","","","","","","","NaN",""
"","S1","","html-keyboard-response","203","345353","0.0-1.0-281.0","0","0","43973","","null","","","null","31","","","","","","","","","","","","","","","",""
"","ISI","","html-keyboard-response","204","345862","0.0-1.0-282.0","0","0","43973","","null","","","null","31","NaN","","","","","","","","","","","","","","",""
"","S2","","html-keyboard-response","205","346118","0.0-1.0-283.0","0","0","43973","","null","","","null","31","","NaN","","","","","","","","","","","","","",""
"","response","","html-keyboard-response","206","346669","0.0-1.0-284.0-0.0","0","0","43973","","549","","","68","31","","","1","31","training","adjacent","EF","5","6","N.jpg","L.jpg","0","1","0","",""
"","feedback","","html-keyboard-response","207","347672","0.0-1.0-285.0-0.0","0","0","43973","","null","","","null","31","","","","","","","","","","","","","","","",""
"","time_out","","html-keyboard-response","208","349677","0.0-1.0-287.0-0.0","0","0","43973","","null","","","null","31","","","","","","","","","","","","","","","",""
"","ITI","","html-keyboard-response","209","350679","0.0-1.0-288.0","0","0","43973","","null","","","null","31","","","","","","","","","","","","","","","NaN",""
"","S1","","html-keyboard-response","210","350935","0.0-1.0-290.0","0","0","43973","","null","","","null","32","","","","","","","","","","","","","","","",""
"","ISI","","html-keyboard-response","211","351438","0.0-1.0-291.0","0","0","43973","","null","","","null","32","NaN","","","","","","","","","","","","","","",""
"","S2","","html-keyboard-response","212","351694","0.0-1.0-292.0","0","0","43973","","null","","","null","32","","NaN","","","","","","","","","","","","","",""
"","response","","html-keyboard-response","213","352436","0.0-1.0-293.0-0.0","0","0","43973","","740","","","75","32","","","1","32","training","adjacent","BC","2","3","P.jpg","O.jpg","1","1","1","",""
"","feedback","","html-keyboard-response","214","353438","0.0-1.0-294.0-0.0","0","0","43973","","null","","","null","32","","","","","","","","","","","","","","","",""
"","ITI","","html-keyboard-response","215","354446","0.0-1.0-297.0","0","0","43973","","null","","","null","32","","","","","","","","","","","","","","","NaN",""
"","S1","","html-keyboard-response","216","354702","0.0-1.0-299.0","0","0","43973","","null","","","null","33","","","","","","","","","","","","","","","",""
"","ISI","","html-keyboard-response","217","355206","0.0-1.0-300.0","0","0","43973","","null","","","null","33","NaN","","","","","","","","","","","","","","",""
"","S2","","html-keyboard-response","218","355463","0.0-1.0-301.0","0","0","43973","","null","","","null","33","","NaN","","","","","","","","","","","","","",""
"","response","","html-keyboard-response","219","356251","0.0-1.0-302.0-0.0","0","0","43973","","786","","","75","33","","","1","33","training","adjacent","FG","6","7","L.jpg","Q.jpg","1","1","1","",""
"","feedback","","html-keyboard-response","220","357254","0.0-1.0-303.0-0.0","0","0","43973","","null","","","null","33","","","","","","","","","","","","","","","",""
"","ITI","","html-keyboard-response","221","358263","0.0-1.0-306.0","0","0","43973","","null","","","null","33","","","","","","","","","","","","","","","NaN",""
"","S1","","html-keyboard-response","222","358517","0.0-1.0-308.0","0","0","43973","","null","","","null","34","","","","","","","","","","","","","","","",""
"","ISI","","html-keyboard-response","223","359021","0.0-1.0-309.0","0","0","43973","","null","","","null","34","NaN","","","","","","","","","","","","","","",""
"","S2","","html-keyboard-response","224","359278","0.0-1.0-310.0","0","0","43973","","null","","","null","34","","NaN","","","","","","","","","","","","","",""
"","response","","html-keyboard-response","225","360509","0.0-1.0-311.0-0.0","0","0","43973","","1230","","","68","34","","","1","34","training","adjacent","FE","6","5","L.jpg","N.jpg","0","0","1","",""
"","feedback","","html-keyboard-response","226","361519","0.0-1.0-312.0-0.0","0","0","43973","","null","","","null","34","","","","","","","","","","","","","","","",""
"","ITI","","html-keyboard-response","227","362526","0.0-1.0-315.0","0","0","43973","","null","","","null","34","","","","","","","","","","","","","","","NaN",""
"","S1","","html-keyboard-response","228","362782","0.0-1.0-317.0","0","0","43973","","null","","","null","35","","","","","","","","","","","","","","","",""
"","ISI","","html-keyboard-response","229","363287","0.0-1.0-318.0","0","0","43973","","null","","","null","35","NaN","","","","","","","","","","","","","","",""
"","S2","","html-keyboard-response","230","363542","0.0-1.0-319.0","0","0","43973","","null","","","null","35","","NaN","","","","","","","","","","","","","",""
"","response","","html-keyboard-response","231","363828","0.0-1.0-320.0-0.0","0","0","43973","","285","","","68","35","","","1","35","training","adjacent","CD","3","4","O.jpg","R.jpg","0","1","0","",""
"","feedback","","html-keyboard-response","232","364830","0.0-1.0-321.0-0.0","0","0","43973","","null","","","null","35","","","","","","","","","","","","","","","",""
"","time_out","","html-keyboard-response","233","366838","0.0-1.0-323.0-0.0","0","0","43973","","null","","","null","35","","","","","","","","","","","","","","","",""
"","ITI","","html-keyboard-response","234","367847","0.0-1.0-324.0","0","0","43973","","null","","","null","35","","","","","","","","","","","","","","","NaN",""
"","S1","","html-keyboard-response","235","368102","0.0-1.0-326.0","0","0","43973","","null","","","null","36","","","","","","","","","","","","","","","",""
"","ISI","","html-keyboard-response","236","368606","0.0-1.0-327.0","0","0","43973","","270","","","75","36","k","","","","","","","","","","","","","","",""
"","S2","","html-keyboard-response","237","368862","0.0-1.0-328.0","0","0","43973","","null","","","null","36","","NaN","","","","","","","","","","","","","",""
"","response","","html-keyboard-response","238","369532","0.0-1.0-329.0-0.0","0","0","43973","","669","","","75","36","","","1","36","training","adjacent","DE","4","5","R.jpg","N.jpg","1","1","1","",""
"","feedback","","html-keyboard-response","239","370535","0.0-1.0-330.0-0.0","0","0","43973","","null","","","null","36","","","","","","","","","","","","","","","",""
"","ITI","","html-keyboard-response","240","371542","0.0-1.0-333.0","0","0","43973","","null","","","null","36","","","","","","","","","","","","","","","NaN",""
"","S1","","html-keyboard-response","241","371798","0.0-1.0-335.0","0","0","43973","","null","","","null","37","","","","","","","","","","","","","","","",""
"","ISI","","html-keyboard-response","242","372304","0.0-1.0-336.0","0","0","43973","","null","","","null","37","NaN","","","","","","","","","","","","","","",""
"","S2","","html-keyboard-response","243","372559","0.0-1.0-337.0","0","0","43973","","null","","","null","37","","NaN","","","","","","","","","","","","","",""
"","response","","html-keyboard-response","244","373276","0.0-1.0-338.0-0.0","0","0","43973","","716","","","68","37","","","1","37","training","adjacent","ED","5","4","N.jpg","R.jpg","0","0","1","",""
"","feedback","","html-keyboard-response","245","374278","0.0-1.0-339.0-0.0","0","0","43973","","null","","","null","37","","","","","","","","","","","","","","","",""
"","ITI","","html-keyboard-response","246","375286","0.0-1.0-342.0","0","0","43973","","null","","","null","37","","","","","","","","","","","","","","","NaN",""
"","S1","","html-keyboard-response","247","375543","0.0-1.0-344.0","0","0","43973","","null","","","null","38","","","","","","","","","","","","","","","",""
"","ISI","","html-keyboard-response","248","376047","0.0-1.0-345.0","0","0","43973","","null","","","null","38","NaN","","","","","","","","","","","","","","",""
"","S2","","html-keyboard-response","249","376318","0.0-1.0-346.0","0","0","43973","","null","","","null","38","","NaN","","","","","","","","","","","","","",""
"","response","","html-keyboard-response","250","377060","0.0-1.0-347.0-0.0","0","0","43973","","741","","","75","38","","","1","38","training","adjacent","BA","2","1","P.jpg","M.jpg","1","0","0","",""
"","feedback","","html-keyboard-response","251","378062","0.0-1.0-348.0-0.0","0","0","43973","","null","","","null","38","","","","","","","","","","","","","","","",""
"","time_out","","html-keyboard-response","252","380071","0.0-1.0-350.0-0.0","0","0","43973","","null","","","null","38","","","","","","","","","","","","","","","",""
"","ITI","","html-keyboard-response","253","381079","0.0-1.0-351.0","0","0","43973","","null","","","null","38","","","","","","","","","","","","","","","NaN",""
"","S1","","html-keyboard-response","254","381335","0.0-1.0-353.0","0","0","43973","","null","","","null","39","","","","","","","","","","","","","","","",""
"","ISI","","html-keyboard-response","255","381840","0.0-1.0-354.0","0","0","43973","","397","","","75","39","k","","","","","","","","","","","","","","",""
"","S2","","html-keyboard-response","256","382095","0.0-1.0-355.0","0","0","43973","","null","","","null","39","","NaN","","","","","","","","","","","","","",""
"","response","","html-keyboard-response","257","383854","0.0-1.0-356.0-0.0","0","0","43973","","null","","","null","39","","","1","39","training","adjacent","BA","2","1","P.jpg","M.jpg","NaN","0","0","",""
"","too_slow_prompt","","html-keyboard-response","258","384862","0.0-1.0-358.0-0.0","1","0","43973","","null","","","null","","","","","","","","","","","","","","","","",""
"","time_out","","html-keyboard-response","259","386870","0.0-1.0-359.0-0.0","0","0","43973","","null","","","null","39","","","","","","","","","","","","","","","",""
"","ITI","","html-keyboard-response","260","387879","0.0-1.0-360.0","0","0","43973","","83","","","75","39","","","","","","","","","","","","","","","k",""
"","S1","","html-keyboard-response","261","388134","0.0-1.0-362.0","0","0","43973","","null","","","null","40","","","","","","","","","","","","","","","",""
"","ISI","","html-keyboard-response","262","388639","0.0-1.0-363.0","0","0","43973","","52","","","75","40","k","","","","","","","","","","","","","","",""
"","S2","","html-keyboard-response","263","388894","0.0-1.0-364.0","0","0","43973","","null","","","null","40","","NaN","","","","","","","","","","","","","",""
"","response","","html-keyboard-response","264","389004","0.0-1.0-365.0-0.0","0","0","43973","","109","","","75","40","","","1","40","training","adjacent","GF","7","6","Q.jpg","L.jpg","1","0","0","",""
"","feedback","","html-keyboard-response","265","390015","0.0-1.0-366.0-0.0","0","0","43973","","null","","","null","40","","","","","","","","","","","","","","","",""
"","time_out","","html-keyboard-response","266","392022","0.0-1.0-368.0-0.0","0","0","43973","","null","","","null","40","","","","","","","","","","","","","","","",""
"","ITI","","html-keyboard-response","267","393030","0.0-1.0-369.0","0","0","43973","","318","","","75","40","","","","","","","","","","","","","","","k",""
"","S1","","html-keyboard-response","268","393288","0.0-1.0-371.0","0","0","43973","","null","","","null","41","","","","","","","","","","","","","","","",""
"","ISI","","html-keyboard-response","269","393791","0.0-1.0-372.0","0","0","43973","","402","","","75","41","k","","","","","","","","","","","","","","",""
"","S2","","html-keyboard-response","270","394047","0.0-1.0-373.0","0","0","43973","","null","","","null","41","","NaN","","","","","","","","","","","","","",""
"","response","","html-keyboard-response","271","394155","0.0-1.0-374.0-0.0","0","0","43973","","107","","","75","41","","","1","41","training","adjacent","DC","4","3","R.jpg","O.jpg","1","0","0","",""
"","feedback","","html-keyboard-response","272","395185","0.0-1.0-375.0-0.0","0","0","43973","","null","","","null","41","","","","","","","","","","","","","","","",""
"","time_out","","html-keyboard-response","273","397189","0.0-1.0-377.0-0.0","0","0","43973","","null","","","null","41","","","","","","","","","","","","","","","",""
"","ITI","","html-keyboard-response","274","398198","0.0-1.0-378.0","0","0","43973","","4","","","75","41","","","","","","","","","","","","","","","k",""
"","S1","","html-keyboard-response","275","398455","0.0-1.0-380.0","0","0","43973","","null","","","null","42","","","","","","","","","","","","","","","",""
"","ISI","","html-keyboard-response","276","398960","0.0-1.0-381.0","0","0","43973","","372","","","75","42","k","","","","","","","","","","","","","","",""
"","S2","","html-keyboard-response","277","399213","0.0-1.0-382.0","0","0","43973","","null","","","null","42","","NaN","","","","","","","","","","","","","",""
"","response","","html-keyboard-response","278","399227","0.0-1.0-383.0-0.0","0","0","43973","","14","","","75","42","","","1","42","training","adjacent","AB","1","2","M.jpg","P.jpg","1","1","1","",""
"","feedback","","html-keyboard-response","279","400235","0.0-1.0-384.0-0.0","0","0","43973","","null","","","null","42","","","","","","","","","","","","","","","",""
"","ITI","","html-keyboard-response","280","401238","0.0-1.0-387.0","0","0","43973","","200","","","75","42","","","","","","","","","","","","","","","k",""
"","S1","","html-keyboard-response","281","401496","0.0-1.0-389.0","0","0","43973","","null","","","null","43","","","","","","","","","","","","","","","",""
"","ISI","","html-keyboard-response","282","401999","0.0-1.0-390.0","0","0","43973","","83","","","75","43","k","","","","","","","","","","","","","","",""
"","S2","","html-keyboard-response","283","402255","0.0-1.0-391.0","0","0","43973","","null","","","null","43","","NaN","","","","","","","","","","","","","",""
"","response","","html-keyboard-response","284","402404","0.0-1.0-392.0-0.0","0","0","43973","","147","","","75","43","","","1","43","training","adjacent","GF","7","6","Q.jpg","L.jpg","1","0","0","",""
"","feedback","","html-keyboard-response","285","403405","0.0-1.0-393.0-0.0","0","0","43973","","null","","","null","43","","","","","","","","","","","","","","","",""
"","time_out","","html-keyboard-response","286","405415","0.0-1.0-395.0-0.0","0","0","43973","","null","","","null","43","","","","","","","","","","","","","","","",""
"","ITI","","html-keyboard-response","287","406422","0.0-1.0-396.0","0","0","43973","","301","","","75","43","","","","","","","","","","","","","","","k",""
"","S1","","html-keyboard-response","288","406679","0.0-1.0-398.0","0","0","43973","","null","","","null","44","","","","","","","","","","","","","","","",""
"","ISI","","html-keyboard-response","289","407183","0.0-1.0-399.0","0","0","43973","","37","","","75","44","k","","","","","","","","","","","","","","",""
"","S2","","html-keyboard-response","290","407438","0.0-1.0-400.0","0","0","43973","","null","","","null","44","","NaN","","","","","","","","","","","","","",""
"","response","","html-keyboard-response","291","407515","0.0-1.0-401.0-0.0","0","0","43973","","76","","","75","44","","","1","44","training","adjacent","BA","2","1","P.jpg","M.jpg","1","0","0","",""
"","feedback","","html-keyboard-response","292","408518","0.0-1.0-402.0-0.0","0","0","43973","","null","","","null","44","","","","","","","","","","","","","","","",""
"","time_out","","html-keyboard-response","293","410527","0.0-1.0-404.0-0.0","0","0","43973","","null","","","null","44","","","","","","","","","","","","","","","",""
"","ITI","","html-keyboard-response","294","411534","0.0-1.0-405.0","0","0","43973","","379","","","75","44","","","","","","","","","","","","","","","k",""
"","S1","","html-keyboard-response","295","411790","0.0-1.0-407.0","0","0","43973","","null","","","null","45","","","","","","","","","","","","","","","",""
"","ISI","","html-keyboard-response","296","412315","0.0-1.0-408.0","0","0","43973","","371","","","75","45","k","","","","","","","","","","","","","","",""
"","S2","","html-keyboard-response","297","412574","0.0-1.0-409.0","0","0","43973","","null","","","null","45","","NaN","","","","","","","","","","","","","",""
"","response","","html-keyboard-response","298","412620","0.0-1.0-410.0-0.0","0","0","43973","","45","","","75","45","","","1","45","training","adjacent","ED","5","4","N.jpg","R.jpg","1","0","0","",""
"","feedback","","html-keyboard-response","299","413623","0.0-1.0-411.0-0.0","0","0","43973","","null","","","null","45","","","","","","","","","","","","","","","",""
"","time_out","","html-keyboard-response","300","415631","0.0-1.0-413.0-0.0","0","0","43973","","null","","","null","45","","","","","","","","","","","","","","","",""
"","ITI","","html-keyboard-response","301","416639","0.0-1.0-414.0","0","0","43973","","195","","","75","45","","","","","","","","","","","","","","","k",""
"","S1","","html-keyboard-response","302","416894","0.0-1.0-416.0","0","0","43973","","null","","","null","46","","","","","","","","","","","","","","","",""
"","ISI","","html-keyboard-response","303","417398","0.0-1.0-417.0","0","0","43973","","381","","","75","46","k","","","","","","","","","","","","","","",""
"","S2","","html-keyboard-response","304","417654","0.0-1.0-418.0","0","0","43973","","null","","","null","46","","NaN","","","","","","","","","","","","","",""
"","response","","html-keyboard-response","305","417668","0.0-1.0-419.0-0.0","0","0","43973","","13","","","75","46","","","1","46","training","adjacent","CD","3","4","O.jpg","R.jpg","1","1","1","",""
"","feedback","","html-keyboard-response","306","418671","0.0-1.0-420.0-0.0","0","0","43973","","null","","","null","46","","","","","","","","","","","","","","","",""
"","ITI","","html-keyboard-response","307","419679","0.0-1.0-423.0","0","0","43973","","421","","","75","46","","","","","","","","","","","","","","","k",""
"","S1","","html-keyboard-response","308","419934","0.0-1.0-425.0","0","0","43973","","null","","","null","47","","","","","","","","","","","","","","","",""
"","ISI","","html-keyboard-response","309","420438","0.0-1.0-426.0","0","0","43973","","53","","","75","47","k","","","","","","","","","","","","","","",""
"","S2","","html-keyboard-response","310","420695","0.0-1.0-427.0","0","0","43973","","null","","","null","47","","NaN","","","","","","","","","","","","","",""
"","response","","html-keyboard-response","311","420957","0.0-1.0-428.0-0.0","0","0","43973","","260","","","75","47","","","1","47","training","adjacent","FG","6","7","L.jpg","Q.jpg","1","1","1","",""
"","feedback","","html-keyboard-response","312","421966","0.0-1.0-429.0-0.0","0","0","43973","","null","","","null","47","","","","","","","","","","","","","","","",""
"","ITI","","html-keyboard-response","313","422977","0.0-1.0-432.0","0","0","43973","","493","","","75","47","","","","","","","","","","","","","","","k",""
"","block_over","","html-keyboard-response","314","431430","0.0-1.0-433.0-0.0","0","0","43973","","8450","","","32","47","","","","","","","","","","","","","","","",""
"","S1","","html-keyboard-response","315","431686","0.0-1.0-434.0","0","0","43973","","null","","","null","48","","","","","","","","","","","","","","","",""
"","ISI","","html-keyboard-response","316","432190","0.0-1.0-435.0","0","0","43973","","null","","","null","48","NaN","","","","","","","","","","","","","","",""
"","S2","","html-keyboard-response","317","432447","0.0-1.0-436.0","0","0","43973","","null","","","null","48","","NaN","","","","","","","","","","","","","",""
"","response","","html-keyboard-response","318","432901","0.0-1.0-437.0-0.0","0","0","43973","","453","","","75","48","","","2","48","training","adjacent","FE","6","5","L.jpg","N.jpg","1","0","0","",""
"","feedback","","html-keyboard-response","319","433912","0.0-1.0-438.0-0.0","0","0","43973","","null","","","null","48","","","","","","","","","","","","","","","",""
"","time_out","","html-keyboard-response","320","435918","0.0-1.0-440.0-0.0","0","0","43973","","null","","","null","48","","","","","","","","","","","","","","","",""
"","ITI","","html-keyboard-response","321","436926","0.0-1.0-441.0","0","0","43973","","31","","","75","48","","","","","","","","","","","","","","","k",""
"","S1","","html-keyboard-response","322","437182","0.0-1.0-443.0","0","0","43973","","null","","","null","49","","","","","","","","","","","","","","","",""
"","ISI","","html-keyboard-response","323","437686","0.0-1.0-444.0","0","0","43973","","325","","","75","49","k","","","","","","","","","","","","","","",""
"","S2","","html-keyboard-response","324","437877","0.0-1.0-445.0","0","0","43973","","190","","","75","49","","k","2","49","training","adjacent","BA","2","1","P.jpg","M.jpg","1","0","0","",""
"","feedback","","html-keyboard-response","325","438887","0.0-1.0-447.0-0.0","0","0","43973","","null","","","null","49","","","","","","","","","","","","","","","",""
"","time_out","","html-keyboard-response","326","440895","0.0-1.0-449.0-0.0","0","0","43973","","null","","","null","49","","","","","","","","","","","","","","","",""
"","ITI","","html-keyboard-response","327","441902","0.0-1.0-450.0","0","0","43973","","264","","","75","49","","","","","","","","","","","","","","","k",""
"","S1","","html-keyboard-response","328","442157","0.0-1.0-452.0","0","0","43973","","null","","","null","50","","","","","","","","","","","","","","","",""
"","ISI","","html-keyboard-response","329","442663","0.0-1.0-453.0","0","0","43973","","124","","","75","50","k","","","","","","","","","","","","","","",""
"","S2","","html-keyboard-response","330","442703","0.0-1.0-454.0","0","0","43973","","38","","","75","50","","k","2","50","training","adjacent","AB","1","2","M.jpg","P.jpg","1","1","1","",""
"","feedback","","html-keyboard-response","331","443711","0.0-1.0-456.0-0.0","0","0","43973","","null","","","null","50","","","","","","","","","","","","","","","",""
"","ITI","","html-keyboard-response","332","444718","0.0-1.0-459.0","0","0","43973","","252","","","75","50","","","","","","","","","","","","","","","k",""
"","S1","","html-keyboard-response","333","444974","0.0-1.0-461.0","0","0","43973","","null","","","null","51","","","","","","","","","","","","","","","",""
"","ISI","","html-keyboard-response","334","445477","0.0-1.0-462.0","0","0","43973","","49","","","75","51","k","","","","","","","","","","","","","","",""
"","S2","","html-keyboard-response","335","445733","0.0-1.0-463.0","0","0","43973","","null","","","null","51","","NaN","","","","","","","","","","","","","",""
"","response","","html-keyboard-response","336","445772","0.0-1.0-464.0-0.0","0","0","43973","","36","","","75","51","","","2","51","training","adjacent","BC","2","3","P.jpg","O.jpg","1","1","1","",""
"","feedback","","html-keyboard-response","337","446781","0.0-1.0-465.0-0.0","0","0","43973","","null","","","null","51","","","","","","","","","","","","","","","",""
"","ITI","","html-keyboard-response","338","447789","0.0-1.0-468.0","0","0","43973","","244","","","75","51","","","","","","","","","","","","","","","k",""
"","S1","","html-keyboard-response","339","448046","0.0-1.0-470.0","0","0","43973","","null","","","null","52","","","","","","","","","","","","","","","",""
"","ISI","","html-keyboard-response","340","448550","0.0-1.0-471.0","0","0","43973","","236","","","75","52","k","","","","","","","","","","","","","","",""
"","S2","","html-keyboard-response","341","448699","0.0-1.0-472.0","0","0","43973","","148","","","75","52","","k","2","52","training","adjacent","GF","7","6","Q.jpg","L.jpg","1","0","0","",""
"","feedback","","html-keyboard-response","342","449701","0.0-1.0-474.0-0.0","0","0","43973","","null","","","null","52","","","","","","","","","","","","","","","",""
"","time_out","","html-keyboard-response","343","451709","0.0-1.0-476.0-0.0","0","0","43973","","null","","","null","52","","","","","","","","","","","","","","","",""
"","ITI","","html-keyboard-response","344","452718","0.0-1.0-477.0","0","0","43973","","284","","","75","52","","","","","","","","","","","","","","","k",""
"","S1","","html-keyboard-response","345","452974","0.0-1.0-479.0","0","0","43973","","null","","","null","53","","","","","","","","","","","","","","","",""
"","ISI","","html-keyboard-response","346","453479","0.0-1.0-480.0","0","0","43973","","236","","","75","53","k","","","","","","","","","","","","","","",""
"","S2","","html-keyboard-response","347","453611","0.0-1.0-481.0","0","0","43973","","130","","","75","53","","k","2","53","training","adjacent","FE","6","5","L.jpg","N.jpg","1","0","0","",""
"","feedback","","html-keyboard-response","348","454614","0.0-1.0-483.0-0.0","0","0","43973","","null","","","null","53","","","","","","","","","","","","","","","",""
"","time_out","","html-keyboard-response","349","456622","0.0-1.0-485.0-0.0","0","0","43973","","null","","","null","53","","","","","","","","","","","","","","","",""
"","ITI","","html-keyboard-response","350","457631","0.0-1.0-486.0","0","0","43973","","300","","","75","53","","","","","","","","","","","","","","","k",""
"","S1","","html-keyboard-response","351","457886","0.0-1.0-488.0","0","0","43973","","null","","","null","54","","","","","","","","","","","","","","","",""
"","ISI","","html-keyboard-response","352","458389","0.0-1.0-489.0","0","0","43973","","331","","","75","54","k","","","","","","","","","","","","","","",""
"","S2","","html-keyboard-response","353","458620","0.0-1.0-490.0","0","0","43973","","230","","","75","54","","k","2","54","training","adjacent","ED","5","4","N.jpg","R.jpg","1","0","0","",""
"","feedback","","html-keyboard-response","354","459631","0.0-1.0-492.0-0.0","0","0","43973","","null","","","null","54","","","","","","","","","","","","","","","",""
"","time_out","","html-keyboard-response","355","461638","0.0-1.0-494.0-0.0","0","0","43973","","null","","","null","54","","","","","","","","","","","","","","","",""
"","ITI","","html-keyboard-response","356","462645","0.0-1.0-495.0","0","0","43973","","187","","","75","54","","","","","","","","","","","","","","","k",""
"","S1","","html-keyboard-response","357","462902","0.0-1.0-497.0","0","0","43973","","null","","","null","55","","","","","","","","","","","","","","","",""
"","ISI","","html-keyboard-response","358","463404","0.0-1.0-498.0","0","0","43973","","156","","","75","55","k","","","","","","","","","","","","","","",""
"","S2","","html-keyboard-response","359","463410","0.0-1.0-499.0","0","0","43973","","4","","","75","55","","k","2","55","training","adjacent","ED","5","4","N.jpg","R.jpg","1","0","0","",""
"","feedback","","html-keyboard-response","360","464413","0.0-1.0-501.0-0.0","0","0","43973","","null","","","null","55","","","","","","","","","","","","","","","",""
"","time_out","","html-keyboard-response","361","466422","0.0-1.0-503.0-0.0","0","0","43973","","null","","","null","55","","","","","","","","","","","","","","","",""
"","ITI","","html-keyboard-response","362","467430","0.0-1.0-504.0","0","0","43973","","220","","","75","55","","","","","","","","","","","","","","","k",""
"","S1","","html-keyboard-response","363","467685","0.0-1.0-506.0","0","0","43973","","null","","","null","56","","","","","","","","","","","","","","","",""
"","ISI","","html-keyboard-response","364","468189","0.0-1.0-507.0","0","0","43973","","102","","","75","56","k","","","","","","","","","","","","","","",""
"","S2","","html-keyboard-response","365","468445","0.0-1.0-508.0","0","0","43973","","null","","","null","56","","NaN","","","","","","","","","","","","","",""
"","response","","html-keyboard-response","366","468453","0.0-1.0-509.0-0.0","0","0","43973","","6","","","75","56","","","2","56","training","adjacent","CD","3","4","O.jpg","R.jpg","1","1","1","",""
"","feedback","","html-keyboard-response","367","469462","0.0-1.0-510.0-0.0","0","0","43973","","null","","","null","56","","","","","","","","","","","","","","","",""
"","ITI","","html-keyboard-response","368","470469","0.0-1.0-513.0","0","0","43973","","227","","","75","56","","","","","","","","","","","","","","","k",""
"","S1","","html-keyboard-response","369","470725","0.0-1.0-515.0","0","0","43973","","null","","","null","57","","","","","","","","","","","","","","","",""
"","ISI","","html-keyboard-response","370","471229","0.0-1.0-516.0","0","0","43973","","141","","","75","57","k","","","","","","","","","","","","","","",""
"","S2","","html-keyboard-response","371","471485","0.0-1.0-517.0","0","0","43973","","null","","","null","57","","NaN","","","","","","","","","","","","","",""
"","response","","html-keyboard-response","372","471496","0.0-1.0-518.0-0.0","0","0","43973","","9","","","75","57","","","2","57","training","adjacent","FG","6","7","L.jpg","Q.jpg","1","1","1","",""
"","feedback","","html-keyboard-response","373","472501","0.0-1.0-519.0-0.0","0","0","43973","","null","","","null","57","","","","","","","","","","","","","","","",""
"","ITI","","html-keyboard-response","374","473510","0.0-1.0-522.0","0","0","43973","","61","","","75","57","","","","","","","","","","","","","","","k",""
"","S1","","html-keyboard-response","375","473766","0.0-1.0-524.0","0","0","43973","","null","","","null","58","","","","","","","","","","","","","","","",""
"","ISI","","html-keyboard-response","376","474270","0.0-1.0-525.0","0","0","43973","","286","","","75","58","k","","","","","","","","","","","","","","",""
"","S2","","html-keyboard-response","377","474500","0.0-1.0-526.0","0","0","43973","","229","","","75","58","","k","2","58","training","adjacent","AB","1","2","M.jpg","P.jpg","1","1","1","",""
"","feedback","","html-keyboard-response","378","475510","0.0-1.0-528.0-0.0","0","0","43973","","null","","","null","58","","","","","","","","","","","","","","","",""
"","ITI","","html-keyboard-response","379","476517","0.0-1.0-531.0","0","0","43973","","157","","","75","58","","","","","","","","","","","","","","","k",""
"","S1","","html-keyboard-response","380","476773","0.0-1.0-533.0","0","0","43973","","null","","","null","59","","","","","","","","","","","","","","","",""
"","ISI","","html-keyboard-response","381","477277","0.0-1.0-534.0","0","0","43973","","125","","","75","59","k","","","","","","","","","","","","","","",""
"","S2","","html-keyboard-response","382","477533","0.0-1.0-535.0","0","0","43973","","null","","","null","59","","NaN","","","","","","","","","","","","","",""
"","response","","html-keyboard-response","383","477667","0.0-1.0-536.0-0.0","0","0","43973","","133","","","75","59","","","2","59","training","adjacent","DE","4","5","R.jpg","N.jpg","1","1","1","",""
"","feedback","","html-keyboard-response","384","478669","0.0-1.0-537.0-0.0","0","0","43973","","null","","","null","59","","","","","","","","","","","","","","","",""
"","ITI","","html-keyboard-response","385","479678","0.0-1.0-540.0","0","0","43973","","6","","","75","59","","","","","","","","","","","","","","","k",""
"","S1","","html-keyboard-response","386","479933","0.0-1.0-542.0","0","0","43973","","null","","","null","60","","","","","","","","","","","","","","","",""
"","ISI","","html-keyboard-response","387","480437","0.0-1.0-543.0","0","0","43973","","173","","","75","60","k","","","","","","","","","","","","","","",""
"","S2","","html-keyboard-response","388","480475","0.0-1.0-544.0","0","0","43973","","36","","","75","60","","k","2","60","training","adjacent","EF","5","6","N.jpg","L.jpg","1","1","1","",""
"","feedback","","html-keyboard-response","389","481477","0.0-1.0-546.0-0.0","0","0","43973","","null","","","null","60","","","","","","","","","","","","","","","",""
"","ITI","","html-keyboard-response","390","482485","0.0-1.0-549.0","0","0","43973","","182","","","75","60","","","","","","","","","","","","","","","k",""
"","S1","","html-keyboard-response","391","482742","0.0-1.0-551.0","0","0","43973","","null","","","null","61","","","","","","","","","","","","","","","",""
"","ISI","","html-keyboard-response","392","483245","0.0-1.0-552.0","0","0","43973","","null","","","null","61","NaN","","","","","","","","","","","","","","",""
"","S2","","html-keyboard-response","393","483334","0.0-1.0-553.0","0","0","43973","","87","","","75","61","","k","2","61","training","adjacent","DE","4","5","R.jpg","N.jpg","1","1","1","",""
"","feedback","","html-keyboard-response","394","484341","0.0-1.0-555.0-0.0","0","0","43973","","null","","","null","61","","","","","","","","","","","","","","","",""
"","ITI","","html-keyboard-response","395","485350","0.0-1.0-558.0","0","0","43973","","93","","","75","61","","","","","","","","","","","","","","","k",""
"","S1","","html-keyboard-response","396","485605","0.0-1.0-560.0","0","0","43973","","null","","","null","62","","","","","","","","","","","","","","","",""
"","ISI","","html-keyboard-response","397","486108","0.0-1.0-561.0","0","0","43973","","124","","","75","62","k","","","","","","","","","","","","","","",""
"","S2","","html-keyboard-response","398","486261","0.0-1.0-562.0","0","0","43973","","150","","","75","62","","k","2","62","training","adjacent","BA","2","1","P.jpg","M.jpg","1","0","0","",""
"","feedback","","html-keyboard-response","399","487270","0.0-1.0-564.0-0.0","0","0","43973","","null","","","null","62","","","","","","","","","","","","","","","",""
"","time_out","","html-keyboard-response","400","489278","0.0-1.0-566.0-0.0","0","0","43973","","null","","","null","62","","","","","","","","","","","","","","","",""
"","ITI","","html-keyboard-response","401","490287","0.0-1.0-567.0","0","0","43973","","284","","","75","62","","","","","","","","","","","","","","","k",""
"","S1","","html-keyboard-response","402","490543","0.0-1.0-569.0","0","0","43973","","null","","","null","63","","","","","","","","","","","","","","","",""
"","ISI","","html-keyboard-response","403","491046","0.0-1.0-570.0","0","0","43973","","163","","","75","63","k","","","","","","","","","","","","","","",""
"","S2","","html-keyboard-response","404","491117","0.0-1.0-571.0","0","0","43973","","70","","","75","63","","k","2","63","training","adjacent","CB","3","2","O.jpg","P.jpg","1","0","0","",""
"","feedback","","html-keyboard-response","405","492126","0.0-1.0-573.0-0.0","0","0","43973","","null","","","null","63","","","","","","","","","","","","","","","",""
"","time_out","","html-keyboard-response","406","494148","0.0-1.0-575.0-0.0","0","0","43973","","null","","","null","63","","","","","","","","","","","","","","","",""
"","ITI","","html-keyboard-response","407","495174","0.0-1.0-576.0","0","0","43973","","160","","","75","63","","","","","","","","","","","","","","","k",""
"","S1","","html-keyboard-response","408","495430","0.0-1.0-578.0","0","0","43973","","null","","","null","64","","","","","","","","","","","","","","","",""
"","ISI","","html-keyboard-response","409","495934","0.0-1.0-579.0","0","0","43973","","68","","","75","64","k","","","","","","","","","","","","","","",""
"","S2","","html-keyboard-response","410","496038","0.0-1.0-580.0","0","0","43973","","101","","","75","64","","k","2","64","training","adjacent","BA","2","1","P.jpg","M.jpg","1","0","0","",""
"","feedback","","html-keyboard-response","411","497046","0.0-1.0-582.0-0.0","0","0","43973","","null","","","null","64","","","","","","","","","","","","","","","",""
"","time_out","","html-keyboard-response","412","499060","0.0-1.0-584.0-0.0","0","0","43973","","null","","","null","64","","","","","","","","","","","","","","","",""
"","ITI","","html-keyboard-response","413","500061","0.0-1.0-585.0","0","0","43973","","257","","","75","64","","","","","","","","","","","","","","","k",""
"","S1","","html-keyboard-response","414","500319","0.0-1.0-587.0","0","0","43973","","null","","","null","65","","","","","","","","","","","","","","","",""
"","ISI","","html-keyboard-response","415","500821","0.0-1.0-588.0","0","0","43973","","180","","","75","65","k","","","","","","","","","","","","","","",""
"","S2","","html-keyboard-response","416","501068","0.0-1.0-589.0","0","0","43973","","246","","","75","65","","k","2","65","training","adjacent","AB","1","2","M.jpg","P.jpg","1","1","1","",""
"","feedback","","html-keyboard-response","417","502078","0.0-1.0-591.0-0.0","0","0","43973","","null","","","null","65","","","","","","","","","","","","","","","",""
"","ITI","","html-keyboard-response","418","503086","0.0-1.0-594.0","0","0","43973","","924","","","75","65","","","","","","","","","","","","","","","k",""
"","S1","","html-keyboard-response","419","503342","0.0-1.0-596.0","0","0","43973","","null","","","null","66","","","","","","","","","","","","","","","",""
"","ISI","","html-keyboard-response","420","503844","0.0-1.0-597.0","0","0","43973","","108","","","75","66","k","","","","","","","","","","","","","","",""
"","S2","","html-keyboard-response","421","504030","0.0-1.0-598.0","0","0","43973","","184","","","75","66","","k","2","66","training","adjacent","EF","5","6","N.jpg","L.jpg","1","1","1","",""
"","feedback","","html-keyboard-response","422","505038","0.0-1.0-600.0-0.0","0","0","43973","","null","","","null","66","","","","","","","","","","","","","","","",""
"","ITI","","html-keyboard-response","423","506047","0.0-1.0-603.0","0","0","43973","","91","","","75","66","","","","","","","","","","","","","","","k",""
"","S1","","html-keyboard-response","424","506303","0.0-1.0-605.0","0","0","43973","","null","","","null","67","","","","","","","","","","","","","","","",""
"","ISI","","html-keyboard-response","425","506806","0.0-1.0-606.0","0","0","43973","","141","","","75","67","k","","","","","","","","","","","","","","",""
"","S2","","html-keyboard-response","426","507062","0.0-1.0-607.0","0","0","43973","","254","","","75","67","","k","2","67","training","adjacent","GF","7","6","Q.jpg","L.jpg","1","0","0","",""
"","feedback","","html-keyboard-response","427","508070","0.0-1.0-609.0-0.0","0","0","43973","","null","","","null","67","","","","","","","","","","","","","","","",""
"","time_out","","html-keyboard-response","428","510078","0.0-1.0-611.0-0.0","0","0","43973","","null","","","null","67","","","","","","","","","","","","","","","",""
"","ITI","","html-keyboard-response","429","511087","0.0-1.0-612.0","0","0","43973","","46","","","75","67","","","","","","","","","","","","","","","k",""
"","S1","","html-keyboard-response","430","511343","0.0-1.0-614.0","0","0","43973","","null","","","null","68","","","","","","","","","","","","","","","",""
"","ISI","","html-keyboard-response","431","511847","0.0-1.0-615.0","0","0","43973","","261","","","75","68","k","","","","","","","","","","","","","","",""
"","S2","","html-keyboard-response","432","511860","0.0-1.0-616.0","0","0","43973","","12","","","75","68","","k","2","68","training","adjacent","DC","4","3","R.jpg","O.jpg","1","0","0","",""
"","feedback","","html-keyboard-response","433","512862","0.0-1.0-618.0-0.0","0","0","43973","","null","","","null","68","","","","","","","","","","","","","","","",""
"","time_out","","html-keyboard-response","434","514870","0.0-1.0-620.0-0.0","0","0","43973","","null","","","null","68","","","","","","","","","","","","","","","",""
"","ITI","","html-keyboard-response","435","515879","0.0-1.0-621.0","0","0","43973","","117","","","75","68","","","","","","","","","","","","","","","k",""
"","S1","","html-keyboard-response","436","516142","0.0-1.0-623.0","0","0","43973","","null","","","null","69","","","","","","","","","","","","","","","",""
"","ISI","","html-keyboard-response","437","516647","0.0-1.0-624.0","0","0","43973","","84","","","75","69","k","","","","","","","","","","","","","","",""
"","S2","","html-keyboard-response","438","516852","0.0-1.0-625.0","0","0","43973","","204","","","75","69","","k","2","69","training","adjacent","CD","3","4","O.jpg","R.jpg","1","1","1","",""
"","feedback","","html-keyboard-response","439","517854","0.0-1.0-627.0-0.0","0","0","43973","","null","","","null","69","","","","","","","","","","","","","","","",""
"","ITI","","html-keyboard-response","440","518862","0.0-1.0-630.0","0","0","43973","","110","","","75","69","","","","","","","","","","","","","","","k",""
"","S1","","html-keyboard-response","441","519118","0.0-1.0-632.0","0","0","43973","","null","","","null","70","","","","","","","","","","","","","","","",""
"","ISI","","html-keyboard-response","442","519623","0.0-1.0-633.0","0","0","43973","","270","","","75","70","k","","","","","","","","","","","","","","",""
"","S2","","html-keyboard-response","443","519669","0.0-1.0-634.0","0","0","43973","","44","","","75","70","","k","2","70","training","adjacent","DE","4","5","R.jpg","N.jpg","1","1","1","",""
"","feedback","","html-keyboard-response","444","520671","0.0-1.0-636.0-0.0","0","0","43973","","null","","","null","70","","","","","","","","","","","","","","","",""
"","ITI","","html-keyboard-response","445","521679","0.0-1.0-639.0","0","0","43973","","49","","","75","70","","","","","","","","","","","","","","","k",""
"","S1","","html-keyboard-response","446","521934","0.0-1.0-641.0","0","0","43973","","null","","","null","71","","","","","","","","","","","","","","","",""
"","ISI","","html-keyboard-response","447","522438","0.0-1.0-642.0","0","0","43973","","38","","","75","71","k","","","","","","","","","","","","","","",""
"","S2","","html-keyboard-response","448","522477","0.0-1.0-643.0","0","0","43973","","38","","","75","71","","k","2","71","training","adjacent","GF","7","6","Q.jpg","L.jpg","1","0","0","",""
"","feedback","","html-keyboard-response","449","523478","0.0-1.0-645.0-0.0","0","0","43973","","null","","","null","71","","","","","","","","","","","","","","","",""
"","time_out","","html-keyboard-response","450","525486","0.0-1.0-647.0-0.0","0","0","43973","","null","","","null","71","","","","","","","","","","","","","","","",""
"","ITI","","html-keyboard-response","451","526495","0.0-1.0-648.0","0","0","43973","","85","","","75","71","","","","","","","","","","","","","","","k",""
"","S1","","html-keyboard-response","452","526751","0.0-1.0-650.0","0","0","43973","","null","","","null","72","","","","","","","","","","","","","","","",""
"","ISI","","html-keyboard-response","453","527254","0.0-1.0-651.0","0","0","43973","","125","","","75","72","k","","","","","","","","","","","","","","",""
"","S2","","html-keyboard-response","454","527463","0.0-1.0-652.0","0","0","43973","","206","","","75","72","","k","2","72","training","adjacent","DC","4","3","R.jpg","O.jpg","1","0","0","",""
"","feedback","","html-keyboard-response","455","528471","0.0-1.0-654.0-0.0","0","0","43973","","null","","","null","72","","","","","","","","","","","","","","","",""
"","time_out","","html-keyboard-response","456","530478","0.0-1.0-656.0-0.0","0","0","43973","","null","","","null","72","","","","","","","","","","","","","","","",""
"","ITI","","html-keyboard-response","457","531486","0.0-1.0-657.0","0","0","43973","","253","","","75","72","","","","","","","","","","","","","","","k",""
"","S1","","html-keyboard-response","458","531743","0.0-1.0-659.0","0","0","43973","","null","","","null","73","","","","","","","","","","","","","","","",""
"","ISI","","html-keyboard-response","459","532247","0.0-1.0-660.0","0","0","43973","","205","","","75","73","k","","","","","","","","","","","","","","",""
"","S2","","html-keyboard-response","460","532503","0.0-1.0-661.0","0","0","43973","","null","","","null","73","","NaN","","","","","","","","","","","","","",""
"","response","","html-keyboard-response","461","532515","0.0-1.0-662.0-0.0","0","0","43973","","6","","","75","73","","","2","73","training","adjacent","CD","3","4","O.jpg","R.jpg","1","1","1","",""
"","feedback","","html-keyboard-response","462","533518","0.0-1.0-663.0-0.0","0","0","43973","","null","","","null","73","","","","","","","","","","","","","","","",""
"","ITI","","html-keyboard-response","463","534527","0.0-1.0-666.0","0","0","43973","","162","","","75","73","","","","","","","","","","","","","","","k",""
"","S1","","html-keyboard-response","464","534782","0.0-1.0-668.0","0","0","43973","","null","","","null","74","","","","","","","","","","","","","","","",""
"","ISI","","html-keyboard-response","465","535285","0.0-1.0-669.0","0","0","43973","","88","","","75","74","k","","","","","","","","","","","","","","",""
"","S2","","html-keyboard-response","466","535462","0.0-1.0-670.0","0","0","43973","","173","","","75","74","","k","2","74","training","adjacent","DC","4","3","R.jpg","O.jpg","1","0","0","",""
"","feedback","","html-keyboard-response","467","536471","0.0-1.0-672.0-0.0","0","0","43973","","null","","","null","74","","","","","","","","","","","","","","","",""
"","time_out","","html-keyboard-response","468","538478","0.0-1.0-674.0-0.0","0","0","43973","","null","","","null","74","","","","","","","","","","","","","","","",""
"","ITI","","html-keyboard-response","469","539486","0.0-1.0-675.0","0","0","43973","","83","","","75","74","","","","","","","","","","","","","","","k",""
"","S1","","html-keyboard-response","470","539744","0.0-1.0-677.0","0","0","43973","","null","","","null","75","","","","","","","","","","","","","","","",""
"","ISI","","html-keyboard-response","471","540247","0.0-1.0-678.0","0","0","43973","","290","","","75","75","k","","","","","","","","","","","","","","",""
"","S2","","html-keyboard-response","472","540404","0.0-1.0-679.0","0","0","43973","","156","","","75","75","","k","2","75","training","adjacent","CB","3","2","O.jpg","P.jpg","1","0","0","",""
"","feedback","","html-keyboard-response","473","541407","0.0-1.0-681.0-0.0","0","0","43973","","null","","","null","75","","","","","","","","","","","","","","","",""
"","time_out","","html-keyboard-response","474","543416","0.0-1.0-683.0-0.0","0","0","43973","","null","","","null","75","","","","","","","","","","","","","","","",""
"","ITI","","html-keyboard-response","475","544423","0.0-1.0-684.0","0","0","43973","","61","","","75","75","","","","","","","","","","","","","","","k",""
"","S1","","html-keyboard-response","476","544679","0.0-1.0-686.0","0","0","43973","","null","","","null","76","","","","","","","","","","","","","","","",""
"","ISI","","html-keyboard-response","477","545182","0.0-1.0-687.0","0","0","43973","","179","","","75","76","k","","","","","","","","","","","","","","",""
"","S2","","html-keyboard-response","478","545420","0.0-1.0-688.0","0","0","43973","","237","","","75","76","","k","2","76","training","adjacent","FG","6","7","L.jpg","Q.jpg","1","1","1","",""
"","feedback","","html-keyboard-response","479","546423","0.0-1.0-690.0-0.0","0","0","43973","","null","","","null","76","","","","","","","","","","","","","","","",""
"","ITI","","html-keyboard-response","480","547431","0.0-1.0-693.0","0","0","43973","","39","","","75","76","","","","","","","","","","","","","","","k",""
"","S1","","html-keyboard-response","481","547687","0.0-1.0-695.0","0","0","43973","","null","","","null","77","","","","","","","","","","","","","","","",""
"","ISI","","html-keyboard-response","482","548189","0.0-1.0-696.0","0","0","43973","","253","","","75","77","k","","","","","","","","","","","","","","",""
"","S2","","html-keyboard-response","483","548196","0.0-1.0-697.0","0","0","43973","","5","","","75","77","","k","2","77","training","adjacent","EF","5","6","N.jpg","L.jpg","1","1","1","",""
"","feedback","","html-keyboard-response","484","549199","0.0-1.0-699.0-0.0","0","0","43973","","null","","","null","77","","","","","","","","","","","","","","","",""
"","ITI","","html-keyboard-response","485","550206","0.0-1.0-702.0","0","0","43973","","69","","","75","77","","","","","","","","","","","","","","","k",""
"","S1","","html-keyboard-response","486","550463","0.0-1.0-704.0","0","0","43973","","null","","","null","78","","","","","","","","","","","","","","","",""
"","ISI","","html-keyboard-response","487","550967","0.0-1.0-705.0","0","0","43973","","40","","","75","78","k","","","","","","","","","","","","","","",""
"","S2","","html-keyboard-response","488","551015","0.0-1.0-706.0","0","0","43973","","46","","","75","78","","k","2","78","training","adjacent","CD","3","4","O.jpg","R.jpg","1","1","1","",""
"","feedback","","html-keyboard-response","489","552022","0.0-1.0-708.0-0.0","0","0","43973","","null","","","null","78","","","","","","","","","","","","","","","",""
"","ITI","","html-keyboard-response","490","553030","0.0-1.0-711.0","0","0","43973","","213","","","75","78","","","","","","","","","","","","","","","k",""
"","S1","","html-keyboard-response","491","553288","0.0-1.0-713.0","0","0","43973","","null","","","null","79","","","","","","","","","","","","","","","",""
"","ISI","","html-keyboard-response","492","553791","0.0-1.0-714.0","0","0","43973","","20","","","75","79","k","","","","","","","","","","","","","","",""
"","S2","","html-keyboard-response","493","553981","0.0-1.0-715.0","0","0","43973","","188","","","75","79","","k","2","79","training","adjacent","BA","2","1","P.jpg","M.jpg","1","0","0","",""
"","feedback","","html-keyboard-response","494","554991","0.0-1.0-717.0-0.0","0","0","43973","","null","","","null","79","","","","","","","","","","","","","","","",""
"","time_out","","html-keyboard-response","495","556998","0.0-1.0-719.0-0.0","0","0","43973","","null","","","null","79","","","","","","","","","","","","","","","",""
"","ITI","","html-keyboard-response","496","558006","0.0-1.0-720.0","0","0","43973","","149","","","75","79","","","","","","","","","","","","","","","k",""
"","S1","","html-keyboard-response","497","558263","0.0-1.0-722.0","0","0","43973","","null","","","null","80","","","","","","","","","","","","","","","",""
"","ISI","","html-keyboard-response","498","558767","0.0-1.0-723.0","0","0","43973","","172","","","75","80","k","","","","","","","","","","","","","","",""
"","S2","","html-keyboard-response","499","558980","0.0-1.0-724.0","0","0","43973","","212","","","75","80","","k","2","80","training","adjacent","BC","2","3","P.jpg","O.jpg","1","1","1","",""
"","feedback","","html-keyboard-response","500","559982","0.0-1.0-726.0-0.0","0","0","43973","","null","","","null","80","","","","","","","","","","","","","","","",""
"","ITI","","html-keyboard-response","501","560990","0.0-1.0-729.0","0","0","43973","","90","","","75","80","","","","","","","","","","","","","","","k",""
"","S1","","html-keyboard-response","502","561247","0.0-1.0-731.0","0","0","43973","","null","","","null","81","","","","","","","","","","","","","","","",""
"","ISI","","html-keyboard-response","503","561751","0.0-1.0-732.0","0","0","43973","","198","","","75","81","k","","","","","","","","","","","","","","",""
"","S2","","html-keyboard-response","504","561901","0.0-1.0-733.0","0","0","43973","","147","","","75","81","","k","2","81","training","adjacent","BC","2","3","P.jpg","O.jpg","1","1","1","",""
"","feedback","","html-keyboard-response","505","562910","0.0-1.0-735.0-0.0","0","0","43973","","null","","","null","81","","","","","","","","","","","","","","","",""
"","ITI","","html-keyboard-response","506","563918","0.0-1.0-738.0","0","0","43973","","205","","","75","81","","","","","","","","","","","","","","","k",""
"","S1","","html-keyboard-response","507","564180","0.0-1.0-740.0","0","0","43973","","null","","","null","82","","","","","","","","","","","","","","","",""
"","ISI","","html-keyboard-response","508","564686","0.0-1.0-741.0","0","0","43973","","120","","","75","82","k","","","","","","","","","","","","","","",""
"","S2","","html-keyboard-response","509","564807","0.0-1.0-742.0","0","0","43973","","120","","","75","82","","k","2","82","training","adjacent","CB","3","2","O.jpg","P.jpg","1","0","0","",""
"","feedback","","html-keyboard-response","510","565815","0.0-1.0-744.0-0.0","0","0","43973","","null","","","null","82","","","","","","","","","","","","","","","",""
"","time_out","","html-keyboard-response","511","567822","0.0-1.0-746.0-0.0","0","0","43973","","null","","","null","82","","","","","","","","","","","","","","","",""
"","ITI","","html-keyboard-response","512","568824","0.0-1.0-747.0","0","0","43973","","94","","","75","82","","","","","","","","","","","","","","","k",""
"","S1","","html-keyboard-response","513","569079","0.0-1.0-749.0","0","0","43973","","null","","","null","83","","","","","","","","","","","","","","","",""
"","ISI","","html-keyboard-response","514","569585","0.0-1.0-750.0","0","0","43973","","269","","","75","83","k","","","","","","","","","","","","","","",""
"","S2","","html-keyboard-response","515","569604","0.0-1.0-751.0","0","0","43973","","18","","","75","83","","k","2","83","training","adjacent","FG","6","7","L.jpg","Q.jpg","1","1","1","",""
"","feedback","","html-keyboard-response","516","570606","0.0-1.0-753.0-0.0","0","0","43973","","null","","","null","83","","","","","","","","","","","","","","","",""
"","ITI","","html-keyboard-response","517","571614","0.0-1.0-756.0","0","0","43973","","204","","","75","83","","","","","","","","","","","","","","","k",""
"","S1","","html-keyboard-response","518","571872","0.0-1.0-758.0","0","0","43973","","null","","","null","84","","","","","","","","","","","","","","","",""
"","ISI","","html-keyboard-response","519","572383","0.0-1.0-759.0","0","0","43973","","211","","","75","84","k","","","","","","","","","","","","","","",""
"","S2","","html-keyboard-response","520","572639","0.0-1.0-760.0","0","0","43973","","null","","","null","84","","NaN","","","","","","","","","","","","","",""
"","response","","html-keyboard-response","521","572653","0.0-1.0-761.0-0.0","0","0","43973","","13","","","75","84","","","2","84","training","adjacent","DC","4","3","R.jpg","O.jpg","1","0","0","",""
"","feedback","","html-keyboard-response","522","573663","0.0-1.0-762.0-0.0","0","0","43973","","null","","","null","84","","","","","","","","","","","","","","","",""
"","time_out","","html-keyboard-response","523","575671","0.0-1.0-764.0-0.0","0","0","43973","","null","","","null","84","","","","","","","","","","","","","","","",""
"","ITI","","html-keyboard-response","524","576682","0.0-1.0-765.0","0","0","43973","","165","","","75","84","","","","","","","","","","","","","","","k",""
"","S1","","html-keyboard-response","525","576942","0.0-1.0-767.0","0","0","43973","","null","","","null","85","","","","","","","","","","","","","","","",""
"","ISI","","html-keyboard-response","526","577445","0.0-1.0-768.0","0","0","43973","","150","","","75","85","k","","","","","","","","","","","","","","",""
"","S2","","html-keyboard-response","527","577618","0.0-1.0-769.0","0","0","43973","","172","","","75","85","","k","2","85","training","adjacent","CB","3","2","O.jpg","P.jpg","1","0","0","",""
"","feedback","","html-keyboard-response","528","578623","0.0-1.0-771.0-0.0","0","0","43973","","null","","","null","85","","","","","","","","","","","","","","","",""
"","time_out","","html-keyboard-response","529","580631","0.0-1.0-773.0-0.0","0","0","43973","","null","","","null","85","","","","","","","","","","","","","","","",""
"","ITI","","html-keyboard-response","530","581637","0.0-1.0-774.0","0","0","43973","","196","","","75","85","","","","","","","","","","","","","","","k",""
"","S1","","html-keyboard-response","531","581894","0.0-1.0-776.0","0","0","43973","","null","","","null","86","","","","","","","","","","","","","","","",""
"","ISI","","html-keyboard-response","532","582398","0.0-1.0-777.0","0","0","43973","","382","","","75","86","k","","","","","","","","","","","","","","",""
"","S2","","html-keyboard-response","533","582541","0.0-1.0-778.0","0","0","43973","","141","","","75","86","","k","2","86","training","adjacent","EF","5","6","N.jpg","L.jpg","1","1","1","",""
"","feedback","","html-keyboard-response","534","583549","0.0-1.0-780.0-0.0","0","0","43973","","null","","","null","86","","","","","","","","","","","","","","","",""
"","ITI","","html-keyboard-response","535","584559","0.0-1.0-783.0","0","0","43973","","830","","","75","86","","","","","","","","","","","","","","","k",""
"","S1","","html-keyboard-response","536","584814","0.0-1.0-785.0","0","0","43973","","null","","","null","87","","","","","","","","","","","","","","","",""
"","ISI","","html-keyboard-response","537","585318","0.0-1.0-786.0","0","0","43973","","174","","","75","87","k","","","","","","","","","","","","","","",""
"","S2","","html-keyboard-response","538","585525","0.0-1.0-787.0","0","0","43973","","205","","","75","87","","k","2","87","training","adjacent","GF","7","6","Q.jpg","L.jpg","1","0","0","",""
"","feedback","","html-keyboard-response","539","586526","0.0-1.0-789.0-0.0","0","0","43973","","null","","","null","87","","","","","","","","","","","","","","","",""
"","time_out","","html-keyboard-response","540","588534","0.0-1.0-791.0-0.0","0","0","43973","","null","","","null","87","","","","","","","","","","","","","","","",""
"","ITI","","html-keyboard-response","541","589543","0.0-1.0-792.0","0","0","43973","","534","","","75","87","","","","","","","","","","","","","","","k",""
"","S1","","html-keyboard-response","542","589799","0.0-1.0-794.0","0","0","43973","","null","","","null","88","","","","","","","","","","","","","","","",""
"","ISI","","html-keyboard-response","543","590303","0.0-1.0-795.0","0","0","43973","","125","","","75","88","k","","","","","","","","","","","","","","",""
"","S2","","html-keyboard-response","544","590558","0.0-1.0-796.0","0","0","43973","","253","","","75","88","","k","2","88","training","adjacent","ED","5","4","N.jpg","R.jpg","1","0","0","",""
"","feedback","","html-keyboard-response","545","591566","0.0-1.0-798.0-0.0","0","0","43973","","null","","","null","88","","","","","","","","","","","","","","","",""
"","time_out","","html-keyboard-response","546","593574","0.0-1.0-800.0-0.0","0","0","43973","","null","","","null","88","","","","","","","","","","","","","","","",""
"","ITI","","html-keyboard-response","547","594584","0.0-1.0-801.0","0","0","43973","","245","","","75","88","","","","","","","","","","","","","","","k",""
"","S1","","html-keyboard-response","548","594839","0.0-1.0-803.0","0","0","43973","","null","","","null","89","","","","","","","","","","","","","","","",""
"","ISI","","html-keyboard-response","549","595343","0.0-1.0-804.0","0","0","43973","","357","","","75","89","k","","","","","","","","","","","","","","",""
"","S2","","html-keyboard-response","550","595478","0.0-1.0-805.0","0","0","43973","","133","","","75","89","","k","2","89","training","adjacent","FE","6","5","L.jpg","N.jpg","1","0","0","",""
"","feedback","","html-keyboard-response","551","596486","0.0-1.0-807.0-0.0","0","0","43973","","null","","","null","89","","","","","","","","","","","","","","","",""
"","time_out","","html-keyboard-response","552","598494","0.0-1.0-809.0-0.0","0","0","43973","","null","","","null","89","","","","","","","","","","","","","","","",""
"","ITI","","html-keyboard-response","553","599503","0.0-1.0-810.0","0","0","43973","","21","","","75","89","","","","","","","","","","","","","","","k",""
"","S1","","html-keyboard-response","554","599759","0.0-1.0-812.0","0","0","43973","","null","","","null","90","","","","","","","","","","","","","","","",""
"","ISI","","html-keyboard-response","555","600263","0.0-1.0-813.0","0","0","43973","","197","","","75","90","k","","","","","","","","","","","","","","",""
"","S2","","html-keyboard-response","556","600517","0.0-1.0-814.0","0","0","43973","","null","","","null","90","","NaN","","","","","","","","","","","","","",""
"","response","","html-keyboard-response","557","600606","0.0-1.0-815.0-0.0","0","0","43973","","85","","","75","90","","","2","90","training","adjacent","ED","5","4","N.jpg","R.jpg","1","0","0","",""
"","feedback","","html-keyboard-response","558","601615","0.0-1.0-816.0-0.0","0","0","43973","","null","","","null","90","","","","","","","","","","","","","","","",""
"","time_out","","html-keyboard-response","559","603622","0.0-1.0-818.0-0.0","0","0","43973","","null","","","null","90","","","","","","","","","","","","","","","",""
"","ITI","","html-keyboard-response","560","604632","0.0-1.0-819.0","0","0","43973","","238","","","75","90","","","","","","","","","","","","","","","k",""
"","S1","","html-keyboard-response","561","604887","0.0-1.0-821.0","0","0","43973","","null","","","null","91","","","","","","","","","","","","","","","",""
"","ISI","","html-keyboard-response","562","605390","0.0-1.0-822.0","0","0","43973","","257","","","75","91","k","","","","","","","","","","","","","","",""
"","S2","","html-keyboard-response","563","605597","0.0-1.0-823.0","0","0","43973","","205","","","75","91","","k","2","91","training","adjacent","FE","6","5","L.jpg","N.jpg","1","0","0","",""
"","feedback","","html-keyboard-response","564","606599","0.0-1.0-825.0-0.0","0","0","43973","","null","","","null","91","","","","","","","","","","","","","","","",""
"","time_out","","html-keyboard-response","565","608606","0.0-1.0-827.0-0.0","0","0","43973","","null","","","null","91","","","","","","","","","","","","","","","",""
"","ITI","","html-keyboard-response","566","609615","0.0-1.0-828.0","0","0","43973","","187","","","75","91","","","","","","","","","","","","","","","k",""
"","S1","","html-keyboard-response","567","609871","0.0-1.0-830.0","0","0","43973","","null","","","null","92","","","","","","","","","","","","","","","",""
"","ISI","","html-keyboard-response","568","610375","0.0-1.0-831.0","0","0","43973","","163","","","75","92","k","","","","","","","","","","","","","","",""
"","S2","","html-keyboard-response","569","610494","0.0-1.0-832.0","0","0","43973","","116","","","75","92","","k","2","92","training","adjacent","FG","6","7","L.jpg","Q.jpg","1","1","1","",""
"","feedback","","html-keyboard-response","570","611502","0.0-1.0-834.0-0.0","0","0","43973","","null","","","null","92","","","","","","","","","","","","","","","",""
"","ITI","","html-keyboard-response","571","612510","0.0-1.0-837.0","0","0","43973","","326","","","75","92","","","","","","","","","","","","","","","k",""
"","S1","","html-keyboard-response","572","612767","0.0-1.0-839.0","0","0","43973","","null","","","null","93","","","","","","","","","","","","","","","",""
"","ISI","","html-keyboard-response","573","613270","0.0-1.0-840.0","0","0","43973","","149","","","75","93","k","","","","","","","","","","","","","","",""
"","S2","","html-keyboard-response","574","613324","0.0-1.0-841.0","0","0","43973","","54","","","75","93","","k","2","93","training","adjacent","DE","4","5","R.jpg","N.jpg","1","1","1","",""
"","feedback","","html-keyboard-response","575","614327","0.0-1.0-843.0-0.0","0","0","43973","","null","","","null","93","","","","","","","","","","","","","","","",""
"","ITI","","html-keyboard-response","576","615335","0.0-1.0-846.0","0","0","43973","","237","","","75","93","","","","","","","","","","","","","","","k",""
"","S1","","html-keyboard-response","577","615591","0.0-1.0-848.0","0","0","43973","","null","","","null","94","","","","","","","","","","","","","","","",""
"","ISI","","html-keyboard-response","578","616094","0.0-1.0-849.0","0","0","43973","","173","","","75","94","k","","","","","","","","","","","","","","",""
"","S2","","html-keyboard-response","579","616284","0.0-1.0-850.0","0","0","43973","","189","","","75","94","","k","2","94","training","adjacent","BC","2","3","P.jpg","O.jpg","1","1","1","",""
"","feedback","","html-keyboard-response","580","617288","0.0-1.0-852.0-0.0","0","0","43973","","null","","","null","94","","","","","","","","","","","","","","","",""
"","ITI","","html-keyboard-response","581","618295","0.0-1.0-855.0","0","0","43973","","20","","","75","94","","","","","","","","","","","","","","","k",""
"","S1","","html-keyboard-response","582","618549","0.0-1.0-857.0","0","0","43973","","null","","","null","95","","","","","","","","","","","","","","","",""
"","ISI","","html-keyboard-response","583","619067","0.0-1.0-858.0","0","0","43973","","7","","","75","95","k","","","","","","","","","","","","","","",""
"","S2","","html-keyboard-response","584","619077","0.0-1.0-859.0","0","0","43973","","8","","","75","95","","k","2","95","training","adjacent","AB","1","2","M.jpg","P.jpg","1","1","1","",""
