"success","ttype","start_time","trial_type","trial_index","time_elapsed","internal_node_id","warning","missed_checkup","PID","view_history","rt","responses","repeat_instructions","key_press","index","keypress_isi","keypress_S2","block","trial_num","phase","group_type","pair_type","S1_stim","S2_stim","S1_img","S2_img","S1_chosen","S1_higher","accuracy","keypress_iti","total_bonus_tally"
"true","full_screen","d04132023hr1407","fullscreen","0","16153","0.0-0.0","0","0","54331","","","","","","","","","","","","","","","","","","","","","",""
"","instructions","","instructions","1","64449","0.0-1.0-0.0-0.0","0","0","54331","[{""page_index"":0,""viewing_time"":5792},{""page_index"":1,""viewing_time"":29266},{""page_index"":2,""viewing_time"":10806},{""page_index"":3,""viewing_time"":2431}]","48295","","","","","","","","","","","","","","","","","","","",""
"","comprehension_check","","survey-multi-choice","2","91665","0.0-1.0-0.0-1.0","0","0","54331","","27212","{""Q0"":""True"",""Q1"":""D"",""Q2"":""Once the second image appears and while the screen 'MAKE A CHOICE' is shown"",""Q3"":""Green mark"",""Q4"":""either D or K""}","1","","","","","","","","","","","","","","","","","",""
"","missed_instruction_checkup","","html-keyboard-response","3","93922","0.0-1.0-0.0-2.0-0.0","0","1","54331","","2254","","","32","","","","","","","","","","","","","","","","",""
"","instructions","","instructions","4","113802","0.0-1.0-0.1-0.1","0","0","54331","[{""page_index"":0,""viewing_time"":2743},{""page_index"":1,""viewing_time"":14285},{""page_index"":2,""viewing_time"":1701},{""page_index"":3,""viewing_time"":1149}]","19878","","","","","","","","","","","","","","","","","","","",""
"","comprehension_check","","survey-multi-choice","5","124196","0.0-1.0-0.1-1.1","0","0","54331","","10391","{""Q0"":""True"",""Q1"":""K"",""Q2"":""Once the second image appears and while the screen 'MAKE A CHOICE' is shown"",""Q3"":""Green mark"",""Q4"":""either D or K""}","0","","","","","","","","","","","","","","","","","",""
"","start_exp","","html-keyboard-response","6","126692","0.0-1.0-1.0","0","0","54331","","2493","","","32","","","","","","","","","","","","","","","","",""
"","S1","","html-keyboard-response","7","126946","0.0-1.0-2.0","0","0","54331","","null","","","null","0","","","","","","","","","","","","","","","",""
"","ISI","","html-keyboard-response","8","127948","0.0-1.0-3.0","0","0","54331","","null","","","null","0","NaN","","","","","","","","","","","","","","",""
"","S2","","html-keyboard-response","9","128202","0.0-1.0-4.0","0","0","54331","","null","","","null","0","","NaN","","","","","","","","","","","","","",""
"","response","","html-keyboard-response","10","129210","0.0-1.0-5.0-0.0","0","0","54331","","1007","","","68","0","","","1","0","training","adjacent","AB","1","2","Q.jpg","P.jpg","0","1","0","",""
"","feedback","","html-keyboard-response","11","130213","0.0-1.0-6.0-0.0","0","0","54331","","null","","","null","0","","","","","","","","","","","","","","","",""
"","time_out","","html-keyboard-response","12","132215","0.0-1.0-8.0-0.0","0","0","54331","","null","","","null","0","","","","","","","","","","","","","","","",""
"","ITI","","html-keyboard-response","13","133218","0.0-1.0-9.0","0","0","54331","","null","","","null","0","","","","","","","","","","","","","","","NaN",""
"","S1","","html-keyboard-response","14","133470","0.0-1.0-11.0","0","0","54331","","null","","","null","1","","","","","","","","","","","","","","","",""
"","ISI","","html-keyboard-response","15","134473","0.0-1.0-12.0","0","0","54331","","null","","","null","1","NaN","","","","","","","","","","","","","","",""
"","S2","","html-keyboard-response","16","134726","0.0-1.0-13.0","0","0","54331","","null","","","null","1","","NaN","","","","","","","","","","","","","",""
"","response","","html-keyboard-response","17","135477","0.0-1.0-14.0-0.0","0","0","54331","","748","","","75","1","","","1","1","training","adjacent","DE","4","5","O.jpg","M.jpg","1","1","1","",""
"","feedback","","html-keyboard-response","18","136485","0.0-1.0-15.0-0.0","0","0","54331","","null","","","null","1","","","","","","","","","","","","","","","",""
"","ITI","","html-keyboard-response","19","137488","0.0-1.0-18.0","0","0","54331","","null","","","null","1","","","","","","","","","","","","","","","NaN",""
"","S1","","html-keyboard-response","20","137740","0.0-1.0-20.0","0","0","54331","","null","","","null","2","","","","","","","","","","","","","","","",""
"","ISI","","html-keyboard-response","21","138743","0.0-1.0-21.0","0","0","54331","","null","","","null","2","NaN","","","","","","","","","","","","","","",""
"","S2","","html-keyboard-response","22","138996","0.0-1.0-22.0","0","0","54331","","null","","","null","2","","NaN","","","","","","","","","","","","","",""
"","response","","html-keyboard-response","23","139706","0.0-1.0-23.0-0.0","0","0","54331","","707","","","75","2","","","1","2","training","adjacent","DE","4","5","O.jpg","M.jpg","1","1","1","",""
"","feedback","","html-keyboard-response","24","140709","0.0-1.0-24.0-0.0","0","0","54331","","null","","","null","2","","","","","","","","","","","","","","","",""
"","ITI","","html-keyboard-response","25","141712","0.0-1.0-27.0","0","0","54331","","null","","","null","2","","","","","","","","","","","","","","","NaN",""
"","S1","","html-keyboard-response","26","141965","0.0-1.0-29.0","0","0","54331","","null","","","null","3","","","","","","","","","","","","","","","",""
"","ISI","","html-keyboard-response","27","142973","0.0-1.0-30.0","0","0","54331","","null","","","null","3","NaN","","","","","","","","","","","","","","",""
"","S2","","html-keyboard-response","28","143225","0.0-1.0-31.0","0","0","54331","","null","","","null","3","","NaN","","","","","","","","","","","","","",""
"","response","","html-keyboard-response","29","143783","0.0-1.0-32.0-0.0","0","0","54331","","556","","","75","3","","","1","3","training","adjacent","FE","6","5","N.jpg","M.jpg","1","0","0","",""
"","feedback","","html-keyboard-response","30","144785","0.0-1.0-33.0-0.0","0","0","54331","","null","","","null","3","","","","","","","","","","","","","","","",""
"","time_out","","html-keyboard-response","31","146787","0.0-1.0-35.0-0.0","0","0","54331","","null","","","null","3","","","","","","","","","","","","","","","",""
"","ITI","","html-keyboard-response","32","147790","0.0-1.0-36.0","0","0","54331","","null","","","null","3","","","","","","","","","","","","","","","NaN",""
"","S1","","html-keyboard-response","33","148042","0.0-1.0-38.0","0","0","54331","","null","","","null","4","","","","","","","","","","","","","","","",""
"","ISI","","html-keyboard-response","34","149046","0.0-1.0-39.0","0","0","54331","","null","","","null","4","NaN","","","","","","","","","","","","","","",""
"","S2","","html-keyboard-response","35","149299","0.0-1.0-40.0","0","0","54331","","null","","","null","4","","NaN","","","","","","","","","","","","","",""
"","response","","html-keyboard-response","36","150264","0.0-1.0-41.0-0.0","0","0","54331","","964","","","68","4","","","1","4","training","adjacent","BA","2","1","P.jpg","Q.jpg","0","0","1","",""
"","feedback","","html-keyboard-response","37","151268","0.0-1.0-42.0-0.0","0","0","54331","","null","","","null","4","","","","","","","","","","","","","","","",""
"","ITI","","html-keyboard-response","38","152270","0.0-1.0-45.0","0","0","54331","","null","","","null","4","","","","","","","","","","","","","","","NaN",""
"","S1","","html-keyboard-response","39","152523","0.0-1.0-47.0","0","0","54331","","null","","","null","5","","","","","","","","","","","","","","","",""
"","ISI","","html-keyboard-response","40","153526","0.0-1.0-48.0","0","0","54331","","null","","","null","5","NaN","","","","","","","","","","","","","","",""
"","S2","","html-keyboard-response","41","153779","0.0-1.0-49.0","0","0","54331","","null","","","null","5","","NaN","","","","","","","","","","","","","",""
"","response","","html-keyboard-response","42","154466","0.0-1.0-50.0-0.0","0","0","54331","","684","","","75","5","","","1","5","training","adjacent","CB","3","2","R.jpg","P.jpg","1","0","0","",""
"","feedback","","html-keyboard-response","43","155468","0.0-1.0-51.0-0.0","0","0","54331","","null","","","null","5","","","","","","","","","","","","","","","",""
"","time_out","","html-keyboard-response","44","157471","0.0-1.0-53.0-0.0","0","0","54331","","null","","","null","5","","","","","","","","","","","","","","","",""
"","ITI","","html-keyboard-response","45","158474","0.0-1.0-54.0","0","0","54331","","null","","","null","5","","","","","","","","","","","","","","","NaN",""
"","S1","","html-keyboard-response","46","158727","0.0-1.0-56.0","0","0","54331","","null","","","null","6","","","","","","","","","","","","","","","",""
"","ISI","","html-keyboard-response","47","159729","0.0-1.0-57.0","0","0","54331","","null","","","null","6","NaN","","","","","","","","","","","","","","",""
"","S2","","html-keyboard-response","48","159982","0.0-1.0-58.0","0","0","54331","","null","","","null","6","","NaN","","","","","","","","","","","","","",""
"","response","","html-keyboard-response","49","161135","0.0-1.0-59.0-0.0","0","0","54331","","1151","","","75","6","","","1","6","training","adjacent","ED","5","4","M.jpg","O.jpg","1","0","0","",""
"","feedback","","html-keyboard-response","50","162137","0.0-1.0-60.0-0.0","0","0","54331","","null","","","null","6","","","","","","","","","","","","","","","",""
"","time_out","","html-keyboard-response","51","164139","0.0-1.0-62.0-0.0","0","0","54331","","null","","","null","6","","","","","","","","","","","","","","","",""
"","ITI","","html-keyboard-response","52","165141","0.0-1.0-63.0","0","0","54331","","null","","","null","6","","","","","","","","","","","","","","","NaN",""
"","S1","","html-keyboard-response","53","165395","0.0-1.0-65.0","0","0","54331","","null","","","null","7","","","","","","","","","","","","","","","",""
"","ISI","","html-keyboard-response","54","166398","0.0-1.0-66.0","0","0","54331","","null","","","null","7","NaN","","","","","","","","","","","","","","",""
"","S2","","html-keyboard-response","55","166652","0.0-1.0-67.0","0","0","54331","","null","","","null","7","","NaN","","","","","","","","","","","","","",""
"","response","","html-keyboard-response","56","167241","0.0-1.0-68.0-0.0","0","0","54331","","588","","","75","7","","","1","7","training","adjacent","AB","1","2","Q.jpg","P.jpg","1","1","1","",""
"","feedback","","html-keyboard-response","57","168243","0.0-1.0-69.0-0.0","0","0","54331","","null","","","null","7","","","","","","","","","","","","","","","",""
"","ITI","","html-keyboard-response","58","169246","0.0-1.0-72.0","0","0","54331","","null","","","null","7","","","","","","","","","","","","","","","NaN",""
"","S1","","html-keyboard-response","59","169499","0.0-1.0-74.0","0","0","54331","","null","","","null","8","","","","","","","","","","","","","","","",""
"","ISI","","html-keyboard-response","60","170501","0.0-1.0-75.0","0","0","54331","","null","","","null","8","NaN","","","","","","","","","","","","","","",""
"","S2","","html-keyboard-response","61","170754","0.0-1.0-76.0","0","0","54331","","null","","","null","8","","NaN","","","","","","","","","","","","","",""
"","response","","html-keyboard-response","62","171308","0.0-1.0-77.0-0.0","0","0","54331","","552","","","68","8","","","1","8","training","adjacent","BC","2","3","P.jpg","R.jpg","0","1","0","",""
"","feedback","","html-keyboard-response","63","172311","0.0-1.0-78.0-0.0","0","0","54331","","null","","","null","8","","","","","","","","","","","","","","","",""
"","time_out","","html-keyboard-response","64","174314","0.0-1.0-80.0-0.0","0","0","54331","","null","","","null","8","","","","","","","","","","","","","","","",""
"","ITI","","html-keyboard-response","65","175328","0.0-1.0-81.0","0","0","54331","","null","","","null","8","","","","","","","","","","","","","","","NaN",""
"","S1","","html-keyboard-response","66","175581","0.0-1.0-83.0","0","0","54331","","null","","","null","9","","","","","","","","","","","","","","","",""
"","ISI","","html-keyboard-response","67","176584","0.0-1.0-84.0","0","0","54331","","null","","","null","9","NaN","","","","","","","","","","","","","","",""
"","S2","","html-keyboard-response","68","176837","0.0-1.0-85.0","0","0","54331","","null","","","null","9","","NaN","","","","","","","","","","","","","",""
"","response","","html-keyboard-response","69","177896","0.0-1.0-86.0-0.0","0","0","54331","","1056","","","75","9","","","1","9","training","adjacent","CD","3","4","R.jpg","O.jpg","1","1","1","",""
"","feedback","","html-keyboard-response","70","178899","0.0-1.0-87.0-0.0","0","0","54331","","null","","","null","9","","","","","","","","","","","","","","","",""
"","ITI","","html-keyboard-response","71","179901","0.0-1.0-90.0","0","0","54331","","null","","","null","9","","","","","","","","","","","","","","","NaN",""
"","S1","","html-keyboard-response","72","180153","0.0-1.0-92.0","0","0","54331","","null","","","null","10","","","","","","","","","","","","","","","",""
"","ISI","","html-keyboard-response","73","181155","0.0-1.0-93.0","0","0","54331","","null","","","null","10","NaN","","","","","","","","","","","","","","",""
"","S2","","html-keyboard-response","74","181421","0.0-1.0-94.0","0","0","54331","","null","","","null","10","","NaN","","","","","","","","","","","","","",""
"","response","","html-keyboard-response","75","182479","0.0-1.0-95.0-0.0","0","0","54331","","1057","","","68","10","","","1","10","training","adjacent","DE","4","5","O.jpg","M.jpg","0","1","0","",""
"","feedback","","html-keyboard-response","76","183482","0.0-1.0-96.0-0.0","0","0","54331","","null","","","null","10","","","","","","","","","","","","","","","",""
"","time_out","","html-keyboard-response","77","185498","0.0-1.0-98.0-0.0","0","0","54331","","null","","","null","10","","","","","","","","","","","","","","","",""
"","ITI","","html-keyboard-response","78","186501","0.0-1.0-99.0","0","0","54331","","null","","","null","10","","","","","","","","","","","","","","","NaN",""
"","S1","","html-keyboard-response","79","186754","0.0-1.0-101.0","0","0","54331","","null","","","null","11","","","","","","","","","","","","","","","",""
"","ISI","","html-keyboard-response","80","187757","0.0-1.0-102.0","0","0","54331","","null","","","null","11","NaN","","","","","","","","","","","","","","",""
"","S2","","html-keyboard-response","81","188009","0.0-1.0-103.0","0","0","54331","","null","","","null","11","","NaN","","","","","","","","","","","","","",""
"","response","","html-keyboard-response","82","189172","0.0-1.0-104.0-0.0","0","0","54331","","1161","","","75","11","","","1","11","training","adjacent","ED","5","4","M.jpg","O.jpg","1","0","0","",""
"","feedback","","html-keyboard-response","83","190176","0.0-1.0-105.0-0.0","0","0","54331","","null","","","null","11","","","","","","","","","","","","","","","",""
"","time_out","","html-keyboard-response","84","192179","0.0-1.0-107.0-0.0","0","0","54331","","null","","","null","11","","","","","","","","","","","","","","","",""
"","ITI","","html-keyboard-response","85","193181","0.0-1.0-108.0","0","0","54331","","null","","","null","11","","","","","","","","","","","","","","","NaN",""
"","S1","","html-keyboard-response","86","193433","0.0-1.0-110.0","0","0","54331","","null","","","null","12","","","","","","","","","","","","","","","",""
"","ISI","","html-keyboard-response","87","194435","0.0-1.0-111.0","0","0","54331","","null","","","null","12","NaN","","","","","","","","","","","","","","",""
"","S2","","html-keyboard-response","88","194703","0.0-1.0-112.0","0","0","54331","","null","","","null","12","","NaN","","","","","","","","","","","","","",""
"","response","","html-keyboard-response","89","195718","0.0-1.0-113.0-0.0","0","0","54331","","1012","","","68","12","","","1","12","training","adjacent","BA","2","1","P.jpg","Q.jpg","0","0","1","",""
"","feedback","","html-keyboard-response","90","196733","0.0-1.0-114.0-0.0","0","0","54331","","null","","","null","12","","","","","","","","","","","","","","","",""
"","ITI","","html-keyboard-response","91","197735","0.0-1.0-117.0","0","0","54331","","null","","","null","12","","","","","","","","","","","","","","","NaN",""
"","S1","","html-keyboard-response","92","197995","0.0-1.0-119.0","0","0","54331","","null","","","null","13","","","","","","","","","","","","","","","",""
"","ISI","","html-keyboard-response","93","198998","0.0-1.0-120.0","0","0","54331","","null","","","null","13","NaN","","","","","","","","","","","","","","",""
"","S2","","html-keyboard-response","94","199252","0.0-1.0-121.0","0","0","54331","","null","","","null","13","","NaN","","","","","","","","","","","","","",""
"","response","","html-keyboard-response","95","199761","0.0-1.0-122.0-0.0","0","0","54331","","507","","","75","13","","","1","13","training","adjacent","EF","5","6","M.jpg","N.jpg","1","1","1","",""
"","feedback","","html-keyboard-response","96","200763","0.0-1.0-123.0-0.0","0","0","54331","","null","","","null","13","","","","","","","","","","","","","","","",""
"","ITI","","html-keyboard-response","97","201766","0.0-1.0-126.0","0","0","54331","","null","","","null","13","","","","","","","","","","","","","","","NaN",""
"","S1","","html-keyboard-response","98","202019","0.0-1.0-128.0","0","0","54331","","null","","","null","14","","","","","","","","","","","","","","","",""
"","ISI","","html-keyboard-response","99","203022","0.0-1.0-129.0","0","0","54331","","null","","","null","14","NaN","","","","","","","","","","","","","","",""
"","S2","","html-keyboard-response","100","203276","0.0-1.0-130.0","0","0","54331","","null","","","null","14","","NaN","","","","","","","","","","","","","",""
"","response","","html-keyboard-response","101","204844","0.0-1.0-131.0-0.0","0","0","54331","","1567","","","75","14","","","1","14","training","adjacent","CB","3","2","R.jpg","P.jpg","1","0","0","",""
"","feedback","","html-keyboard-response","102","205848","0.0-1.0-132.0-0.0","0","0","54331","","null","","","null","14","","","","","","","","","","","","","","","",""
"","time_out","","html-keyboard-response","103","207850","0.0-1.0-134.0-0.0","0","0","54331","","null","","","null","14","","","","","","","","","","","","","","","",""
"","ITI","","html-keyboard-response","104","208852","0.0-1.0-135.0","0","0","54331","","null","","","null","14","","","","","","","","","","","","","","","NaN",""
"","S1","","html-keyboard-response","105","209104","0.0-1.0-137.0","0","0","54331","","null","","","null","15","","","","","","","","","","","","","","","",""
"","ISI","","html-keyboard-response","106","210106","0.0-1.0-138.0","0","0","54331","","null","","","null","15","NaN","","","","","","","","","","","","","","",""
"","S2","","html-keyboard-response","107","210361","0.0-1.0-139.0","0","0","54331","","null","","","null","15","","NaN","","","","","","","","","","","","","",""
"","response","","html-keyboard-response","108","211968","0.0-1.0-140.0-0.0","0","0","54331","","1604","","","68","15","","","1","15","training","adjacent","FE","6","5","N.jpg","M.jpg","0","0","1","",""
"","feedback","","html-keyboard-response","109","212971","0.0-1.0-141.0-0.0","0","0","54331","","null","","","null","15","","","","","","","","","","","","","","","",""
"","ITI","","html-keyboard-response","110","213973","0.0-1.0-144.0","0","0","54331","","null","","","null","15","","","","","","","","","","","","","","","NaN",""
"","S1","","html-keyboard-response","111","214226","0.0-1.0-146.0","0","0","54331","","null","","","null","16","","","","","","","","","","","","","","","",""
"","ISI","","html-keyboard-response","112","215228","0.0-1.0-147.0","0","0","54331","","null","","","null","16","NaN","","","","","","","","","","","","","","",""
"","S2","","html-keyboard-response","113","215482","0.0-1.0-148.0","0","0","54331","","null","","","null","16","","NaN","","","","","","","","","","","","","",""
"","response","","html-keyboard-response","114","216698","0.0-1.0-149.0-0.0","0","0","54331","","1214","","","68","16","","","1","16","training","adjacent","CB","3","2","R.jpg","P.jpg","0","0","1","",""
"","feedback","","html-keyboard-response","115","217702","0.0-1.0-150.0-0.0","0","0","54331","","null","","","null","16","","","","","","","","","","","","","","","",""
"","ITI","","html-keyboard-response","116","218704","0.0-1.0-153.0","0","0","54331","","null","","","null","16","","","","","","","","","","","","","","","NaN",""
"","S1","","html-keyboard-response","117","218962","0.0-1.0-155.0","0","0","54331","","null","","","null","17","","","","","","","","","","","","","","","",""
"","ISI","","html-keyboard-response","118","219964","0.0-1.0-156.0","0","0","54331","","null","","","null","17","NaN","","","","","","","","","","","","","","",""
"","S2","","html-keyboard-response","119","220217","0.0-1.0-157.0","0","0","54331","","null","","","null","17","","NaN","","","","","","","","","","","","","",""
"","response","","html-keyboard-response","120","221665","0.0-1.0-158.0-0.0","0","0","54331","","1447","","","68","17","","","1","17","training","adjacent","CD","3","4","R.jpg","O.jpg","0","1","0","",""
"","feedback","","html-keyboard-response","121","222667","0.0-1.0-159.0-0.0","0","0","54331","","null","","","null","17","","","","","","","","","","","","","","","",""
"","time_out","","html-keyboard-response","122","224669","0.0-1.0-161.0-0.0","0","0","54331","","null","","","null","17","","","","","","","","","","","","","","","",""
"","ITI","","html-keyboard-response","123","225671","0.0-1.0-162.0","0","0","54331","","null","","","null","17","","","","","","","","","","","","","","","NaN",""
"","S1","","html-keyboard-response","124","225923","0.0-1.0-164.0","0","0","54331","","null","","","null","18","","","","","","","","","","","","","","","",""
"","ISI","","html-keyboard-response","125","226925","0.0-1.0-165.0","0","0","54331","","null","","","null","18","NaN","","","","","","","","","","","","","","",""
"","S2","","html-keyboard-response","126","227179","0.0-1.0-166.0","0","0","54331","","null","","","null","18","","NaN","","","","","","","","","","","","","",""
"","response","","html-keyboard-response","127","228892","0.0-1.0-167.0-0.0","0","0","54331","","1711","","","68","18","","","1","18","training","adjacent","GF","7","6","L.jpg","N.jpg","0","0","1","",""
"","feedback","","html-keyboard-response","128","229894","0.0-1.0-168.0-0.0","0","0","54331","","null","","","null","18","","","","","","","","","","","","","","","",""
"","ITI","","html-keyboard-response","129","230897","0.0-1.0-171.0","0","0","54331","","null","","","null","18","","","","","","","","","","","","","","","NaN",""
"","S1","","html-keyboard-response","130","231149","0.0-1.0-173.0","0","0","54331","","null","","","null","19","","","","","","","","","","","","","","","",""
"","ISI","","html-keyboard-response","131","232152","0.0-1.0-174.0","0","0","54331","","null","","","null","19","NaN","","","","","","","","","","","","","","",""
"","S2","","html-keyboard-response","132","232405","0.0-1.0-175.0","0","0","54331","","null","","","null","19","","NaN","","","","","","","","","","","","","",""
"","response","","html-keyboard-response","133","233502","0.0-1.0-176.0-0.0","0","0","54331","","1096","","","68","19","","","1","19","training","adjacent","BC","2","3","P.jpg","R.jpg","0","1","0","",""
"","feedback","","html-keyboard-response","134","234506","0.0-1.0-177.0-0.0","0","0","54331","","null","","","null","19","","","","","","","","","","","","","","","",""
"","time_out","","html-keyboard-response","135","236509","0.0-1.0-179.0-0.0","0","0","54331","","null","","","null","19","","","","","","","","","","","","","","","",""
"","ITI","","html-keyboard-response","136","237511","0.0-1.0-180.0","0","0","54331","","null","","","null","19","","","","","","","","","","","","","","","NaN",""
"","S1","","html-keyboard-response","137","237765","0.0-1.0-182.0","0","0","54331","","null","","","null","20","","","","","","","","","","","","","","","",""
"","ISI","","html-keyboard-response","138","238767","0.0-1.0-183.0","0","0","54331","","null","","","null","20","NaN","","","","","","","","","","","","","","",""
"","S2","","html-keyboard-response","139","239020","0.0-1.0-184.0","0","0","54331","","null","","","null","20","","NaN","","","","","","","","","","","","","",""
"","response","","html-keyboard-response","140","240297","0.0-1.0-185.0-0.0","0","0","54331","","1276","","","75","20","","","1","20","training","adjacent","ED","5","4","M.jpg","O.jpg","1","0","0","",""
"","feedback","","html-keyboard-response","141","241299","0.0-1.0-186.0-0.0","0","0","54331","","null","","","null","20","","","","","","","","","","","","","","","",""
"","time_out","","html-keyboard-response","142","243300","0.0-1.0-188.0-0.0","0","0","54331","","null","","","null","20","","","","","","","","","","","","","","","",""
"","ITI","","html-keyboard-response","143","244303","0.0-1.0-189.0","0","0","54331","","null","","","null","20","","","","","","","","","","","","","","","NaN",""
"","S1","","html-keyboard-response","144","244555","0.0-1.0-191.0","0","0","54331","","null","","","null","21","","","","","","","","","","","","","","","",""
"","ISI","","html-keyboard-response","145","245558","0.0-1.0-192.0","0","0","54331","","null","","","null","21","NaN","","","","","","","","","","","","","","",""
"","S2","","html-keyboard-response","146","245810","0.0-1.0-193.0","0","0","54331","","null","","","null","21","","NaN","","","","","","","","","","","","","",""
"","response","","html-keyboard-response","147","246320","0.0-1.0-194.0-0.0","0","0","54331","","508","","","75","21","","","1","21","training","adjacent","AB","1","2","Q.jpg","P.jpg","1","1","1","",""
"","feedback","","html-keyboard-response","148","247322","0.0-1.0-195.0-0.0","0","0","54331","","null","","","null","21","","","","","","","","","","","","","","","",""
"","ITI","","html-keyboard-response","149","248324","0.0-1.0-198.0","0","0","54331","","null","","","null","21","","","","","","","","","","","","","","","NaN",""
"","S1","","html-keyboard-response","150","248578","0.0-1.0-200.0","0","0","54331","","null","","","null","22","","","","","","","","","","","","","","","",""
"","ISI","","html-keyboard-response","151","249580","0.0-1.0-201.0","0","0","54331","","null","","","null","22","NaN","","","","","","","","","","","","","","",""
"","S2","","html-keyboard-response","152","249833","0.0-1.0-202.0","0","0","54331","","null","","","null","22","","NaN","","","","","","","","","","","","","",""
"","response","","html-keyboard-response","153","251048","0.0-1.0-203.0-0.0","0","0","54331","","1213","","","68","22","","","1","22","training","adjacent","FE","6","5","N.jpg","M.jpg","0","0","1","",""
"","feedback","","html-keyboard-response","154","252051","0.0-1.0-204.0-0.0","0","0","54331","","null","","","null","22","","","","","","","","","","","","","","","",""
"","ITI","","html-keyboard-response","155","253053","0.0-1.0-207.0","0","0","54331","","null","","","null","22","","","","","","","","","","","","","","","NaN",""
"","S1","","html-keyboard-response","156","253305","0.0-1.0-209.0","0","0","54331","","null","","","null","23","","","","","","","","","","","","","","","",""
"","ISI","","html-keyboard-response","157","254307","0.0-1.0-210.0","0","0","54331","","null","","","null","23","NaN","","","","","","","","","","","","","","",""
"","S2","","html-keyboard-response","158","254560","0.0-1.0-211.0","0","0","54331","","null","","","null","23","","NaN","","","","","","","","","","","","","",""
"","response","","html-keyboard-response","159","255551","0.0-1.0-212.0-0.0","0","0","54331","","990","","","75","23","","","1","23","training","adjacent","EF","5","6","M.jpg","N.jpg","1","1","1","",""
"","feedback","","html-keyboard-response","160","256555","0.0-1.0-213.0-0.0","0","0","54331","","null","","","null","23","","","","","","","","","","","","","","","",""
"","ITI","","html-keyboard-response","161","257557","0.0-1.0-216.0","0","0","54331","","null","","","null","23","","","","","","","","","","","","","","","NaN",""
"","S1","","html-keyboard-response","162","257810","0.0-1.0-218.0","0","0","54331","","null","","","null","24","","","","","","","","","","","","","","","",""
"","ISI","","html-keyboard-response","163","258813","0.0-1.0-219.0","0","0","54331","","null","","","null","24","NaN","","","","","","","","","","","","","","",""
"","S2","","html-keyboard-response","164","259067","0.0-1.0-220.0","0","0","54331","","null","","","null","24","","NaN","","","","","","","","","","","","","",""
"","response","","html-keyboard-response","165","260123","0.0-1.0-221.0-0.0","0","0","54331","","1055","","","68","24","","","1","24","training","adjacent","BC","2","3","P.jpg","R.jpg","0","1","0","",""
"","feedback","","html-keyboard-response","166","261131","0.0-1.0-222.0-0.0","0","0","54331","","null","","","null","24","","","","","","","","","","","","","","","",""
"","time_out","","html-keyboard-response","167","263134","0.0-1.0-224.0-0.0","0","0","54331","","null","","","null","24","","","","","","","","","","","","","","","",""
"","ITI","","html-keyboard-response","168","264137","0.0-1.0-225.0","0","0","54331","","null","","","null","24","","","","","","","","","","","","","","","NaN",""
"","S1","","html-keyboard-response","169","264389","0.0-1.0-227.0","0","0","54331","","null","","","null","25","","","","","","","","","","","","","","","",""
"","ISI","","html-keyboard-response","170","265391","0.0-1.0-228.0","0","0","54331","","null","","","null","25","NaN","","","","","","","","","","","","","","",""
"","S2","","html-keyboard-response","171","265645","0.0-1.0-229.0","0","0","54331","","null","","","null","25","","NaN","","","","","","","","","","","","","",""
"","response","","html-keyboard-response","172","267160","0.0-1.0-230.0-0.0","0","0","54331","","1513","","","68","25","","","1","25","training","adjacent","BC","2","3","P.jpg","R.jpg","0","1","0","",""
"","feedback","","html-keyboard-response","173","268164","0.0-1.0-231.0-0.0","0","0","54331","","null","","","null","25","","","","","","","","","","","","","","","",""
"","time_out","","html-keyboard-response","174","270166","0.0-1.0-233.0-0.0","0","0","54331","","null","","","null","25","","","","","","","","","","","","","","","",""
"","ITI","","html-keyboard-response","175","271168","0.0-1.0-234.0","0","0","54331","","null","","","null","25","","","","","","","","","","","","","","","NaN",""
"","S1","","html-keyboard-response","176","271421","0.0-1.0-236.0","0","0","54331","","null","","","null","26","","","","","","","","","","","","","","","",""
"","ISI","","html-keyboard-response","177","272423","0.0-1.0-237.0","0","0","54331","","null","","","null","26","NaN","","","","","","","","","","","","","","",""
"","S2","","html-keyboard-response","178","272675","0.0-1.0-238.0","0","0","54331","","null","","","null","26","","NaN","","","","","","","","","","","","","",""
"","response","","html-keyboard-response","179","273005","0.0-1.0-239.0-0.0","0","0","54331","","329","","","75","26","","","1","26","training","adjacent","AB","1","2","Q.jpg","P.jpg","1","1","1","",""
"","feedback","","html-keyboard-response","180","274008","0.0-1.0-240.0-0.0","0","0","54331","","null","","","null","26","","","","","","","","","","","","","","","",""
"","ITI","","html-keyboard-response","181","275010","0.0-1.0-243.0","0","0","54331","","null","","","null","26","","","","","","","","","","","","","","","NaN",""
"","S1","","html-keyboard-response","182","275263","0.0-1.0-245.0","0","0","54331","","null","","","null","27","","","","","","","","","","","","","","","",""
"","ISI","","html-keyboard-response","183","276265","0.0-1.0-246.0","0","0","54331","","null","","","null","27","NaN","","","","","","","","","","","","","","",""
"","S2","","html-keyboard-response","184","276517","0.0-1.0-247.0","0","0","54331","","null","","","null","27","","NaN","","","","","","","","","","","","","",""
"","response","","html-keyboard-response","185","277003","0.0-1.0-248.0-0.0","0","0","54331","","485","","","75","27","","","1","27","training","adjacent","EF","5","6","M.jpg","N.jpg","1","1","1","",""
"","feedback","","html-keyboard-response","186","278006","0.0-1.0-249.0-0.0","0","0","54331","","null","","","null","27","","","","","","","","","","","","","","","",""
"","ITI","","html-keyboard-response","187","279008","0.0-1.0-252.0","0","0","54331","","null","","","null","27","","","","","","","","","","","","","","","NaN",""
"","S1","","html-keyboard-response","188","279261","0.0-1.0-254.0","0","0","54331","","null","","","null","28","","","","","","","","","","","","","","","",""
"","ISI","","html-keyboard-response","189","280263","0.0-1.0-255.0","0","0","54331","","null","","","null","28","NaN","","","","","","","","","","","","","","",""
"","S2","","html-keyboard-response","190","280516","0.0-1.0-256.0","0","0","54331","","null","","","null","28","","NaN","","","","","","","","","","","","","",""
"","response","","html-keyboard-response","191","281460","0.0-1.0-257.0-0.0","0","0","54331","","943","","","75","28","","","1","28","training","adjacent","FG","6","7","N.jpg","L.jpg","1","1","1","",""
"","feedback","","html-keyboard-response","192","282464","0.0-1.0-258.0-0.0","0","0","54331","","null","","","null","28","","","","","","","","","","","","","","","",""
"","ITI","","html-keyboard-response","193","283466","0.0-1.0-261.0","0","0","54331","","null","","","null","28","","","","","","","","","","","","","","","NaN",""
"","S1","","html-keyboard-response","194","283719","0.0-1.0-263.0","0","0","54331","","null","","","null","29","","","","","","","","","","","","","","","",""
"","ISI","","html-keyboard-response","195","284721","0.0-1.0-264.0","0","0","54331","","null","","","null","29","NaN","","","","","","","","","","","","","","",""
"","S2","","html-keyboard-response","196","284974","0.0-1.0-265.0","0","0","54331","","null","","","null","29","","NaN","","","","","","","","","","","","","",""
"","response","","html-keyboard-response","197","285988","0.0-1.0-266.0-0.0","0","0","54331","","1013","","","68","29","","","1","29","training","adjacent","CD","3","4","R.jpg","O.jpg","0","1","0","",""
"","feedback","","html-keyboard-response","198","286991","0.0-1.0-267.0-0.0","0","0","54331","","null","","","null","29","","","","","","","","","","","","","","","",""
"","time_out","","html-keyboard-response","199","288993","0.0-1.0-269.0-0.0","0","0","54331","","null","","","null","29","","","","","","","","","","","","","","","",""
"","ITI","","html-keyboard-response","200","289996","0.0-1.0-270.0","0","0","54331","","null","","","null","29","","","","","","","","","","","","","","","NaN",""
"","S1","","html-keyboard-response","201","290249","0.0-1.0-272.0","0","0","54331","","null","","","null","30","","","","","","","","","","","","","","","",""
"","ISI","","html-keyboard-response","202","291251","0.0-1.0-273.0","0","0","54331","","null","","","null","30","NaN","","","","","","","","","","","","","","",""
"","S2","","html-keyboard-response","203","291504","0.0-1.0-274.0","0","0","54331","","null","","","null","30","","NaN","","","","","","","","","","","","","",""
"","response","","html-keyboard-response","204","292302","0.0-1.0-275.0-0.0","0","0","54331","","797","","","75","30","","","1","30","training","adjacent","FG","6","7","N.jpg","L.jpg","1","1","1","",""
"","feedback","","html-keyboard-response","205","293304","0.0-1.0-276.0-0.0","0","0","54331","","null","","","null","30","","","","","","","","","","","","","","","",""
"","ITI","","html-keyboard-response","206","294307","0.0-1.0-279.0","0","0","54331","","null","","","null","30","","","","","","","","","","","","","","","NaN",""
"","S1","","html-keyboard-response","207","294560","0.0-1.0-281.0","0","0","54331","","null","","","null","31","","","","","","","","","","","","","","","",""
"","ISI","","html-keyboard-response","208","295562","0.0-1.0-282.0","0","0","54331","","null","","","null","31","NaN","","","","","","","","","","","","","","",""
"","S2","","html-keyboard-response","209","295816","0.0-1.0-283.0","0","0","54331","","null","","","null","31","","NaN","","","","","","","","","","","","","",""
"","response","","html-keyboard-response","210","296610","0.0-1.0-284.0-0.0","0","0","54331","","793","","","68","31","","","1","31","training","adjacent","FE","6","5","N.jpg","M.jpg","0","0","1","",""
"","feedback","","html-keyboard-response","211","297613","0.0-1.0-285.0-0.0","0","0","54331","","null","","","null","31","","","","","","","","","","","","","","","",""
"","ITI","","html-keyboard-response","212","298616","0.0-1.0-288.0","0","0","54331","","null","","","null","31","","","","","","","","","","","","","","","NaN",""
"","S1","","html-keyboard-response","213","298869","0.0-1.0-290.0","0","0","54331","","null","","","null","32","","","","","","","","","","","","","","","",""
"","ISI","","html-keyboard-response","214","299871","0.0-1.0-291.0","0","0","54331","","null","","","null","32","NaN","","","","","","","","","","","","","","",""
"","S2","","html-keyboard-response","215","300124","0.0-1.0-292.0","0","0","54331","","null","","","null","32","","NaN","","","","","","","","","","","","","",""
"","response","","html-keyboard-response","216","300587","0.0-1.0-293.0-0.0","0","0","54331","","462","","","68","32","","","1","32","training","adjacent","FG","6","7","N.jpg","L.jpg","0","1","0","",""
"","feedback","","html-keyboard-response","217","301605","0.0-1.0-294.0-0.0","0","0","54331","","null","","","null","32","","","","","","","","","","","","","","","",""
"","time_out","","html-keyboard-response","218","303609","0.0-1.0-296.0-0.0","0","0","54331","","null","","","null","32","","","","","","","","","","","","","","","",""
"","ITI","","html-keyboard-response","219","304612","0.0-1.0-297.0","0","0","54331","","null","","","null","32","","","","","","","","","","","","","","","NaN",""
"","S1","","html-keyboard-response","220","304864","0.0-1.0-299.0","0","0","54331","","null","","","null","33","","","","","","","","","","","","","","","",""
"","ISI","","html-keyboard-response","221","305873","0.0-1.0-300.0","0","0","54331","","null","","","null","33","NaN","","","","","","","","","","","","","","",""
"","S2","","html-keyboard-response","222","306125","0.0-1.0-301.0","0","0","54331","","null","","","null","33","","NaN","","","","","","","","","","","","","",""
"","response","","html-keyboard-response","223","307530","0.0-1.0-302.0-0.0","0","0","54331","","1403","","","75","33","","","1","33","training","adjacent","DC","4","3","O.jpg","R.jpg","1","0","0","",""
"","feedback","","html-keyboard-response","224","308533","0.0-1.0-303.0-0.0","0","0","54331","","null","","","null","33","","","","","","","","","","","","","","","",""
"","time_out","","html-keyboard-response","225","310537","0.0-1.0-305.0-0.0","0","0","54331","","null","","","null","33","","","","","","","","","","","","","","","",""
"","ITI","","html-keyboard-response","226","311539","0.0-1.0-306.0","0","0","54331","","null","","","null","33","","","","","","","","","","","","","","","NaN",""
"","S1","","html-keyboard-response","227","311792","0.0-1.0-308.0","0","0","54331","","null","","","null","34","","","","","","","","","","","","","","","",""
"","ISI","","html-keyboard-response","228","312796","0.0-1.0-309.0","0","0","54331","","null","","","null","34","NaN","","","","","","","","","","","","","","",""
"","S2","","html-keyboard-response","229","313060","0.0-1.0-310.0","0","0","54331","","null","","","null","34","","NaN","","","","","","","","","","","","","",""
"","response","","html-keyboard-response","230","314764","0.0-1.0-311.0-0.0","0","0","54331","","1702","","","68","34","","","1","34","training","adjacent","EF","5","6","M.jpg","N.jpg","0","1","0","",""
"","feedback","","html-keyboard-response","231","315766","0.0-1.0-312.0-0.0","0","0","54331","","null","","","null","34","","","","","","","","","","","","","","","",""
"","time_out","","html-keyboard-response","232","317769","0.0-1.0-314.0-0.0","0","0","54331","","null","","","null","34","","","","","","","","","","","","","","","",""
"","ITI","","html-keyboard-response","233","318772","0.0-1.0-315.0","0","0","54331","","null","","","null","34","","","","","","","","","","","","","","","NaN",""
"","S1","","html-keyboard-response","234","319025","0.0-1.0-317.0","0","0","54331","","null","","","null","35","","","","","","","","","","","","","","","",""
"","ISI","","html-keyboard-response","235","320033","0.0-1.0-318.0","0","0","54331","","null","","","null","35","NaN","","","","","","","","","","","","","","",""
"","S2","","html-keyboard-response","236","320285","0.0-1.0-319.0","0","0","54331","","null","","","null","35","","NaN","","","","","","","","","","","","","",""
"","response","","html-keyboard-response","237","321259","0.0-1.0-320.0-0.0","0","0","54331","","972","","","75","35","","","1","35","training","adjacent","FG","6","7","N.jpg","L.jpg","1","1","1","",""
"","feedback","","html-keyboard-response","238","322261","0.0-1.0-321.0-0.0","0","0","54331","","null","","","null","35","","","","","","","","","","","","","","","",""
"","ITI","","html-keyboard-response","239","323264","0.0-1.0-324.0","0","0","54331","","null","","","null","35","","","","","","","","","","","","","","","NaN",""
"","S1","","html-keyboard-response","240","323516","0.0-1.0-326.0","0","0","54331","","null","","","null","36","","","","","","","","","","","","","","","",""
"","ISI","","html-keyboard-response","241","324518","0.0-1.0-327.0","0","0","54331","","null","","","null","36","NaN","","","","","","","","","","","","","","",""
"","S2","","html-keyboard-response","242","324771","0.0-1.0-328.0","0","0","54331","","null","","","null","36","","NaN","","","","","","","","","","","","","",""
"","response","","html-keyboard-response","243","325947","0.0-1.0-329.0-0.0","0","0","54331","","1175","","","68","36","","","1","36","training","adjacent","GF","7","6","L.jpg","N.jpg","0","0","1","",""
"","feedback","","html-keyboard-response","244","326950","0.0-1.0-330.0-0.0","0","0","54331","","null","","","null","36","","","","","","","","","","","","","","","",""
"","ITI","","html-keyboard-response","245","327953","0.0-1.0-333.0","0","0","54331","","null","","","null","36","","","","","","","","","","","","","","","NaN",""
"","S1","","html-keyboard-response","246","328205","0.0-1.0-335.0","0","0","54331","","null","","","null","37","","","","","","","","","","","","","","","",""
"","ISI","","html-keyboard-response","247","329208","0.0-1.0-336.0","0","0","54331","","null","","","null","37","NaN","","","","","","","","","","","","","","",""
"","S2","","html-keyboard-response","248","329461","0.0-1.0-337.0","0","0","54331","","null","","","null","37","","NaN","","","","","","","","","","","","","",""
"","response","","html-keyboard-response","249","330349","0.0-1.0-338.0-0.0","0","0","54331","","886","","","75","37","","","1","37","training","adjacent","DC","4","3","O.jpg","R.jpg","1","0","0","",""
"","feedback","","html-keyboard-response","250","331352","0.0-1.0-339.0-0.0","0","0","54331","","null","","","null","37","","","","","","","","","","","","","","","",""
"","time_out","","html-keyboard-response","251","333355","0.0-1.0-341.0-0.0","0","0","54331","","null","","","null","37","","","","","","","","","","","","","","","",""
"","ITI","","html-keyboard-response","252","334357","0.0-1.0-342.0","0","0","54331","","null","","","null","37","","","","","","","","","","","","","","","NaN",""
"","S1","","html-keyboard-response","253","334610","0.0-1.0-344.0","0","0","54331","","null","","","null","38","","","","","","","","","","","","","","","",""
"","ISI","","html-keyboard-response","254","335613","0.0-1.0-345.0","0","0","54331","","null","","","null","38","NaN","","","","","","","","","","","","","","",""
"","S2","","html-keyboard-response","255","335865","0.0-1.0-346.0","0","0","54331","","null","","","null","38","","NaN","","","","","","","","","","","","","",""
"","response","","html-keyboard-response","256","336637","0.0-1.0-347.0-0.0","0","0","54331","","770","","","68","38","","","1","38","training","adjacent","BA","2","1","P.jpg","Q.jpg","0","0","1","",""
"","feedback","","html-keyboard-response","257","337651","0.0-1.0-348.0-0.0","0","0","54331","","null","","","null","38","","","","","","","","","","","","","","","",""
"","ITI","","html-keyboard-response","258","338653","0.0-1.0-351.0","0","0","54331","","null","","","null","38","","","","","","","","","","","","","","","NaN",""
"","S1","","html-keyboard-response","259","338906","0.0-1.0-353.0","0","0","54331","","null","","","null","39","","","","","","","","","","","","","","","",""
"","ISI","","html-keyboard-response","260","339908","0.0-1.0-354.0","0","0","54331","","null","","","null","39","NaN","","","","","","","","","","","","","","",""
"","S2","","html-keyboard-response","261","340161","0.0-1.0-355.0","0","0","54331","","null","","","null","39","","NaN","","","","","","","","","","","","","",""
"","response","","html-keyboard-response","262","341457","0.0-1.0-356.0-0.0","0","0","54331","","1295","","","75","39","","","1","39","training","adjacent","CB","3","2","R.jpg","P.jpg","1","0","0","",""
"","feedback","","html-keyboard-response","263","342460","0.0-1.0-357.0-0.0","0","0","54331","","null","","","null","39","","","","","","","","","","","","","","","",""
"","time_out","","html-keyboard-response","264","344463","0.0-1.0-359.0-0.0","0","0","54331","","null","","","null","39","","","","","","","","","","","","","","","",""
"","ITI","","html-keyboard-response","265","345466","0.0-1.0-360.0","0","0","54331","","null","","","null","39","","","","","","","","","","","","","","","NaN",""
"","S1","","html-keyboard-response","266","345719","0.0-1.0-362.0","0","0","54331","","null","","","null","40","","","","","","","","","","","","","","","",""
"","ISI","","html-keyboard-response","267","346721","0.0-1.0-363.0","0","0","54331","","null","","","null","40","NaN","","","","","","","","","","","","","","",""
"","S2","","html-keyboard-response","268","346974","0.0-1.0-364.0","0","0","54331","","null","","","null","40","","NaN","","","","","","","","","","","","","",""
"","response","","html-keyboard-response","269","348366","0.0-1.0-365.0-0.0","0","0","54331","","1391","","","68","40","","","1","40","training","adjacent","DC","4","3","O.jpg","R.jpg","0","0","1","",""
"","feedback","","html-keyboard-response","270","349369","0.0-1.0-366.0-0.0","0","0","54331","","null","","","null","40","","","","","","","","","","","","","","","",""
"","ITI","","html-keyboard-response","271","350372","0.0-1.0-369.0","0","0","54331","","null","","","null","40","","","","","","","","","","","","","","","NaN",""
"","S1","","html-keyboard-response","272","350625","0.0-1.0-371.0","0","0","54331","","null","","","null","41","","","","","","","","","","","","","","","",""
"","ISI","","html-keyboard-response","273","351626","0.0-1.0-372.0","0","0","54331","","null","","","null","41","NaN","","","","","","","","","","","","","","",""
"","S2","","html-keyboard-response","274","351879","0.0-1.0-373.0","0","0","54331","","null","","","null","41","","NaN","","","","","","","","","","","","","",""
"","response","","html-keyboard-response","275","352712","0.0-1.0-374.0-0.0","0","0","54331","","832","","","68","41","","","1","41","training","adjacent","DC","4","3","O.jpg","R.jpg","0","0","1","",""
"","feedback","","html-keyboard-response","276","353715","0.0-1.0-375.0-0.0","0","0","54331","","null","","","null","41","","","","","","","","","","","","","","","",""
"","ITI","","html-keyboard-response","277","354717","0.0-1.0-378.0","0","0","54331","","null","","","null","41","","","","","","","","","","","","","","","NaN",""
"","S1","","html-keyboard-response","278","354980","0.0-1.0-380.0","0","0","54331","","null","","","null","42","","","","","","","","","","","","","","","",""
"","ISI","","html-keyboard-response","279","355983","0.0-1.0-381.0","0","0","54331","","null","","","null","42","NaN","","","","","","","","","","","","","","",""
"","S2","","html-keyboard-response","280","356235","0.0-1.0-382.0","0","0","54331","","null","","","null","42","","NaN","","","","","","","","","","","","","",""
"","response","","html-keyboard-response","281","357771","0.0-1.0-383.0-0.0","0","0","54331","","1535","","","75","42","","","1","42","training","adjacent","DE","4","5","O.jpg","M.jpg","1","1","1","",""
"","feedback","","html-keyboard-response","282","358773","0.0-1.0-384.0-0.0","0","0","54331","","null","","","null","42","","","","","","","","","","","","","","","",""
"","ITI","","html-keyboard-response","283","359777","0.0-1.0-387.0","0","0","54331","","null","","","null","42","","","","","","","","","","","","","","","NaN",""
"","S1","","html-keyboard-response","284","360029","0.0-1.0-389.0","0","0","54331","","null","","","null","43","","","","","","","","","","","","","","","",""
"","ISI","","html-keyboard-response","285","361031","0.0-1.0-390.0","0","0","54331","","null","","","null","43","NaN","","","","","","","","","","","","","","",""
"","S2","","html-keyboard-response","286","361284","0.0-1.0-391.0","0","0","54331","","null","","","null","43","","NaN","","","","","","","","","","","","","",""
"","response","","html-keyboard-response","287","362143","0.0-1.0-392.0-0.0","0","0","54331","","858","","","75","43","","","1","43","training","adjacent","ED","5","4","M.jpg","O.jpg","1","0","0","",""
"","feedback","","html-keyboard-response","288","363145","0.0-1.0-393.0-0.0","0","0","54331","","null","","","null","43","","","","","","","","","","","","","","","",""
"","time_out","","html-keyboard-response","289","365148","0.0-1.0-395.0-0.0","0","0","54331","","null","","","null","43","","","","","","","","","","","","","","","",""
"","ITI","","html-keyboard-response","290","366150","0.0-1.0-396.0","0","0","54331","","null","","","null","43","","","","","","","","","","","","","","","NaN",""
"","S1","","html-keyboard-response","291","366403","0.0-1.0-398.0","0","0","54331","","null","","","null","44","","","","","","","","","","","","","","","",""
"","ISI","","html-keyboard-response","292","367406","0.0-1.0-399.0","0","0","54331","","null","","","null","44","NaN","","","","","","","","","","","","","","",""
"","S2","","html-keyboard-response","293","367668","0.0-1.0-400.0","0","0","54331","","null","","","null","44","","NaN","","","","","","","","","","","","","",""
"","response","","html-keyboard-response","294","368305","0.0-1.0-401.0-0.0","0","0","54331","","635","","","68","44","","","1","44","training","adjacent","CD","3","4","R.jpg","O.jpg","0","1","0","",""
"","feedback","","html-keyboard-response","295","369308","0.0-1.0-402.0-0.0","0","0","54331","","null","","","null","44","","","","","","","","","","","","","","","",""
"","time_out","","html-keyboard-response","296","371311","0.0-1.0-404.0-0.0","0","0","54331","","null","","","null","44","","","","","","","","","","","","","","","",""
"","ITI","","html-keyboard-response","297","372313","0.0-1.0-405.0","0","0","54331","","null","","","null","44","","","","","","","","","","","","","","","NaN",""
"","S1","","html-keyboard-response","298","372566","0.0-1.0-407.0","0","0","54331","","null","","","null","45","","","","","","","","","","","","","","","",""
"","ISI","","html-keyboard-response","299","373568","0.0-1.0-408.0","0","0","54331","","null","","","null","45","NaN","","","","","","","","","","","","","","",""
"","S2","","html-keyboard-response","300","373821","0.0-1.0-409.0","0","0","54331","","null","","","null","45","","NaN","","","","","","","","","","","","","",""
"","response","","html-keyboard-response","301","375299","0.0-1.0-410.0-0.0","0","0","54331","","1477","","","75","45","","","1","45","training","adjacent","BA","2","1","P.jpg","Q.jpg","1","0","0","",""
"","feedback","","html-keyboard-response","302","376303","0.0-1.0-411.0-0.0","0","0","54331","","null","","","null","45","","","","","","","","","","","","","","","",""
"","time_out","","html-keyboard-response","303","378305","0.0-1.0-413.0-0.0","0","0","54331","","null","","","null","45","","","","","","","","","","","","","","","",""
"","ITI","","html-keyboard-response","304","379308","0.0-1.0-414.0","0","0","54331","","null","","","null","45","","","","","","","","","","","","","","","NaN",""
"","S1","","html-keyboard-response","305","379560","0.0-1.0-416.0","0","0","54331","","null","","","null","46","","","","","","","","","","","","","","","",""
"","ISI","","html-keyboard-response","306","380564","0.0-1.0-417.0","0","0","54331","","null","","","null","46","NaN","","","","","","","","","","","","","","",""
"","S2","","html-keyboard-response","307","380816","0.0-1.0-418.0","0","0","54331","","null","","","null","46","","NaN","","","","","","","","","","","","","",""
"","response","","html-keyboard-response","308","382569","0.0-1.0-419.0-0.0","0","0","54331","","null","","","null","46","","","1","46","training","adjacent","GF","7","6","L.jpg","N.jpg","NaN","0","0","",""
"","too_slow_prompt","","html-keyboard-response","309","383572","0.0-1.0-421.0-0.0","1","0","54331","","null","","","null","","","","","","","","","","","","","","","","",""
"","time_out","","html-keyboard-response","310","385575","0.0-1.0-422.0-0.0","0","0","54331","","null","","","null","46","","","","","","","","","","","","","","","",""
"","ITI","","html-keyboard-response","311","386577","0.0-1.0-423.0","0","0","54331","","null","","","null","46","","","","","","","","","","","","","","","NaN",""
"","S1","","html-keyboard-response","312","386831","0.0-1.0-425.0","0","0","54331","","null","","","null","47","","","","","","","","","","","","","","","",""
"","ISI","","html-keyboard-response","313","387833","0.0-1.0-426.0","0","0","54331","","null","","","null","47","NaN","","","","","","","","","","","","","","",""
"","S2","","html-keyboard-response","314","388086","0.0-1.0-427.0","0","0","54331","","null","","","null","47","","NaN","","","","","","","","","","","","","",""
"","response","","html-keyboard-response","315","389315","0.0-1.0-428.0-0.0","0","0","54331","","1228","","","68","47","","","1","47","training","adjacent","GF","7","6","L.jpg","N.jpg","0","0","1","",""
"","feedback","","html-keyboard-response","316","390318","0.0-1.0-429.0-0.0","0","0","54331","","null","","","null","47","","","","","","","","","","","","","","","",""
"","ITI","","html-keyboard-response","317","391320","0.0-1.0-432.0","0","0","54331","","null","","","null","47","","","","","","","","","","","","","","","NaN",""
"","block_over","","html-keyboard-response","318","441604","0.0-1.0-433.0-0.0","0","0","54331","","50282","","","32","47","","","","","","","","","","","","","","","",""
"","S1","","html-keyboard-response","319","441857","0.0-1.0-434.0","0","0","54331","","null","","","null","48","","","","","","","","","","","","","","","",""
"","ISI","","html-keyboard-response","320","442860","0.0-1.0-435.0","0","0","54331","","null","","","null","48","NaN","","","","","","","","","","","","","","",""
"","S2","","html-keyboard-response","321","443113","0.0-1.0-436.0","0","0","54331","","null","","","null","48","","NaN","","","","","","","","","","","","","",""
"","response","","html-keyboard-response","322","444179","0.0-1.0-437.0-0.0","0","0","54331","","1064","","","68","48","","","2","48","training","adjacent","DC","4","3","O.jpg","R.jpg","0","0","1","",""
"","feedback","","html-keyboard-response","323","445181","0.0-1.0-438.0-0.0","0","0","54331","","null","","","null","48","","","","","","","","","","","","","","","",""
"","ITI","","html-keyboard-response","324","446184","0.0-1.0-441.0","0","0","54331","","null","","","null","48","","","","","","","","","","","","","","","NaN",""
"","S1","","html-keyboard-response","325","446436","0.0-1.0-443.0","0","0","54331","","null","","","null","49","","","","","","","","","","","","","","","",""
"","ISI","","html-keyboard-response","326","447439","0.0-1.0-444.0","0","0","54331","","null","","","null","49","NaN","","","","","","","","","","","","","","",""
"","S2","","html-keyboard-response","327","447702","0.0-1.0-445.0","0","0","54331","","null","","","null","49","","NaN","","","","","","","","","","","","","",""
"","response","","html-keyboard-response","328","449078","0.0-1.0-446.0-0.0","0","0","54331","","1374","","","75","49","","","2","49","training","adjacent","GF","7","6","L.jpg","N.jpg","1","0","0","",""
"","feedback","","html-keyboard-response","329","450081","0.0-1.0-447.0-0.0","0","0","54331","","null","","","null","49","","","","","","","","","","","","","","","",""
"","time_out","","html-keyboard-response","330","452083","0.0-1.0-449.0-0.0","0","0","54331","","null","","","null","49","","","","","","","","","","","","","","","",""
"","ITI","","html-keyboard-response","331","453085","0.0-1.0-450.0","0","0","54331","","null","","","null","49","","","","","","","","","","","","","","","NaN",""
"","S1","","html-keyboard-response","332","453338","0.0-1.0-452.0","0","0","54331","","null","","","null","50","","","","","","","","","","","","","","","",""
"","ISI","","html-keyboard-response","333","454341","0.0-1.0-453.0","0","0","54331","","null","","","null","50","NaN","","","","","","","","","","","","","","",""
"","S2","","html-keyboard-response","334","454593","0.0-1.0-454.0","0","0","54331","","null","","","null","50","","NaN","","","","","","","","","","","","","",""
"","response","","html-keyboard-response","335","455307","0.0-1.0-455.0-0.0","0","0","54331","","713","","","75","50","","","2","50","training","adjacent","EF","5","6","M.jpg","N.jpg","1","1","1","",""
"","feedback","","html-keyboard-response","336","456317","0.0-1.0-456.0-0.0","0","0","54331","","null","","","null","50","","","","","","","","","","","","","","","",""
"","ITI","","html-keyboard-response","337","457319","0.0-1.0-459.0","0","0","54331","","null","","","null","50","","","","","","","","","","","","","","","NaN",""
"","S1","","html-keyboard-response","338","457571","0.0-1.0-461.0","0","0","54331","","null","","","null","51","","","","","","","","","","","","","","","",""
"","ISI","","html-keyboard-response","339","458575","0.0-1.0-462.0","0","0","54331","","null","","","null","51","NaN","","","","","","","","","","","","","","",""
"","S2","","html-keyboard-response","340","458827","0.0-1.0-463.0","0","0","54331","","null","","","null","51","","NaN","","","","","","","","","","","","","",""
"","response","","html-keyboard-response","341","459735","0.0-1.0-464.0-0.0","0","0","54331","","906","","","75","51","","","2","51","training","adjacent","DE","4","5","O.jpg","M.jpg","1","1","1","",""
"","feedback","","html-keyboard-response","342","460738","0.0-1.0-465.0-0.0","0","0","54331","","null","","","null","51","","","","","","","","","","","","","","","",""
"","ITI","","html-keyboard-response","343","461741","0.0-1.0-468.0","0","0","54331","","null","","","null","51","","","","","","","","","","","","","","","NaN",""
"","S1","","html-keyboard-response","344","461993","0.0-1.0-470.0","0","0","54331","","null","","","null","52","","","","","","","","","","","","","","","",""
"","ISI","","html-keyboard-response","345","462995","0.0-1.0-471.0","0","0","54331","","null","","","null","52","NaN","","","","","","","","","","","","","","",""
"","S2","","html-keyboard-response","346","463253","0.0-1.0-472.0","0","0","54331","","null","","","null","52","","NaN","","","","","","","","","","","","","",""
"","response","","html-keyboard-response","347","463728","0.0-1.0-473.0-0.0","0","0","54331","","473","","","75","52","","","2","52","training","adjacent","AB","1","2","Q.jpg","P.jpg","1","1","1","",""
"","feedback","","html-keyboard-response","348","464731","0.0-1.0-474.0-0.0","0","0","54331","","null","","","null","52","","","","","","","","","","","","","","","",""
"","ITI","","html-keyboard-response","349","465734","0.0-1.0-477.0","0","0","54331","","null","","","null","52","","","","","","","","","","","","","","","NaN",""
"","S1","","html-keyboard-response","350","465987","0.0-1.0-479.0","0","0","54331","","null","","","null","53","","","","","","","","","","","","","","","",""
"","ISI","","html-keyboard-response","351","466988","0.0-1.0-480.0","0","0","54331","","null","","","null","53","NaN","","","","","","","","","","","","","","",""
"","S2","","html-keyboard-response","352","467240","0.0-1.0-481.0","0","0","54331","","null","","","null","53","","NaN","","","","","","","","","","","","","",""
"","response","","html-keyboard-response","353","467984","0.0-1.0-482.0-0.0","0","0","54331","","742","","","75","53","","","2","53","training","adjacent","CB","3","2","R.jpg","P.jpg","1","0","0","",""
"","feedback","","html-keyboard-response","354","468987","0.0-1.0-483.0-0.0","0","0","54331","","null","","","null","53","","","","","","","","","","","","","","","",""
"","time_out","","html-keyboard-response","355","470989","0.0-1.0-485.0-0.0","0","0","54331","","null","","","null","53","","","","","","","","","","","","","","","",""
"","ITI","","html-keyboard-response","356","471991","0.0-1.0-486.0","0","0","54331","","null","","","null","53","","","","","","","","","","","","","","","NaN",""
"","S1","","html-keyboard-response","357","472244","0.0-1.0-488.0","0","0","54331","","null","","","null","54","","","","","","","","","","","","","","","",""
"","ISI","","html-keyboard-response","358","473246","0.0-1.0-489.0","0","0","54331","","null","","","null","54","NaN","","","","","","","","","","","","","","",""
"","S2","","html-keyboard-response","359","473500","0.0-1.0-490.0","0","0","54331","","null","","","null","54","","NaN","","","","","","","","","","","","","",""
"","response","","html-keyboard-response","360","474272","0.0-1.0-491.0-0.0","0","0","54331","","771","","","75","54","","","2","54","training","adjacent","BC","2","3","P.jpg","R.jpg","1","1","1","",""
"","feedback","","html-keyboard-response","361","475274","0.0-1.0-492.0-0.0","0","0","54331","","null","","","null","54","","","","","","","","","","","","","","","",""
"","ITI","","html-keyboard-response","362","476278","0.0-1.0-495.0","0","0","54331","","null","","","null","54","","","","","","","","","","","","","","","NaN",""
"","S1","","html-keyboard-response","363","476531","0.0-1.0-497.0","0","0","54331","","null","","","null","55","","","","","","","","","","","","","","","",""
"","ISI","","html-keyboard-response","364","477534","0.0-1.0-498.0","0","0","54331","","null","","","null","55","NaN","","","","","","","","","","","","","","",""
"","S2","","html-keyboard-response","365","477787","0.0-1.0-499.0","0","0","54331","","null","","","null","55","","NaN","","","","","","","","","","","","","",""
"","response","","html-keyboard-response","366","478810","0.0-1.0-500.0-0.0","0","0","54331","","1020","","","68","55","","","2","55","training","adjacent","CD","3","4","R.jpg","O.jpg","0","1","0","",""
"","feedback","","html-keyboard-response","367","479813","0.0-1.0-501.0-0.0","0","0","54331","","null","","","null","55","","","","","","","","","","","","","","","",""
"","time_out","","html-keyboard-response","368","481816","0.0-1.0-503.0-0.0","0","0","54331","","null","","","null","55","","","","","","","","","","","","","","","",""
"","ITI","","html-keyboard-response","369","482818","0.0-1.0-504.0","0","0","54331","","null","","","null","55","","","","","","","","","","","","","","","NaN",""
"","S1","","html-keyboard-response","370","483071","0.0-1.0-506.0","0","0","54331","","null","","","null","56","","","","","","","","","","","","","","","",""
"","ISI","","html-keyboard-response","371","484074","0.0-1.0-507.0","0","0","54331","","null","","","null","56","NaN","","","","","","","","","","","","","","",""
"","S2","","html-keyboard-response","372","484332","0.0-1.0-508.0","0","0","54331","","null","","","null","56","","NaN","","","","","","","","","","","","","",""
"","response","","html-keyboard-response","373","485482","0.0-1.0-509.0-0.0","0","0","54331","","1148","","","75","56","","","2","56","training","adjacent","FG","6","7","N.jpg","L.jpg","1","1","1","",""
"","feedback","","html-keyboard-response","374","486485","0.0-1.0-510.0-0.0","0","0","54331","","null","","","null","56","","","","","","","","","","","","","","","",""
"","ITI","","html-keyboard-response","375","487487","0.0-1.0-513.0","0","0","54331","","null","","","null","56","","","","","","","","","","","","","","","NaN",""
"","S1","","html-keyboard-response","376","487740","0.0-1.0-515.0","0","0","54331","","null","","","null","57","","","","","","","","","","","","","","","",""
"","ISI","","html-keyboard-response","377","488743","0.0-1.0-516.0","0","0","54331","","null","","","null","57","NaN","","","","","","","","","","","","","","",""
"","S2","","html-keyboard-response","378","488996","0.0-1.0-517.0","0","0","54331","","null","","","null","57","","NaN","","","","","","","","","","","","","",""
"","response","","html-keyboard-response","379","490601","0.0-1.0-518.0-0.0","0","0","54331","","1603","","","75","57","","","2","57","training","adjacent","EF","5","6","M.jpg","N.jpg","1","1","1","",""
"","feedback","","html-keyboard-response","380","491605","0.0-1.0-519.0-0.0","0","0","54331","","null","","","null","57","","","","","","","","","","","","","","","",""
"","ITI","","html-keyboard-response","381","492607","0.0-1.0-522.0","0","0","54331","","null","","","null","57","","","","","","","","","","","","","","","NaN",""
"","S1","","html-keyboard-response","382","492860","0.0-1.0-524.0","0","0","54331","","null","","","null","58","","","","","","","","","","","","","","","",""
"","ISI","","html-keyboard-response","383","493863","0.0-1.0-525.0","0","0","54331","","null","","","null","58","NaN","","","","","","","","","","","","","","",""
"","S2","","html-keyboard-response","384","494117","0.0-1.0-526.0","0","0","54331","","null","","","null","58","","NaN","","","","","","","","","","","","","",""
"","response","","html-keyboard-response","385","495102","0.0-1.0-527.0-0.0","0","0","54331","","983","","","68","58","","","2","58","training","adjacent","FE","6","5","N.jpg","M.jpg","0","0","1","",""
"","feedback","","html-keyboard-response","386","496105","0.0-1.0-528.0-0.0","0","0","54331","","null","","","null","58","","","","","","","","","","","","","","","",""
"","ITI","","html-keyboard-response","387","497108","0.0-1.0-531.0","0","0","54331","","null","","","null","58","","","","","","","","","","","","","","","NaN",""
"","S1","","html-keyboard-response","388","497361","0.0-1.0-533.0","0","0","54331","","null","","","null","59","","","","","","","","","","","","","","","",""
"","ISI","","html-keyboard-response","389","498363","0.0-1.0-534.0","0","0","54331","","null","","","null","59","NaN","","","","","","","","","","","","","","",""
"","S2","","html-keyboard-response","390","498617","0.0-1.0-535.0","0","0","54331","","null","","","null","59","","NaN","","","","","","","","","","","","","",""
"","response","","html-keyboard-response","391","499305","0.0-1.0-536.0-0.0","0","0","54331","","687","","","75","59","","","2","59","training","adjacent","CB","3","2","R.jpg","P.jpg","1","0","0","",""
"","feedback","","html-keyboard-response","392","500308","0.0-1.0-537.0-0.0","0","0","54331","","null","","","null","59","","","","","","","","","","","","","","","",""
"","time_out","","html-keyboard-response","393","502311","0.0-1.0-539.0-0.0","0","0","54331","","null","","","null","59","","","","","","","","","","","","","","","",""
"","ITI","","html-keyboard-response","394","503314","0.0-1.0-540.0","0","0","54331","","null","","","null","59","","","","","","","","","","","","","","","NaN",""
"","S1","","html-keyboard-response","395","503567","0.0-1.0-542.0","0","0","54331","","null","","","null","60","","","","","","","","","","","","","","","",""
"","ISI","","html-keyboard-response","396","504569","0.0-1.0-543.0","0","0","54331","","null","","","null","60","NaN","","","","","","","","","","","","","","",""
"","S2","","html-keyboard-response","397","504821","0.0-1.0-544.0","0","0","54331","","null","","","null","60","","NaN","","","","","","","","","","","","","",""
"","response","","html-keyboard-response","398","505490","0.0-1.0-545.0-0.0","0","0","54331","","667","","","75","60","","","2","60","training","adjacent","CD","3","4","R.jpg","O.jpg","1","1","1","",""
"","feedback","","html-keyboard-response","399","506493","0.0-1.0-546.0-0.0","0","0","54331","","null","","","null","60","","","","","","","","","","","","","","","",""
"","ITI","","html-keyboard-response","400","507496","0.0-1.0-549.0","0","0","54331","","null","","","null","60","","","","","","","","","","","","","","","NaN",""
"","S1","","html-keyboard-response","401","507749","0.0-1.0-551.0","0","0","54331","","null","","","null","61","","","","","","","","","","","","","","","",""
"","ISI","","html-keyboard-response","402","508752","0.0-1.0-552.0","0","0","54331","","null","","","null","61","NaN","","","","","","","","","","","","","","",""
"","S2","","html-keyboard-response","403","509005","0.0-1.0-553.0","0","0","54331","","null","","","null","61","","NaN","","","","","","","","","","","","","",""
"","response","","html-keyboard-response","404","509694","0.0-1.0-554.0-0.0","0","0","54331","","687","","","68","61","","","2","61","training","adjacent","GF","7","6","L.jpg","N.jpg","0","0","1","",""
"","feedback","","html-keyboard-response","405","510697","0.0-1.0-555.0-0.0","0","0","54331","","null","","","null","61","","","","","","","","","","","","","","","",""
"","ITI","","html-keyboard-response","406","511701","0.0-1.0-558.0","0","0","54331","","null","","","null","61","","","","","","","","","","","","","","","NaN",""
"","S1","","html-keyboard-response","407","511954","0.0-1.0-560.0","0","0","54331","","null","","","null","62","","","","","","","","","","","","","","","",""
"","ISI","","html-keyboard-response","408","512957","0.0-1.0-561.0","0","0","54331","","null","","","null","62","NaN","","","","","","","","","","","","","","",""
"","S2","","html-keyboard-response","409","513210","0.0-1.0-562.0","0","0","54331","","null","","","null","62","","NaN","","","","","","","","","","","","","",""
"","response","","html-keyboard-response","410","514962","0.0-1.0-563.0-0.0","0","0","54331","","null","","","null","62","","","2","62","training","adjacent","ED","5","4","M.jpg","O.jpg","NaN","0","0","",""
"","too_slow_prompt","","html-keyboard-response","411","515965","0.0-1.0-565.0-0.0","1","0","54331","","null","","","null","","","","","","","","","","","","","","","","",""
"","time_out","","html-keyboard-response","412","517968","0.0-1.0-566.0-0.0","0","0","54331","","null","","","null","62","","","","","","","","","","","","","","","",""
"","ITI","","html-keyboard-response","413","518971","0.0-1.0-567.0","0","0","54331","","null","","","null","62","","","","","","","","","","","","","","","NaN",""
"","S1","","html-keyboard-response","414","519223","0.0-1.0-569.0","0","0","54331","","null","","","null","63","","","","","","","","","","","","","","","",""
"","ISI","","html-keyboard-response","415","520226","0.0-1.0-570.0","0","0","54331","","null","","","null","63","NaN","","","","","","","","","","","","","","",""
"","S2","","html-keyboard-response","416","520479","0.0-1.0-571.0","0","0","54331","","null","","","null","63","","NaN","","","","","","","","","","","","","",""
"","response","","html-keyboard-response","417","520682","0.0-1.0-572.0-0.0","0","0","54331","","201","","","75","63","","","2","63","training","adjacent","AB","1","2","Q.jpg","P.jpg","1","1","1","",""
"","feedback","","html-keyboard-response","418","521686","0.0-1.0-573.0-0.0","0","0","54331","","null","","","null","63","","","","","","","","","","","","","","","",""
"","ITI","","html-keyboard-response","419","522689","0.0-1.0-576.0","0","0","54331","","null","","","null","63","","","","","","","","","","","","","","","NaN",""
"","S1","","html-keyboard-response","420","522941","0.0-1.0-578.0","0","0","54331","","null","","","null","64","","","","","","","","","","","","","","","",""
"","ISI","","html-keyboard-response","421","523944","0.0-1.0-579.0","0","0","54331","","null","","","null","64","NaN","","","","","","","","","","","","","","",""
"","S2","","html-keyboard-response","422","524198","0.0-1.0-580.0","0","0","54331","","null","","","null","64","","NaN","","","","","","","","","","","","","",""
"","response","","html-keyboard-response","423","524719","0.0-1.0-581.0-0.0","0","0","54331","","519","","","75","64","","","2","64","training","adjacent","FE","6","5","N.jpg","M.jpg","1","0","0","",""
"","feedback","","html-keyboard-response","424","525725","0.0-1.0-582.0-0.0","0","0","54331","","null","","","null","64","","","","","","","","","","","","","","","",""
"","time_out","","html-keyboard-response","425","527727","0.0-1.0-584.0-0.0","0","0","54331","","null","","","null","64","","","","","","","","","","","","","","","",""
"","ITI","","html-keyboard-response","426","528730","0.0-1.0-585.0","0","0","54331","","null","","","null","64","","","","","","","","","","","","","","","NaN",""
"","S1","","html-keyboard-response","427","528983","0.0-1.0-587.0","0","0","54331","","null","","","null","65","","","","","","","","","","","","","","","",""
"","ISI","","html-keyboard-response","428","529985","0.0-1.0-588.0","0","0","54331","","null","","","null","65","NaN","","","","","","","","","","","","","","",""
"","S2","","html-keyboard-response","429","530238","0.0-1.0-589.0","0","0","54331","","null","","","null","65","","NaN","","","","","","","","","","","","","",""
"","response","","html-keyboard-response","430","530848","0.0-1.0-590.0-0.0","0","0","54331","","609","","","68","65","","","2","65","training","adjacent","BC","2","3","P.jpg","R.jpg","0","1","0","",""
"","feedback","","html-keyboard-response","431","531851","0.0-1.0-591.0-0.0","0","0","54331","","null","","","null","65","","","","","","","","","","","","","","","",""
"","time_out","","html-keyboard-response","432","533853","0.0-1.0-593.0-0.0","0","0","54331","","null","","","null","65","","","","","","","","","","","","","","","",""
"","ITI","","html-keyboard-response","433","534855","0.0-1.0-594.0","0","0","54331","","null","","","null","65","","","","","","","","","","","","","","","NaN",""
"","S1","","html-keyboard-response","434","535119","0.0-1.0-596.0","0","0","54331","","null","","","null","66","","","","","","","","","","","","","","","",""
"","ISI","","html-keyboard-response","435","536122","0.0-1.0-597.0","0","0","54331","","null","","","null","66","NaN","","","","","","","","","","","","","","",""
"","S2","","html-keyboard-response","436","536374","0.0-1.0-598.0","0","0","54331","","null","","","null","66","","NaN","","","","","","","","","","","","","",""
"","response","","html-keyboard-response","437","537451","0.0-1.0-599.0-0.0","0","0","54331","","1074","","","75","66","","","2","66","training","adjacent","FE","6","5","N.jpg","M.jpg","1","0","0","",""
"","feedback","","html-keyboard-response","438","538454","0.0-1.0-600.0-0.0","0","0","54331","","null","","","null","66","","","","","","","","","","","","","","","",""
"","time_out","","html-keyboard-response","439","540457","0.0-1.0-602.0-0.0","0","0","54331","","null","","","null","66","","","","","","","","","","","","","","","",""
"","ITI","","html-keyboard-response","440","541459","0.0-1.0-603.0","0","0","54331","","null","","","null","66","","","","","","","","","","","","","","","NaN",""
"","S1","","html-keyboard-response","441","541711","0.0-1.0-605.0","0","0","54331","","null","","","null","67","","","","","","","","","","","","","","","",""
"","ISI","","html-keyboard-response","442","542714","0.0-1.0-606.0","0","0","54331","","null","","","null","67","NaN","","","","","","","","","","","","","","",""
"","S2","","html-keyboard-response","443","542967","0.0-1.0-607.0","0","0","54331","","null","","","null","67","","NaN","","","","","","","","","","","","","",""
"","response","","html-keyboard-response","444","544124","0.0-1.0-608.0-0.0","0","0","54331","","1156","","","75","67","","","2","67","training","adjacent","CD","3","4","R.jpg","O.jpg","1","1","1","",""
"","feedback","","html-keyboard-response","445","545128","0.0-1.0-609.0-0.0","0","0","54331","","null","","","null","67","","","","","","","","","","","","","","","",""
"","ITI","","html-keyboard-response","446","546132","0.0-1.0-612.0","0","0","54331","","null","","","null","67","","","","","","","","","","","","","","","NaN",""
"","S1","","html-keyboard-response","447","546386","0.0-1.0-614.0","0","0","54331","","null","","","null","68","","","","","","","","","","","","","","","",""
"","ISI","","html-keyboard-response","448","547388","0.0-1.0-615.0","0","0","54331","","null","","","null","68","NaN","","","","","","","","","","","","","","",""
"","S2","","html-keyboard-response","449","547642","0.0-1.0-616.0","0","0","54331","","null","","","null","68","","NaN","","","","","","","","","","","","","",""
"","response","","html-keyboard-response","450","548356","0.0-1.0-617.0-0.0","0","0","54331","","713","","","68","68","","","2","68","training","adjacent","FG","6","7","N.jpg","L.jpg","0","1","0","",""
"","feedback","","html-keyboard-response","451","549359","0.0-1.0-618.0-0.0","0","0","54331","","null","","","null","68","","","","","","","","","","","","","","","",""
"","time_out","","html-keyboard-response","452","551361","0.0-1.0-620.0-0.0","0","0","54331","","null","","","null","68","","","","","","","","","","","","","","","",""
"","ITI","","html-keyboard-response","453","552364","0.0-1.0-621.0","0","0","54331","","null","","","null","68","","","","","","","","","","","","","","","NaN",""
"","S1","","html-keyboard-response","454","552616","0.0-1.0-623.0","0","0","54331","","null","","","null","69","","","","","","","","","","","","","","","",""
"","ISI","","html-keyboard-response","455","553619","0.0-1.0-624.0","0","0","54331","","null","","","null","69","NaN","","","","","","","","","","","","","","",""
"","S2","","html-keyboard-response","456","553872","0.0-1.0-625.0","0","0","54331","","null","","","null","69","","NaN","","","","","","","","","","","","","",""
"","response","","html-keyboard-response","457","555046","0.0-1.0-626.0-0.0","0","0","54331","","1172","","","75","69","","","2","69","training","adjacent","DE","4","5","O.jpg","M.jpg","1","1","1","",""
"","feedback","","html-keyboard-response","458","556050","0.0-1.0-627.0-0.0","0","0","54331","","null","","","null","69","","","","","","","","","","","","","","","",""
"","ITI","","html-keyboard-response","459","557053","0.0-1.0-630.0","0","0","54331","","null","","","null","69","","","","","","","","","","","","","","","NaN",""
"","S1","","html-keyboard-response","460","557307","0.0-1.0-632.0","0","0","54331","","null","","","null","70","","","","","","","","","","","","","","","",""
"","ISI","","html-keyboard-response","461","558309","0.0-1.0-633.0","0","0","54331","","null","","","null","70","NaN","","","","","","","","","","","","","","",""
"","S2","","html-keyboard-response","462","558561","0.0-1.0-634.0","0","0","54331","","null","","","null","70","","NaN","","","","","","","","","","","","","",""
"","response","","html-keyboard-response","463","559012","0.0-1.0-635.0-0.0","0","0","54331","","449","","","68","70","","","2","70","training","adjacent","DE","4","5","O.jpg","M.jpg","0","1","0","",""
"","feedback","","html-keyboard-response","464","560016","0.0-1.0-636.0-0.0","0","0","54331","","null","","","null","70","","","","","","","","","","","","","","","",""
"","time_out","","html-keyboard-response","465","562019","0.0-1.0-638.0-0.0","0","0","54331","","null","","","null","70","","","","","","","","","","","","","","","",""
"","ITI","","html-keyboard-response","466","563022","0.0-1.0-639.0","0","0","54331","","null","","","null","70","","","","","","","","","","","","","","","NaN",""
"","S1","","html-keyboard-response","467","563274","0.0-1.0-641.0","0","0","54331","","null","","","null","71","","","","","","","","","","","","","","","",""
"","ISI","","html-keyboard-response","468","564276","0.0-1.0-642.0","0","0","54331","","null","","","null","71","NaN","","","","","","","","","","","","","","",""
"","S2","","html-keyboard-response","469","564532","0.0-1.0-643.0","0","0","54331","","null","","","null","71","","NaN","","","","","","","","","","","","","",""
"","response","","html-keyboard-response","470","565050","0.0-1.0-644.0-0.0","0","0","54331","","516","","","75","71","","","2","71","training","adjacent","FE","6","5","N.jpg","M.jpg","1","0","0","",""
"","feedback","","html-keyboard-response","471","566053","0.0-1.0-645.0-0.0","0","0","54331","","null","","","null","71","","","","","","","","","","","","","","","",""
"","time_out","","html-keyboard-response","472","568057","0.0-1.0-647.0-0.0","0","0","54331","","null","","","null","71","","","","","","","","","","","","","","","",""
"","ITI","","html-keyboard-response","473","569060","0.0-1.0-648.0","0","0","54331","","null","","","null","71","","","","","","","","","","","","","","","NaN",""
"","S1","","html-keyboard-response","474","569313","0.0-1.0-650.0","0","0","54331","","null","","","null","72","","","","","","","","","","","","","","","",""
"","ISI","","html-keyboard-response","475","570329","0.0-1.0-651.0","0","0","54331","","null","","","null","72","NaN","","","","","","","","","","","","","","",""
"","S2","","html-keyboard-response","476","570581","0.0-1.0-652.0","0","0","54331","","null","","","null","72","","NaN","","","","","","","","","","","","","",""
"","response","","html-keyboard-response","477","571360","0.0-1.0-653.0-0.0","0","0","54331","","777","","","75","72","","","2","72","training","adjacent","FG","6","7","N.jpg","L.jpg","1","1","1","",""
"","feedback","","html-keyboard-response","478","572363","0.0-1.0-654.0-0.0","0","0","54331","","null","","","null","72","","","","","","","","","","","","","","","",""
"","ITI","","html-keyboard-response","479","573367","0.0-1.0-657.0","0","0","54331","","null","","","null","72","","","","","","","","","","","","","","","NaN",""
"","S1","","html-keyboard-response","480","573619","0.0-1.0-659.0","0","0","54331","","null","","","null","73","","","","","","","","","","","","","","","",""
"","ISI","","html-keyboard-response","481","574622","0.0-1.0-660.0","0","0","54331","","null","","","null","73","NaN","","","","","","","","","","","","","","",""
"","S2","","html-keyboard-response","482","574874","0.0-1.0-661.0","0","0","54331","","null","","","null","73","","NaN","","","","","","","","","","","","","",""
"","response","","html-keyboard-response","483","575696","0.0-1.0-662.0-0.0","0","0","54331","","820","","","68","73","","","2","73","training","adjacent","ED","5","4","M.jpg","O.jpg","0","0","1","",""
"","feedback","","html-keyboard-response","484","576700","0.0-1.0-663.0-0.0","0","0","54331","","null","","","null","73","","","","","","","","","","","","","","","",""
"","ITI","","html-keyboard-response","485","577703","0.0-1.0-666.0","0","0","54331","","null","","","null","73","","","","","","","","","","","","","","","NaN",""
"","S1","","html-keyboard-response","486","577956","0.0-1.0-668.0","0","0","54331","","null","","","null","74","","","","","","","","","","","","","","","",""
"","ISI","","html-keyboard-response","487","578958","0.0-1.0-669.0","0","0","54331","","null","","","null","74","NaN","","","","","","","","","","","","","","",""
"","S2","","html-keyboard-response","488","579211","0.0-1.0-670.0","0","0","54331","","null","","","null","74","","NaN","","","","","","","","","","","","","",""
"","response","","html-keyboard-response","489","580707","0.0-1.0-671.0-0.0","0","0","54331","","1495","","","75","74","","","2","74","training","adjacent","GF","7","6","L.jpg","N.jpg","1","0","0","",""
"","feedback","","html-keyboard-response","490","581709","0.0-1.0-672.0-0.0","0","0","54331","","null","","","null","74","","","","","","","","","","","","","","","",""
"","time_out","","html-keyboard-response","491","583712","0.0-1.0-674.0-0.0","0","0","54331","","null","","","null","74","","","","","","","","","","","","","","","",""
"","ITI","","html-keyboard-response","492","584715","0.0-1.0-675.0","0","0","54331","","null","","","null","74","","","","","","","","","","","","","","","NaN",""
"","S1","","html-keyboard-response","493","584966","0.0-1.0-677.0","0","0","54331","","null","","","null","75","","","","","","","","","","","","","","","",""
"","ISI","","html-keyboard-response","494","585969","0.0-1.0-678.0","0","0","54331","","null","","","null","75","NaN","","","","","","","","","","","","","","",""
"","S2","","html-keyboard-response","495","586222","0.0-1.0-679.0","0","0","54331","","null","","","null","75","","NaN","","","","","","","","","","","","","",""
"","response","","html-keyboard-response","496","586791","0.0-1.0-680.0-0.0","0","0","54331","","567","","","68","75","","","2","75","training","adjacent","BA","2","1","P.jpg","Q.jpg","0","0","1","",""
"","feedback","","html-keyboard-response","497","587795","0.0-1.0-681.0-0.0","0","0","54331","","null","","","null","75","","","","","","","","","","","","","","","",""
"","ITI","","html-keyboard-response","498","588797","0.0-1.0-684.0","0","0","54331","","null","","","null","75","","","","","","","","","","","","","","","NaN",""
"","S1","","html-keyboard-response","499","589049","0.0-1.0-686.0","0","0","54331","","null","","","null","76","","","","","","","","","","","","","","","",""
"","ISI","","html-keyboard-response","500","590052","0.0-1.0-687.0","0","0","54331","","null","","","null","76","NaN","","","","","","","","","","","","","","",""
"","S2","","html-keyboard-response","501","590305","0.0-1.0-688.0","0","0","54331","","null","","","null","76","","NaN","","","","","","","","","","","","","",""
"","response","","html-keyboard-response","502","590554","0.0-1.0-689.0-0.0","0","0","54331","","249","","","75","76","","","2","76","training","adjacent","AB","1","2","Q.jpg","P.jpg","1","1","1","",""
"","feedback","","html-keyboard-response","503","591557","0.0-1.0-690.0-0.0","0","0","54331","","null","","","null","76","","","","","","","","","","","","","","","",""
"","ITI","","html-keyboard-response","504","592560","0.0-1.0-693.0","0","0","54331","","null","","","null","76","","","","","","","","","","","","","","","NaN",""
"","S1","","html-keyboard-response","505","592814","0.0-1.0-695.0","0","0","54331","","null","","","null","77","","","","","","","","","","","","","","","",""
"","ISI","","html-keyboard-response","506","593816","0.0-1.0-696.0","0","0","54331","","null","","","null","77","NaN","","","","","","","","","","","","","","",""
"","S2","","html-keyboard-response","507","594068","0.0-1.0-697.0","0","0","54331","","null","","","null","77","","NaN","","","","","","","","","","","","","",""
"","response","","html-keyboard-response","508","594550","0.0-1.0-698.0-0.0","0","0","54331","","479","","","75","77","","","2","77","training","adjacent","BA","2","1","P.jpg","Q.jpg","1","0","0","",""
"","feedback","","html-keyboard-response","509","595553","0.0-1.0-699.0-0.0","0","0","54331","","null","","","null","77","","","","","","","","","","","","","","","",""
"","time_out","","html-keyboard-response","510","597555","0.0-1.0-701.0-0.0","0","0","54331","","null","","","null","77","","","","","","","","","","","","","","","",""
"","ITI","","html-keyboard-response","511","598561","0.0-1.0-702.0","0","0","54331","","null","","","null","77","","","","","","","","","","","","","","","NaN",""
"","S1","","html-keyboard-response","512","598818","0.0-1.0-704.0","0","0","54331","","null","","","null","78","","","","","","","","","","","","","","","",""
"","ISI","","html-keyboard-response","513","599820","0.0-1.0-705.0","0","0","54331","","null","","","null","78","NaN","","","","","","","","","","","","","","",""
"","S2","","html-keyboard-response","514","600072","0.0-1.0-706.0","0","0","54331","","null","","","null","78","","NaN","","","","","","","","","","","","","",""
"","response","","html-keyboard-response","515","601024","0.0-1.0-707.0-0.0","0","0","54331","","950","","","68","78","","","2","78","training","adjacent","CB","3","2","R.jpg","P.jpg","0","0","1","",""
"","feedback","","html-keyboard-response","516","602026","0.0-1.0-708.0-0.0","0","0","54331","","null","","","null","78","","","","","","","","","","","","","","","",""
"","ITI","","html-keyboard-response","517","603029","0.0-1.0-711.0","0","0","54331","","null","","","null","78","","","","","","","","","","","","","","","NaN",""
"","S1","","html-keyboard-response","518","603281","0.0-1.0-713.0","0","0","54331","","null","","","null","79","","","","","","","","","","","","","","","",""
"","ISI","","html-keyboard-response","519","604283","0.0-1.0-714.0","0","0","54331","","null","","","null","79","NaN","","","","","","","","","","","","","","",""
"","S2","","html-keyboard-response","520","604535","0.0-1.0-715.0","0","0","54331","","null","","","null","79","","NaN","","","","","","","","","","","","","",""
"","response","","html-keyboard-response","521","604980","0.0-1.0-716.0-0.0","0","0","54331","","443","","","75","79","","","2","79","training","adjacent","ED","5","4","M.jpg","O.jpg","1","0","0","",""
"","feedback","","html-keyboard-response","522","605982","0.0-1.0-717.0-0.0","0","0","54331","","null","","","null","79","","","","","","","","","","","","","","","",""
"","time_out","","html-keyboard-response","523","607986","0.0-1.0-719.0-0.0","0","0","54331","","null","","","null","79","","","","","","","","","","","","","","","",""
"","ITI","","html-keyboard-response","524","608990","0.0-1.0-720.0","0","0","54331","","null","","","null","79","","","","","","","","","","","","","","","NaN",""
"","S1","","html-keyboard-response","525","609243","0.0-1.0-722.0","0","0","54331","","null","","","null","80","","","","","","","","","","","","","","","",""
"","ISI","","html-keyboard-response","526","610246","0.0-1.0-723.0","0","0","54331","","null","","","null","80","NaN","","","","","","","","","","","","","","",""
"","S2","","html-keyboard-response","527","610499","0.0-1.0-724.0","0","0","54331","","null","","","null","80","","NaN","","","","","","","","","","","","","",""
"","response","","html-keyboard-response","528","611261","0.0-1.0-725.0-0.0","0","0","54331","","760","","","68","80","","","2","80","training","adjacent","BA","2","1","P.jpg","Q.jpg","0","0","1","",""
"","feedback","","html-keyboard-response","529","612263","0.0-1.0-726.0-0.0","0","0","54331","","null","","","null","80","","","","","","","","","","","","","","","",""
"","ITI","","html-keyboard-response","530","613266","0.0-1.0-729.0","0","0","54331","","null","","","null","80","","","","","","","","","","","","","","","NaN",""
"","S1","","html-keyboard-response","531","613519","0.0-1.0-731.0","0","0","54331","","null","","","null","81","","","","","","","","","","","","","","","",""
"","ISI","","html-keyboard-response","532","614521","0.0-1.0-732.0","0","0","54331","","null","","","null","81","NaN","","","","","","","","","","","","","","",""
"","S2","","html-keyboard-response","533","614775","0.0-1.0-733.0","0","0","54331","","null","","","null","81","","NaN","","","","","","","","","","","","","",""
"","response","","html-keyboard-response","534","615947","0.0-1.0-734.0-0.0","0","0","54331","","1171","","","75","81","","","2","81","training","adjacent","EF","5","6","M.jpg","N.jpg","1","1","1","",""
"","feedback","","html-keyboard-response","535","616950","0.0-1.0-735.0-0.0","0","0","54331","","null","","","null","81","","","","","","","","","","","","","","","",""
"","ITI","","html-keyboard-response","536","617964","0.0-1.0-738.0","0","0","54331","","null","","","null","81","","","","","","","","","","","","","","","NaN",""
"","S1","","html-keyboard-response","537","618218","0.0-1.0-740.0","0","0","54331","","null","","","null","82","","","","","","","","","","","","","","","",""
"","ISI","","html-keyboard-response","538","619220","0.0-1.0-741.0","0","0","54331","","null","","","null","82","NaN","","","","","","","","","","","","","","",""
"","S2","","html-keyboard-response","539","619473","0.0-1.0-742.0","0","0","54331","","null","","","null","82","","NaN","","","","","","","","","","","","","",""
"","response","","html-keyboard-response","540","620133","0.0-1.0-743.0-0.0","0","0","54331","","658","","","68","82","","","2","82","training","adjacent","DC","4","3","O.jpg","R.jpg","0","0","1","",""
"","feedback","","html-keyboard-response","541","621136","0.0-1.0-744.0-0.0","0","0","54331","","null","","","null","82","","","","","","","","","","","","","","","",""
"","ITI","","html-keyboard-response","542","622139","0.0-1.0-747.0","0","0","54331","","null","","","null","82","","","","","","","","","","","","","","","NaN",""
"","S1","","html-keyboard-response","543","622392","0.0-1.0-749.0","0","0","54331","","null","","","null","83","","","","","","","","","","","","","","","",""
"","ISI","","html-keyboard-response","544","623394","0.0-1.0-750.0","0","0","54331","","null","","","null","83","NaN","","","","","","","","","","","","","","",""
"","S2","","html-keyboard-response","545","623647","0.0-1.0-751.0","0","0","54331","","null","","","null","83","","NaN","","","","","","","","","","","","","",""
"","response","","html-keyboard-response","546","624650","0.0-1.0-752.0-0.0","0","0","54331","","1002","","","75","83","","","2","83","training","adjacent","BC","2","3","P.jpg","R.jpg","1","1","1","",""
"","feedback","","html-keyboard-response","547","625654","0.0-1.0-753.0-0.0","0","0","54331","","null","","","null","83","","","","","","","","","","","","","","","",""
"","ITI","","html-keyboard-response","548","626658","0.0-1.0-756.0","0","0","54331","","null","","","null","83","","","","","","","","","","","","","","","NaN",""
"","S1","","html-keyboard-response","549","626910","0.0-1.0-758.0","0","0","54331","","null","","","null","84","","","","","","","","","","","","","","","",""
"","ISI","","html-keyboard-response","550","627913","0.0-1.0-759.0","0","0","54331","","null","","","null","84","NaN","","","","","","","","","","","","","","",""
"","S2","","html-keyboard-response","551","628166","0.0-1.0-760.0","0","0","54331","","null","","","null","84","","NaN","","","","","","","","","","","","","",""
"","response","","html-keyboard-response","552","629052","0.0-1.0-761.0-0.0","0","0","54331","","885","","","75","84","","","2","84","training","adjacent","DC","4","3","O.jpg","R.jpg","1","0","0","",""
"","feedback","","html-keyboard-response","553","630055","0.0-1.0-762.0-0.0","0","0","54331","","null","","","null","84","","","","","","","","","","","","","","","",""
"","time_out","","html-keyboard-response","554","632058","0.0-1.0-764.0-0.0","0","0","54331","","null","","","null","84","","","","","","","","","","","","","","","",""
"","ITI","","html-keyboard-response","555","633061","0.0-1.0-765.0","0","0","54331","","null","","","null","84","","","","","","","","","","","","","","","NaN",""
"","S1","","html-keyboard-response","556","633313","0.0-1.0-767.0","0","0","54331","","null","","","null","85","","","","","","","","","","","","","","","",""
"","ISI","","html-keyboard-response","557","634316","0.0-1.0-768.0","0","0","54331","","null","","","null","85","NaN","","","","","","","","","","","","","","",""
"","S2","","html-keyboard-response","558","634568","0.0-1.0-769.0","0","0","54331","","null","","","null","85","","NaN","","","","","","","","","","","","","",""
"","response","","html-keyboard-response","559","636153","0.0-1.0-770.0-0.0","0","0","54331","","1583","","","75","85","","","2","85","training","adjacent","ED","5","4","M.jpg","O.jpg","1","0","0","",""
"","feedback","","html-keyboard-response","560","637156","0.0-1.0-771.0-0.0","0","0","54331","","null","","","null","85","","","","","","","","","","","","","","","",""
"","time_out","","html-keyboard-response","561","639159","0.0-1.0-773.0-0.0","0","0","54331","","null","","","null","85","","","","","","","","","","","","","","","",""
"","ITI","","html-keyboard-response","562","640162","0.0-1.0-774.0","0","0","54331","","null","","","null","85","","","","","","","","","","","","","","","NaN",""
"","S1","","html-keyboard-response","563","640414","0.0-1.0-776.0","0","0","54331","","null","","","null","86","","","","","","","","","","","","","","","",""
"","ISI","","html-keyboard-response","564","641416","0.0-1.0-777.0","0","0","54331","","null","","","null","86","NaN","","","","","","","","","","","","","","",""
"","S2","","html-keyboard-response","565","641669","0.0-1.0-778.0","0","0","54331","","null","","","null","86","","NaN","","","","","","","","","","","","","",""
"","response","","html-keyboard-response","566","642170","0.0-1.0-779.0-0.0","0","0","54331","","500","","","68","86","","","2","86","training","adjacent","BA","2","1","P.jpg","Q.jpg","0","0","1","",""
"","feedback","","html-keyboard-response","567","643174","0.0-1.0-780.0-0.0","0","0","54331","","null","","","null","86","","","","","","","","","","","","","","","",""
"","ITI","","html-keyboard-response","568","644177","0.0-1.0-783.0","0","0","54331","","null","","","null","86","","","","","","","","","","","","","","","NaN",""
"","S1","","html-keyboard-response","569","644430","0.0-1.0-785.0","0","0","54331","","null","","","null","87","","","","","","","","","","","","","","","",""
"","ISI","","html-keyboard-response","570","645433","0.0-1.0-786.0","0","0","54331","","null","","","null","87","NaN","","","","","","","","","","","","","","",""
"","S2","","html-keyboard-response","571","645686","0.0-1.0-787.0","0","0","54331","","null","","","null","87","","NaN","","","","","","","","","","","","","",""
"","response","","html-keyboard-response","572","645771","0.0-1.0-788.0-0.0","0","0","54331","","84","","","75","87","","","2","87","training","adjacent","AB","1","2","Q.jpg","P.jpg","1","1","1","",""
"","feedback","","html-keyboard-response","573","646774","0.0-1.0-789.0-0.0","0","0","54331","","null","","","null","87","","","","","","","","","","","","","","","",""
"","ITI","","html-keyboard-response","574","647776","0.0-1.0-792.0","0","0","54331","","null","","","null","87","","","","","","","","","","","","","","","NaN",""
"","S1","","html-keyboard-response","575","648030","0.0-1.0-794.0","0","0","54331","","null","","","null","88","","","","","","","","","","","","","","","",""
"","ISI","","html-keyboard-response","576","649033","0.0-1.0-795.0","0","0","54331","","null","","","null","88","NaN","","","","","","","","","","","","","","",""
"","S2","","html-keyboard-response","577","649285","0.0-1.0-796.0","0","0","54331","","null","","","null","88","","NaN","","","","","","","","","","","","","",""
"","response","","html-keyboard-response","578","649823","0.0-1.0-797.0-0.0","0","0","54331","","536","","","68","88","","","2","88","training","adjacent","CB","3","2","R.jpg","P.jpg","0","0","1","",""
"","feedback","","html-keyboard-response","579","650827","0.0-1.0-798.0-0.0","0","0","54331","","null","","","null","88","","","","","","","","","","","","","","","",""
"","ITI","","html-keyboard-response","580","651831","0.0-1.0-801.0","0","0","54331","","null","","","null","88","","","","","","","","","","","","","","","NaN",""
