"success","ttype","start_time","trial_type","trial_index","time_elapsed","internal_node_id","warning","missed_checkup","PID","view_history","rt","responses","repeat_instructions","key_press","index","keypress_isi","keypress_S2","block","trial_num","phase","group_type","pair_type","S1_stim","S2_stim","S1_img","S2_img","S1_chosen","S1_higher","accuracy","keypress_iti","total_bonus_tally"
"true","full_screen","d07282022hr1823","fullscreen","0","28161","0.0-0.0","0","0","22553","","","","","","","","","","","","","","","","","","","","","",""
"","instructions","","instructions","1","220511","0.0-1.0-0.0-0.0","0","0","22553","[{""page_index"":0,""viewing_time"":81026},{""page_index"":1,""viewing_time"":92583},{""page_index"":2,""viewing_time"":16488},{""page_index"":3,""viewing_time"":2249}]","192346","","","","","","","","","","","","","","","","","","","",""
"","comprehension_check","","survey-multi-choice","2","251698","0.0-1.0-0.0-1.0","0","0","22553","","31181","{""Q0"":""True"",""Q1"":""True"",""Q2"":""When you see the prompt 'MAKE A CHOICE' after the second image was presented"",""Q3"":""Green mark"",""Q4"":""either D or K""}","0","","","","","","","","","","","","","","","","","",""
"","start_exp","","html-keyboard-response","3","254525","0.0-1.0-1.0","0","0","22553","","2824","","","32","","","","","","","","","","","","","","","","",""
"","S1","","html-keyboard-response","4","254793","0.0-1.0-2.0","0","0","22553","","null","","","null","0","","","","","","","","","","","","","","","",""
"","ISI","","html-keyboard-response","5","256806","0.0-1.0-3.0","0","0","22553","","null","","","null","0","NaN","","","","","","","","","","","","","","",""
"","S2","","html-keyboard-response","6","257064","0.0-1.0-4.0","0","0","22553","","null","","","null","0","","NaN","","","","","","","","","","","","","",""
"","response","","html-keyboard-response","7","257765","0.0-1.0-5.0","0","0","22553","","698","","","75","0","","","1","0","training","adjacent","BC","2","3","N.jpg","R.jpg","1","1","1","",""
"","feedback","","html-keyboard-response","8","258769","0.0-1.0-6.0-0.0","0","0","22553","","null","","","null","0","","","","","","","","","","","","","","","",""
"","ITI","","html-keyboard-response","9","259781","0.0-1.0-9.0","0","0","22553","","null","","","null","0","","","","","","","","","","","","","","","NaN",""
"","S1","","html-keyboard-response","10","260040","0.0-1.0-11.0","0","0","22553","","null","","","null","1","","","","","","","","","","","","","","","",""
"","ISI","","html-keyboard-response","11","262051","0.0-1.0-12.0","0","0","22553","","null","","","null","1","NaN","","","","","","","","","","","","","","",""
"","S2","","html-keyboard-response","12","262313","0.0-1.0-13.0","0","0","22553","","null","","","null","1","","NaN","","","","","","","","","","","","","",""
"","response","","html-keyboard-response","13","262550","0.0-1.0-14.0","0","0","22553","","233","","","75","1","","","1","1","training","adjacent","DE","4","5","P.jpg","O.jpg","1","1","1","",""
"","feedback","","html-keyboard-response","14","263553","0.0-1.0-15.0-0.0","0","0","22553","","null","","","null","1","","","","","","","","","","","","","","","",""
"","ITI","","html-keyboard-response","15","264569","0.0-1.0-18.0","0","0","22553","","null","","","null","1","","","","","","","","","","","","","","","NaN",""
"","S1","","html-keyboard-response","16","264828","0.0-1.0-20.0","0","0","22553","","null","","","null","2","","","","","","","","","","","","","","","",""
"","ISI","","html-keyboard-response","17","266836","0.0-1.0-21.0","0","0","22553","","null","","","null","2","NaN","","","","","","","","","","","","","","",""
"","S2","","html-keyboard-response","18","267098","0.0-1.0-22.0","0","0","22553","","null","","","null","2","","NaN","","","","","","","","","","","","","",""
"","response","","html-keyboard-response","19","267102","0.0-1.0-23.0","0","0","22553","","0","","","68","2","","","1","2","training","adjacent","EF","5","6","O.jpg","Q.jpg","0","1","0","",""
"","feedback","","html-keyboard-response","20","268117","0.0-1.0-24.0-0.0","0","0","22553","","null","","","null","2","","","","","","","","","","","","","","","",""
"","time_out","","html-keyboard-response","21","270133","0.0-1.0-26.0-0.0","0","0","22553","","null","","","null","2","","","","","","","","","","","","","","","",""
"","ITI","","html-keyboard-response","22","271148","0.0-1.0-27.0","0","0","22553","","null","","","null","2","","","","","","","","","","","","","","","NaN",""
"","S1","","html-keyboard-response","23","271411","0.0-1.0-29.0","0","0","22553","","null","","","null","3","","","","","","","","","","","","","","","",""
"","ISI","","html-keyboard-response","24","273424","0.0-1.0-30.0","0","0","22553","","272","","","75","3","k","","","","","","","","","","","","","","",""
"","S2","","html-keyboard-response","25","273686","0.0-1.0-31.0","0","0","22553","","null","","","null","3","","NaN","","","","","","","","","","","","","",""
"","response","","html-keyboard-response","26","273757","0.0-1.0-32.0","0","0","22553","","69","","","75","3","","","1","3","training","adjacent","FG","6","7","Q.jpg","L.jpg","1","1","1","",""
"","feedback","","html-keyboard-response","27","274775","0.0-1.0-33.0-0.0","0","0","22553","","null","","","null","3","","","","","","","","","","","","","","","",""
"","ITI","","html-keyboard-response","28","275789","0.0-1.0-36.0","0","0","22553","","null","","","null","3","","","","","","","","","","","","","","","NaN",""
"","S1","","html-keyboard-response","29","276050","0.0-1.0-38.0","0","0","22553","","null","","","null","4","","","","","","","","","","","","","","","",""
"","ISI","","html-keyboard-response","30","278061","0.0-1.0-39.0","0","0","22553","","303","","","75","4","k","","","","","","","","","","","","","","",""
"","S2","","html-keyboard-response","31","278324","0.0-1.0-40.0","0","0","22553","","null","","","null","4","","NaN","","","","","","","","","","","","","",""
"","response","","html-keyboard-response","32","278660","0.0-1.0-41.0","0","0","22553","","333","","","75","4","","","1","4","training","adjacent","CB","3","2","R.jpg","N.jpg","1","0","0","",""
"","feedback","","html-keyboard-response","33","279676","0.0-1.0-42.0-0.0","0","0","22553","","null","","","null","4","","","","","","","","","","","","","","","",""
"","time_out","","html-keyboard-response","34","281689","0.0-1.0-44.0-0.0","0","0","22553","","null","","","null","4","","","","","","","","","","","","","","","",""
"","ITI","","html-keyboard-response","35","282698","0.0-1.0-45.0","0","0","22553","","null","","","null","4","","","","","","","","","","","","","","","NaN",""
"","S1","","html-keyboard-response","36","282957","0.0-1.0-47.0","0","0","22553","","null","","","null","5","","","","","","","","","","","","","","","",""
"","ISI","","html-keyboard-response","37","284965","0.0-1.0-48.0","0","0","22553","","null","","","null","5","NaN","","","","","","","","","","","","","","",""
"","S2","","html-keyboard-response","38","285227","0.0-1.0-49.0","0","0","22553","","null","","","null","5","","NaN","","","","","","","","","","","","","",""
"","response","","html-keyboard-response","39","285300","0.0-1.0-50.0","0","0","22553","","72","","","68","5","","","1","5","training","adjacent","BA","2","1","N.jpg","M.jpg","0","0","1","",""
"","feedback","","html-keyboard-response","40","286308","0.0-1.0-51.0-0.0","0","0","22553","","null","","","null","5","","","","","","","","","","","","","","","",""
"","ITI","","html-keyboard-response","41","287320","0.0-1.0-54.0","0","0","22553","","null","","","null","5","","","","","","","","","","","","","","","NaN",""
"","S1","","html-keyboard-response","42","287582","0.0-1.0-56.0","0","0","22553","","null","","","null","6","","","","","","","","","","","","","","","",""
"","ISI","","html-keyboard-response","43","289587","0.0-1.0-57.0","0","0","22553","","null","","","null","6","NaN","","","","","","","","","","","","","","",""
"","S2","","html-keyboard-response","44","289849","0.0-1.0-58.0","0","0","22553","","null","","","null","6","","NaN","","","","","","","","","","","","","",""
"","response","","html-keyboard-response","45","289924","0.0-1.0-59.0","0","0","22553","","74","","","75","6","","","1","6","training","adjacent","CD","3","4","R.jpg","P.jpg","1","1","1","",""
"","feedback","","html-keyboard-response","46","290940","0.0-1.0-60.0-0.0","0","0","22553","","null","","","null","6","","","","","","","","","","","","","","","",""
"","ITI","","html-keyboard-response","47","291946","0.0-1.0-63.0","0","0","22553","","null","","","null","6","","","","","","","","","","","","","","","NaN",""
"","S1","","html-keyboard-response","48","292205","0.0-1.0-65.0","0","0","22553","","null","","","null","7","","","","","","","","","","","","","","","",""
"","ISI","","html-keyboard-response","49","294220","0.0-1.0-66.0","0","0","22553","","null","","","null","7","NaN","","","","","","","","","","","","","","",""
"","S2","","html-keyboard-response","50","294483","0.0-1.0-67.0","0","0","22553","","null","","","null","7","","NaN","","","","","","","","","","","","","",""
"","response","","html-keyboard-response","51","295021","0.0-1.0-68.0","0","0","22553","","536","","","68","7","","","1","7","training","adjacent","GF","7","6","L.jpg","Q.jpg","0","0","1","",""
"","feedback","","html-keyboard-response","52","296037","0.0-1.0-69.0-0.0","0","0","22553","","null","","","null","7","","","","","","","","","","","","","","","",""
"","ITI","","html-keyboard-response","53","297048","0.0-1.0-72.0","0","0","22553","","null","","","null","7","","","","","","","","","","","","","","","NaN",""
"","S1","","html-keyboard-response","54","297310","0.0-1.0-74.0","0","0","22553","","null","","","null","8","","","","","","","","","","","","","","","",""
"","ISI","","html-keyboard-response","55","299320","0.0-1.0-75.0","0","0","22553","","null","","","null","8","NaN","","","","","","","","","","","","","","",""
"","S2","","html-keyboard-response","56","299582","0.0-1.0-76.0","0","0","22553","","null","","","null","8","","NaN","","","","","","","","","","","","","",""
"","response","","html-keyboard-response","57","299613","0.0-1.0-77.0","0","0","22553","","28","","","75","8","","","1","8","training","adjacent","DC","4","3","P.jpg","R.jpg","1","0","0","",""
"","feedback","","html-keyboard-response","58","300629","0.0-1.0-78.0-0.0","0","0","22553","","null","","","null","8","","","","","","","","","","","","","","","",""
"","time_out","","html-keyboard-response","59","302639","0.0-1.0-80.0-0.0","0","0","22553","","null","","","null","8","","","","","","","","","","","","","","","",""
"","ITI","","html-keyboard-response","60","303652","0.0-1.0-81.0","0","0","22553","","null","","","null","8","","","","","","","","","","","","","","","NaN",""
"","S1","","html-keyboard-response","61","303915","0.0-1.0-83.0","0","0","22553","","null","","","null","9","","","","","","","","","","","","","","","",""
"","ISI","","html-keyboard-response","62","305931","0.0-1.0-84.0","0","0","22553","","216","","","68","9","d","","","","","","","","","","","","","","",""
"","S2","","html-keyboard-response","63","306191","0.0-1.0-85.0","0","0","22553","","null","","","null","9","","NaN","","","","","","","","","","","","","",""
"","response","","html-keyboard-response","64","306212","0.0-1.0-86.0","0","0","22553","","19","","","68","9","","","1","9","training","adjacent","DC","4","3","P.jpg","R.jpg","0","0","1","",""
"","feedback","","html-keyboard-response","65","307219","0.0-1.0-87.0-0.0","0","0","22553","","null","","","null","9","","","","","","","","","","","","","","","",""
"","ITI","","html-keyboard-response","66","308233","0.0-1.0-90.0","0","0","22553","","null","","","null","9","","","","","","","","","","","","","","","NaN",""
"","S1","","html-keyboard-response","67","308495","0.0-1.0-92.0","0","0","22553","","null","","","null","10","","","","","","","","","","","","","","","",""
"","ISI","","html-keyboard-response","68","310513","0.0-1.0-93.0","0","0","22553","","null","","","null","10","NaN","","","","","","","","","","","","","","",""
"","S2","","html-keyboard-response","69","310777","0.0-1.0-94.0","0","0","22553","","null","","","null","10","","NaN","","","","","","","","","","","","","",""
"","response","","html-keyboard-response","70","311364","0.0-1.0-95.0","0","0","22553","","585","","","75","10","","","1","10","training","adjacent","BC","2","3","N.jpg","R.jpg","1","1","1","",""
"","feedback","","html-keyboard-response","71","312376","0.0-1.0-96.0-0.0","0","0","22553","","null","","","null","10","","","","","","","","","","","","","","","",""
"","ITI","","html-keyboard-response","72","313394","0.0-1.0-99.0","0","0","22553","","null","","","null","10","","","","","","","","","","","","","","","NaN",""
"","S1","","html-keyboard-response","73","313654","0.0-1.0-101.0","0","0","22553","","null","","","null","11","","","","","","","","","","","","","","","",""
"","ISI","","html-keyboard-response","74","315671","0.0-1.0-102.0","0","0","22553","","null","","","null","11","NaN","","","","","","","","","","","","","","",""
"","S2","","html-keyboard-response","75","315935","0.0-1.0-103.0","0","0","22553","","null","","","null","11","","NaN","","","","","","","","","","","","","",""
"","response","","html-keyboard-response","76","316356","0.0-1.0-104.0","0","0","22553","","419","","","68","11","","","1","11","training","adjacent","GF","7","6","L.jpg","Q.jpg","0","0","1","",""
"","feedback","","html-keyboard-response","77","317364","0.0-1.0-105.0-0.0","0","0","22553","","null","","","null","11","","","","","","","","","","","","","","","",""
"","ITI","","html-keyboard-response","78","318376","0.0-1.0-108.0","0","0","22553","","null","","","null","11","","","","","","","","","","","","","","","NaN",""
"","S1","","html-keyboard-response","79","318638","0.0-1.0-110.0","0","0","22553","","null","","","null","12","","","","","","","","","","","","","","","",""
"","ISI","","html-keyboard-response","80","320647","0.0-1.0-111.0","0","0","22553","","null","","","null","12","NaN","","","","","","","","","","","","","","",""
"","S2","","html-keyboard-response","81","320908","0.0-1.0-112.0","0","0","22553","","null","","","null","12","","NaN","","","","","","","","","","","","","",""
"","response","","html-keyboard-response","82","321060","0.0-1.0-113.0","0","0","22553","","151","","","75","12","","","1","12","training","adjacent","AB","1","2","M.jpg","N.jpg","1","1","1","",""
"","feedback","","html-keyboard-response","83","322066","0.0-1.0-114.0-0.0","0","0","22553","","null","","","null","12","","","","","","","","","","","","","","","",""
"","ITI","","html-keyboard-response","84","323079","0.0-1.0-117.0","0","0","22553","","null","","","null","12","","","","","","","","","","","","","","","NaN",""
"","S1","","html-keyboard-response","85","323342","0.0-1.0-119.0","0","0","22553","","null","","","null","13","","","","","","","","","","","","","","","",""
"","ISI","","html-keyboard-response","86","325359","0.0-1.0-120.0","0","0","22553","","null","","","null","13","NaN","","","","","","","","","","","","","","",""
"","S2","","html-keyboard-response","87","325621","0.0-1.0-121.0","0","0","22553","","null","","","null","13","","NaN","","","","","","","","","","","","","",""
"","response","","html-keyboard-response","88","325733","0.0-1.0-122.0","0","0","22553","","110","","","68","13","","","1","13","training","adjacent","FE","6","5","Q.jpg","O.jpg","0","0","1","",""
"","feedback","","html-keyboard-response","89","326744","0.0-1.0-123.0-0.0","0","0","22553","","null","","","null","13","","","","","","","","","","","","","","","",""
"","ITI","","html-keyboard-response","90","327754","0.0-1.0-126.0","0","0","22553","","null","","","null","13","","","","","","","","","","","","","","","NaN",""
"","S1","","html-keyboard-response","91","328014","0.0-1.0-128.0","0","0","22553","","null","","","null","14","","","","","","","","","","","","","","","",""
"","ISI","","html-keyboard-response","92","330025","0.0-1.0-129.0","0","0","22553","","null","","","null","14","NaN","","","","","","","","","","","","","","",""
"","S2","","html-keyboard-response","93","330286","0.0-1.0-130.0","0","0","22553","","null","","","null","14","","NaN","","","","","","","","","","","","","",""
"","response","","html-keyboard-response","94","330477","0.0-1.0-131.0","0","0","22553","","188","","","75","14","","","1","14","training","adjacent","AB","1","2","M.jpg","N.jpg","1","1","1","",""
"","feedback","","html-keyboard-response","95","331488","0.0-1.0-132.0-0.0","0","0","22553","","null","","","null","14","","","","","","","","","","","","","","","",""
"","ITI","","html-keyboard-response","96","332505","0.0-1.0-135.0","0","0","22553","","null","","","null","14","","","","","","","","","","","","","","","NaN",""
"","S1","","html-keyboard-response","97","332767","0.0-1.0-137.0","0","0","22553","","null","","","null","15","","","","","","","","","","","","","","","",""
"","ISI","","html-keyboard-response","98","334775","0.0-1.0-138.0","0","0","22553","","null","","","null","15","NaN","","","","","","","","","","","","","","",""
"","S2","","html-keyboard-response","99","335036","0.0-1.0-139.0","0","0","22553","","null","","","null","15","","NaN","","","","","","","","","","","","","",""
"","response","","html-keyboard-response","100","335173","0.0-1.0-140.0","0","0","22553","","135","","","68","15","","","1","15","training","adjacent","BC","2","3","N.jpg","R.jpg","0","1","0","",""
"","feedback","","html-keyboard-response","101","336176","0.0-1.0-141.0-0.0","0","0","22553","","null","","","null","15","","","","","","","","","","","","","","","",""
"","time_out","","html-keyboard-response","102","338190","0.0-1.0-143.0-0.0","0","0","22553","","null","","","null","15","","","","","","","","","","","","","","","",""
"","ITI","","html-keyboard-response","103","339207","0.0-1.0-144.0","0","0","22553","","null","","","null","15","","","","","","","","","","","","","","","NaN",""
"","S1","","html-keyboard-response","104","339468","0.0-1.0-146.0","0","0","22553","","null","","","null","16","","","","","","","","","","","","","","","",""
"","ISI","","html-keyboard-response","105","341481","0.0-1.0-147.0","0","0","22553","","null","","","null","16","NaN","","","","","","","","","","","","","","",""
"","S2","","html-keyboard-response","106","341741","0.0-1.0-148.0","0","0","22553","","null","","","null","16","","NaN","","","","","","","","","","","","","",""
"","response","","html-keyboard-response","107","341981","0.0-1.0-149.0","0","0","22553","","237","","","75","16","","","1","16","training","adjacent","CD","3","4","R.jpg","P.jpg","1","1","1","",""
"","feedback","","html-keyboard-response","108","342989","0.0-1.0-150.0-0.0","0","0","22553","","null","","","null","16","","","","","","","","","","","","","","","",""
"","ITI","","html-keyboard-response","109","344005","0.0-1.0-153.0","0","0","22553","","null","","","null","16","","","","","","","","","","","","","","","NaN",""
"","S1","","html-keyboard-response","110","344269","0.0-1.0-155.0","0","0","22553","","null","","","null","17","","","","","","","","","","","","","","","",""
"","ISI","","html-keyboard-response","111","346271","0.0-1.0-156.0","0","0","22553","","null","","","null","17","NaN","","","","","","","","","","","","","","",""
"","S2","","html-keyboard-response","112","346537","0.0-1.0-157.0","0","0","22553","","null","","","null","17","","NaN","","","","","","","","","","","","","",""
"","response","","html-keyboard-response","113","346676","0.0-1.0-158.0","0","0","22553","","137","","","68","17","","","1","17","training","adjacent","CB","3","2","R.jpg","N.jpg","0","0","1","",""
"","feedback","","html-keyboard-response","114","347695","0.0-1.0-159.0-0.0","0","0","22553","","null","","","null","17","","","","","","","","","","","","","","","",""
"","ITI","","html-keyboard-response","115","348709","0.0-1.0-162.0","0","0","22553","","null","","","null","17","","","","","","","","","","","","","","","NaN",""
"","S1","","html-keyboard-response","116","348970","0.0-1.0-164.0","0","0","22553","","null","","","null","18","","","","","","","","","","","","","","","",""
"","ISI","","html-keyboard-response","117","350976","0.0-1.0-165.0","0","0","22553","","null","","","null","18","NaN","","","","","","","","","","","","","","",""
"","S2","","html-keyboard-response","118","351237","0.0-1.0-166.0","0","0","22553","","null","","","null","18","","NaN","","","","","","","","","","","","","",""
"","response","","html-keyboard-response","119","351430","0.0-1.0-167.0","0","0","22553","","189","","","75","18","","","1","18","training","adjacent","ED","5","4","O.jpg","P.jpg","1","0","0","",""
"","feedback","","html-keyboard-response","120","352437","0.0-1.0-168.0-0.0","0","0","22553","","null","","","null","18","","","","","","","","","","","","","","","",""
"","time_out","","html-keyboard-response","121","354444","0.0-1.0-170.0-0.0","0","0","22553","","null","","","null","18","","","","","","","","","","","","","","","",""
"","ITI","","html-keyboard-response","122","355461","0.0-1.0-171.0","0","0","22553","","null","","","null","18","","","","","","","","","","","","","","","NaN",""
"","S1","","html-keyboard-response","123","355725","0.0-1.0-173.0","0","0","22553","","null","","","null","19","","","","","","","","","","","","","","","",""
"","ISI","","html-keyboard-response","124","357733","0.0-1.0-174.0","0","0","22553","","null","","","null","19","NaN","","","","","","","","","","","","","","",""
"","S2","","html-keyboard-response","125","357995","0.0-1.0-175.0","0","0","22553","","null","","","null","19","","NaN","","","","","","","","","","","","","",""
"","response","","html-keyboard-response","126","358197","0.0-1.0-176.0","0","0","22553","","199","","","68","19","","","1","19","training","adjacent","BC","2","3","N.jpg","R.jpg","0","1","0","",""
"","feedback","","html-keyboard-response","127","359202","0.0-1.0-177.0-0.0","0","0","22553","","null","","","null","19","","","","","","","","","","","","","","","",""
"","time_out","","html-keyboard-response","128","361208","0.0-1.0-179.0-0.0","0","0","22553","","null","","","null","19","","","","","","","","","","","","","","","",""
"","ITI","","html-keyboard-response","129","362225","0.0-1.0-180.0","0","0","22553","","null","","","null","19","","","","","","","","","","","","","","","NaN",""
"","S1","","html-keyboard-response","130","362488","0.0-1.0-182.0","0","0","22553","","null","","","null","20","","","","","","","","","","","","","","","",""
"","ISI","","html-keyboard-response","131","364501","0.0-1.0-183.0","0","0","22553","","130","","","75","20","k","","","","","","","","","","","","","","",""
"","S2","","html-keyboard-response","132","364762","0.0-1.0-184.0","0","0","22553","","null","","","null","20","","NaN","","","","","","","","","","","","","",""
"","response","","html-keyboard-response","133","364783","0.0-1.0-185.0","0","0","22553","","20","","","75","20","","","1","20","training","adjacent","AB","1","2","M.jpg","N.jpg","1","1","1","",""
"","feedback","","html-keyboard-response","134","365794","0.0-1.0-186.0-0.0","0","0","22553","","null","","","null","20","","","","","","","","","","","","","","","",""
"","ITI","","html-keyboard-response","135","366808","0.0-1.0-189.0","0","0","22553","","null","","","null","20","","","","","","","","","","","","","","","NaN",""
"","S1","","html-keyboard-response","136","367067","0.0-1.0-191.0","0","0","22553","","null","","","null","21","","","","","","","","","","","","","","","",""
"","ISI","","html-keyboard-response","137","369074","0.0-1.0-192.0","0","0","22553","","null","","","null","21","NaN","","","","","","","","","","","","","","",""
"","S2","","html-keyboard-response","138","369335","0.0-1.0-193.0","0","0","22553","","null","","","null","21","","NaN","","","","","","","","","","","","","",""
"","response","","html-keyboard-response","139","369436","0.0-1.0-194.0","0","0","22553","","98","","","75","21","","","1","21","training","adjacent","FE","6","5","Q.jpg","O.jpg","1","0","0","",""
"","feedback","","html-keyboard-response","140","370444","0.0-1.0-195.0-0.0","0","0","22553","","null","","","null","21","","","","","","","","","","","","","","","",""
"","time_out","","html-keyboard-response","141","372457","0.0-1.0-197.0-0.0","0","0","22553","","null","","","null","21","","","","","","","","","","","","","","","",""
"","ITI","","html-keyboard-response","142","373470","0.0-1.0-198.0","0","0","22553","","null","","","null","21","","","","","","","","","","","","","","","NaN",""
"","S1","","html-keyboard-response","143","373729","0.0-1.0-200.0","0","0","22553","","null","","","null","22","","","","","","","","","","","","","","","",""
"","ISI","","html-keyboard-response","144","375745","0.0-1.0-201.0","0","0","22553","","null","","","null","22","NaN","","","","","","","","","","","","","","",""
"","S2","","html-keyboard-response","145","376006","0.0-1.0-202.0","0","0","22553","","null","","","null","22","","NaN","","","","","","","","","","","","","",""
"","response","","html-keyboard-response","146","376013","0.0-1.0-203.0","0","0","22553","","3","","","75","22","","","1","22","training","adjacent","FG","6","7","Q.jpg","L.jpg","1","1","1","",""
"","feedback","","html-keyboard-response","147","377021","0.0-1.0-204.0-0.0","0","0","22553","","null","","","null","22","","","","","","","","","","","","","","","",""
"","ITI","","html-keyboard-response","148","378038","0.0-1.0-207.0","0","0","22553","","null","","","null","22","","","","","","","","","","","","","","","NaN",""
"","S1","","html-keyboard-response","149","378299","0.0-1.0-209.0","0","0","22553","","null","","","null","23","","","","","","","","","","","","","","","",""
"","ISI","","html-keyboard-response","150","380315","0.0-1.0-210.0","0","0","22553","","null","","","null","23","NaN","","","","","","","","","","","","","","",""
"","S2","","html-keyboard-response","151","380574","0.0-1.0-211.0","0","0","22553","","null","","","null","23","","NaN","","","","","","","","","","","","","",""
"","response","","html-keyboard-response","152","380837","0.0-1.0-212.0","0","0","22553","","261","","","75","23","","","1","23","training","adjacent","FE","6","5","Q.jpg","O.jpg","1","0","0","",""
"","feedback","","html-keyboard-response","153","381850","0.0-1.0-213.0-0.0","0","0","22553","","null","","","null","23","","","","","","","","","","","","","","","",""
"","time_out","","html-keyboard-response","154","383863","0.0-1.0-215.0-0.0","0","0","22553","","null","","","null","23","","","","","","","","","","","","","","","",""
"","ITI","","html-keyboard-response","155","384876","0.0-1.0-216.0","0","0","22553","","null","","","null","23","","","","","","","","","","","","","","","NaN",""
"","S1","","html-keyboard-response","156","385136","0.0-1.0-218.0","0","0","22553","","null","","","null","24","","","","","","","","","","","","","","","",""
"","ISI","","html-keyboard-response","157","387148","0.0-1.0-219.0","0","0","22553","","null","","","null","24","NaN","","","","","","","","","","","","","","",""
"","S2","","html-keyboard-response","158","387412","0.0-1.0-220.0","0","0","22553","","null","","","null","24","","NaN","","","","","","","","","","","","","",""
"","response","","html-keyboard-response","159","387484","0.0-1.0-221.0","0","0","22553","","70","","","68","24","","","1","24","training","adjacent","AB","1","2","M.jpg","N.jpg","0","1","0","",""
"","feedback","","html-keyboard-response","160","388491","0.0-1.0-222.0-0.0","0","0","22553","","null","","","null","24","","","","","","","","","","","","","","","",""
"","time_out","","html-keyboard-response","161","390508","0.0-1.0-224.0-0.0","0","0","22553","","null","","","null","24","","","","","","","","","","","","","","","",""
"","ITI","","html-keyboard-response","162","391523","0.0-1.0-225.0","0","0","22553","","null","","","null","24","","","","","","","","","","","","","","","NaN",""
"","S1","","html-keyboard-response","163","391784","0.0-1.0-227.0","0","0","22553","","null","","","null","25","","","","","","","","","","","","","","","",""
"","ISI","","html-keyboard-response","164","393794","0.0-1.0-228.0","0","0","22553","","null","","","null","25","NaN","","","","","","","","","","","","","","",""
"","S2","","html-keyboard-response","165","394056","0.0-1.0-229.0","0","0","22553","","null","","","null","25","","NaN","","","","","","","","","","","","","",""
"","response","","html-keyboard-response","166","394077","0.0-1.0-230.0","0","0","22553","","19","","","75","25","","","1","25","training","adjacent","BA","2","1","N.jpg","M.jpg","1","0","0","",""
"","feedback","","html-keyboard-response","167","395088","0.0-1.0-231.0-0.0","0","0","22553","","null","","","null","25","","","","","","","","","","","","","","","",""
"","time_out","","html-keyboard-response","168","397094","0.0-1.0-233.0-0.0","0","0","22553","","null","","","null","25","","","","","","","","","","","","","","","",""
"","ITI","","html-keyboard-response","169","398099","0.0-1.0-234.0","0","0","22553","","null","","","null","25","","","","","","","","","","","","","","","NaN",""
"","S1","","html-keyboard-response","170","398358","0.0-1.0-236.0","0","0","22553","","null","","","null","26","","","","","","","","","","","","","","","",""
"","ISI","","html-keyboard-response","171","400372","0.0-1.0-237.0","0","0","22553","","null","","","null","26","NaN","","","","","","","","","","","","","","",""
"","S2","","html-keyboard-response","172","400635","0.0-1.0-238.0","0","0","22553","","198","","","68","26","","d","","","","","","","","","","","","","",""
"","response","","html-keyboard-response","173","401653","0.0-1.0-239.0","0","0","22553","","1016","","","68","26","","","1","26","training","adjacent","DC","4","3","P.jpg","R.jpg","0","0","1","",""
"","feedback","","html-keyboard-response","174","402661","0.0-1.0-240.0-0.0","0","0","22553","","null","","","null","26","","","","","","","","","","","","","","","",""
"","ITI","","html-keyboard-response","175","403675","0.0-1.0-243.0","0","0","22553","","null","","","null","26","","","","","","","","","","","","","","","NaN",""
"","S1","","html-keyboard-response","176","403935","0.0-1.0-245.0","0","0","22553","","null","","","null","27","","","","","","","","","","","","","","","",""
"","ISI","","html-keyboard-response","177","405951","0.0-1.0-246.0","0","0","22553","","null","","","null","27","NaN","","","","","","","","","","","","","","",""
"","S2","","html-keyboard-response","178","406211","0.0-1.0-247.0","0","0","22553","","null","","","null","27","","NaN","","","","","","","","","","","","","",""
"","response","","html-keyboard-response","179","407140","0.0-1.0-248.0","0","0","22553","","926","","","68","27","","","1","27","training","adjacent","CB","3","2","R.jpg","N.jpg","0","0","1","",""
"","feedback","","html-keyboard-response","180","408147","0.0-1.0-249.0-0.0","0","0","22553","","null","","","null","27","","","","","","","","","","","","","","","",""
"","ITI","","html-keyboard-response","181","409164","0.0-1.0-252.0","0","0","22553","","null","","","null","27","","","","","","","","","","","","","","","NaN",""
"","S1","","html-keyboard-response","182","409424","0.0-1.0-254.0","0","0","22553","","null","","","null","28","","","","","","","","","","","","","","","",""
"","ISI","","html-keyboard-response","183","411436","0.0-1.0-255.0","0","0","22553","","null","","","null","28","NaN","","","","","","","","","","","","","","",""
"","S2","","html-keyboard-response","184","411696","0.0-1.0-256.0","0","0","22553","","null","","","null","28","","NaN","","","","","","","","","","","","","",""
"","response","","html-keyboard-response","185","413173","0.0-1.0-257.0","0","0","22553","","1474","","","75","28","","","1","28","training","adjacent","CB","3","2","R.jpg","N.jpg","1","0","0","",""
"","feedback","","html-keyboard-response","186","414186","0.0-1.0-258.0-0.0","0","0","22553","","null","","","null","28","","","","","","","","","","","","","","","",""
"","time_out","","html-keyboard-response","187","416196","0.0-1.0-260.0-0.0","0","0","22553","","null","","","null","28","","","","","","","","","","","","","","","",""
"","ITI","","html-keyboard-response","188","417210","0.0-1.0-261.0","0","0","22553","","null","","","null","28","","","","","","","","","","","","","","","NaN",""
"","S1","","html-keyboard-response","189","417474","0.0-1.0-263.0","0","0","22553","","null","","","null","29","","","","","","","","","","","","","","","",""
"","ISI","","html-keyboard-response","190","419481","0.0-1.0-264.0","0","0","22553","","null","","","null","29","NaN","","","","","","","","","","","","","","",""
"","S2","","html-keyboard-response","191","419746","0.0-1.0-265.0","0","0","22553","","null","","","null","29","","NaN","","","","","","","","","","","","","",""
"","response","","html-keyboard-response","192","420269","0.0-1.0-266.0","0","0","22553","","520","","","68","29","","","1","29","training","adjacent","FG","6","7","Q.jpg","L.jpg","0","1","0","",""
"","feedback","","html-keyboard-response","193","421279","0.0-1.0-267.0-0.0","0","0","22553","","null","","","null","29","","","","","","","","","","","","","","","",""
"","time_out","","html-keyboard-response","194","423289","0.0-1.0-269.0-0.0","0","0","22553","","null","","","null","29","","","","","","","","","","","","","","","",""
"","ITI","","html-keyboard-response","195","424291","0.0-1.0-270.0","0","0","22553","","null","","","null","29","","","","","","","","","","","","","","","NaN",""
"","S1","","html-keyboard-response","196","424552","0.0-1.0-272.0","0","0","22553","","null","","","null","30","","","","","","","","","","","","","","","",""
"","ISI","","html-keyboard-response","197","426555","0.0-1.0-273.0","0","0","22553","","241","","","75","30","k","","","","","","","","","","","","","","",""
"","S2","","html-keyboard-response","198","426818","0.0-1.0-274.0","0","0","22553","","null","","","null","30","","NaN","","","","","","","","","","","","","",""
"","response","","html-keyboard-response","199","426836","0.0-1.0-275.0","0","0","22553","","16","","","75","30","","","1","30","training","adjacent","GF","7","6","L.jpg","Q.jpg","1","0","0","",""
"","feedback","","html-keyboard-response","200","427846","0.0-1.0-276.0-0.0","0","0","22553","","null","","","null","30","","","","","","","","","","","","","","","",""
"","time_out","","html-keyboard-response","201","429864","0.0-1.0-278.0-0.0","0","0","22553","","null","","","null","30","","","","","","","","","","","","","","","",""
"","ITI","","html-keyboard-response","202","430876","0.0-1.0-279.0","0","0","22553","","null","","","null","30","","","","","","","","","","","","","","","NaN",""
"","S1","","html-keyboard-response","203","431137","0.0-1.0-281.0","0","0","22553","","null","","","null","31","","","","","","","","","","","","","","","",""
"","ISI","","html-keyboard-response","204","433149","0.0-1.0-282.0","0","0","22553","","null","","","null","31","NaN","","","","","","","","","","","","","","",""
"","S2","","html-keyboard-response","205","433410","0.0-1.0-283.0","0","0","22553","","null","","","null","31","","NaN","","","","","","","","","","","","","",""
"","response","","html-keyboard-response","206","433571","0.0-1.0-284.0","0","0","22553","","160","","","68","31","","","1","31","training","adjacent","ED","5","4","O.jpg","P.jpg","0","0","1","",""
"","feedback","","html-keyboard-response","207","434582","0.0-1.0-285.0-0.0","0","0","22553","","null","","","null","31","","","","","","","","","","","","","","","",""
"","ITI","","html-keyboard-response","208","435596","0.0-1.0-288.0","0","0","22553","","null","","","null","31","","","","","","","","","","","","","","","NaN",""
"","S1","","html-keyboard-response","209","435858","0.0-1.0-290.0","0","0","22553","","null","","","null","32","","","","","","","","","","","","","","","",""
"","ISI","","html-keyboard-response","210","437867","0.0-1.0-291.0","0","0","22553","","null","","","null","32","NaN","","","","","","","","","","","","","","",""
"","S2","","html-keyboard-response","211","438128","0.0-1.0-292.0","0","0","22553","","null","","","null","32","","NaN","","","","","","","","","","","","","",""
"","response","","html-keyboard-response","212","440142","0.0-1.0-293.0","0","0","22553","","null","","","null","32","","","1","32","training","adjacent","EF","5","6","O.jpg","Q.jpg","NaN","1","0","",""
"","too_slow_prompt","","html-keyboard-response","213","441159","0.0-1.0-295.0-0.0","1","0","22553","","null","","","null","","","","","","","","","","","","","","","","",""
"","time_out","","html-keyboard-response","214","443169","0.0-1.0-296.0-0.0","0","0","22553","","null","","","null","32","","","","","","","","","","","","","","","",""
"","ITI","","html-keyboard-response","215","444178","0.0-1.0-297.0","0","0","22553","","null","","","null","32","","","","","","","","","","","","","","","NaN",""
"","S1","","html-keyboard-response","216","444440","0.0-1.0-299.0","0","0","22553","","null","","","null","33","","","","","","","","","","","","","","","",""
"","ISI","","html-keyboard-response","217","446450","0.0-1.0-300.0","0","0","22553","","null","","","null","33","NaN","","","","","","","","","","","","","","",""
"","S2","","html-keyboard-response","218","446712","0.0-1.0-301.0","0","0","22553","","null","","","null","33","","NaN","","","","","","","","","","","","","",""
"","response","","html-keyboard-response","219","447028","0.0-1.0-302.0","0","0","22553","","314","","","75","33","","","1","33","training","adjacent","DE","4","5","P.jpg","O.jpg","1","1","1","",""
"","feedback","","html-keyboard-response","220","448040","0.0-1.0-303.0-0.0","0","0","22553","","null","","","null","33","","","","","","","","","","","","","","","",""
"","ITI","","html-keyboard-response","221","449047","0.0-1.0-306.0","0","0","22553","","null","","","null","33","","","","","","","","","","","","","","","NaN",""
"","S1","","html-keyboard-response","222","449312","0.0-1.0-308.0","0","0","22553","","null","","","null","34","","","","","","","","","","","","","","","",""
"","ISI","","html-keyboard-response","223","451326","0.0-1.0-309.0","0","0","22553","","null","","","null","34","NaN","","","","","","","","","","","","","","",""
"","S2","","html-keyboard-response","224","451587","0.0-1.0-310.0","0","0","22553","","null","","","null","34","","NaN","","","","","","","","","","","","","",""
"","response","","html-keyboard-response","225","451980","0.0-1.0-311.0","0","0","22553","","390","","","75","34","","","1","34","training","adjacent","ED","5","4","O.jpg","P.jpg","1","0","0","",""
"","feedback","","html-keyboard-response","226","452990","0.0-1.0-312.0-0.0","0","0","22553","","null","","","null","34","","","","","","","","","","","","","","","",""
"","time_out","","html-keyboard-response","227","455003","0.0-1.0-314.0-0.0","0","0","22553","","null","","","null","34","","","","","","","","","","","","","","","",""
"","ITI","","html-keyboard-response","228","456008","0.0-1.0-315.0","0","0","22553","","null","","","null","34","","","","","","","","","","","","","","","NaN",""
"","S1","","html-keyboard-response","229","456270","0.0-1.0-317.0","0","0","22553","","null","","","null","35","","","","","","","","","","","","","","","",""
"","ISI","","html-keyboard-response","230","458272","0.0-1.0-318.0","0","0","22553","","null","","","null","35","NaN","","","","","","","","","","","","","","",""
"","S2","","html-keyboard-response","231","458534","0.0-1.0-319.0","0","0","22553","","null","","","null","35","","NaN","","","","","","","","","","","","","",""
"","response","","html-keyboard-response","232","458811","0.0-1.0-320.0","0","0","22553","","276","","","68","35","","","1","35","training","adjacent","EF","5","6","O.jpg","Q.jpg","0","1","0","",""
"","feedback","","html-keyboard-response","233","459828","0.0-1.0-321.0-0.0","0","0","22553","","null","","","null","35","","","","","","","","","","","","","","","",""
"","time_out","","html-keyboard-response","234","461835","0.0-1.0-323.0-0.0","0","0","22553","","null","","","null","35","","","","","","","","","","","","","","","",""
"","ITI","","html-keyboard-response","235","462849","0.0-1.0-324.0","0","0","22553","","null","","","null","35","","","","","","","","","","","","","","","NaN",""
"","S1","","html-keyboard-response","236","463108","0.0-1.0-326.0","0","0","22553","","null","","","null","36","","","","","","","","","","","","","","","",""
"","ISI","","html-keyboard-response","237","465121","0.0-1.0-327.0","0","0","22553","","null","","","null","36","NaN","","","","","","","","","","","","","","",""
"","S2","","html-keyboard-response","238","465383","0.0-1.0-328.0","0","0","22553","","null","","","null","36","","NaN","","","","","","","","","","","","","",""
"","response","","html-keyboard-response","239","465932","0.0-1.0-329.0","0","0","22553","","547","","","75","36","","","1","36","training","adjacent","BA","2","1","N.jpg","M.jpg","1","0","0","",""
"","feedback","","html-keyboard-response","240","466936","0.0-1.0-330.0-0.0","0","0","22553","","null","","","null","36","","","","","","","","","","","","","","","",""
"","time_out","","html-keyboard-response","241","468950","0.0-1.0-332.0-0.0","0","0","22553","","null","","","null","36","","","","","","","","","","","","","","","",""
"","ITI","","html-keyboard-response","242","469967","0.0-1.0-333.0","0","0","22553","","null","","","null","36","","","","","","","","","","","","","","","NaN",""
"","S1","","html-keyboard-response","243","470226","0.0-1.0-335.0","0","0","22553","","null","","","null","37","","","","","","","","","","","","","","","",""
"","ISI","","html-keyboard-response","244","472234","0.0-1.0-336.0","0","0","22553","","null","","","null","37","NaN","","","","","","","","","","","","","","",""
"","S2","","html-keyboard-response","245","472495","0.0-1.0-337.0","0","0","22553","","null","","","null","37","","NaN","","","","","","","","","","","","","",""
"","response","","html-keyboard-response","246","472699","0.0-1.0-338.0","0","0","22553","","202","","","68","37","","","1","37","training","adjacent","CD","3","4","R.jpg","P.jpg","0","1","0","",""
"","feedback","","html-keyboard-response","247","473704","0.0-1.0-339.0-0.0","0","0","22553","","null","","","null","37","","","","","","","","","","","","","","","",""
"","time_out","","html-keyboard-response","248","475710","0.0-1.0-341.0-0.0","0","0","22553","","null","","","null","37","","","","","","","","","","","","","","","",""
"","ITI","","html-keyboard-response","249","476723","0.0-1.0-342.0","0","0","22553","","null","","","null","37","","","","","","","","","","","","","","","NaN",""
"","S1","","html-keyboard-response","250","476982","0.0-1.0-344.0","0","0","22553","","null","","","null","38","","","","","","","","","","","","","","","",""
"","ISI","","html-keyboard-response","251","478998","0.0-1.0-345.0","0","0","22553","","null","","","null","38","NaN","","","","","","","","","","","","","","",""
"","S2","","html-keyboard-response","252","479258","0.0-1.0-346.0","0","0","22553","","null","","","null","38","","NaN","","","","","","","","","","","","","",""
"","response","","html-keyboard-response","253","479811","0.0-1.0-347.0","0","0","22553","","551","","","75","38","","","1","38","training","adjacent","DE","4","5","P.jpg","O.jpg","1","1","1","",""
"","feedback","","html-keyboard-response","254","480820","0.0-1.0-348.0-0.0","0","0","22553","","null","","","null","38","","","","","","","","","","","","","","","",""
"","ITI","","html-keyboard-response","255","481831","0.0-1.0-351.0","0","0","22553","","null","","","null","38","","","","","","","","","","","","","","","NaN",""
"","S1","","html-keyboard-response","256","482093","0.0-1.0-353.0","0","0","22553","","null","","","null","39","","","","","","","","","","","","","","","",""
"","ISI","","html-keyboard-response","257","484108","0.0-1.0-354.0","0","0","22553","","null","","","null","39","NaN","","","","","","","","","","","","","","",""
"","S2","","html-keyboard-response","258","484370","0.0-1.0-355.0","0","0","22553","","null","","","null","39","","NaN","","","","","","","","","","","","","",""
"","response","","html-keyboard-response","259","486382","0.0-1.0-356.0","0","0","22553","","null","","","null","39","","","1","39","training","adjacent","BA","2","1","N.jpg","M.jpg","NaN","0","0","",""
"","too_slow_prompt","","html-keyboard-response","260","487396","0.0-1.0-358.0-0.0","1","0","22553","","null","","","null","","","","","","","","","","","","","","","","",""
"","time_out","","html-keyboard-response","261","489407","0.0-1.0-359.0-0.0","0","0","22553","","null","","","null","39","","","","","","","","","","","","","","","",""
"","ITI","","html-keyboard-response","262","490421","0.0-1.0-360.0","0","0","22553","","null","","","null","39","","","","","","","","","","","","","","","NaN",""
"","block_over","","html-keyboard-response","263","601255","0.0-1.0-361.0-0.0","0","0","22553","","110829","","","32","39","","","","","","","","","","","","","","","",""
"","S1","","html-keyboard-response","264","601511","0.0-1.0-362.0","0","0","22553","","null","","","null","40","","","","","","","","","","","","","","","",""
"","ISI","","html-keyboard-response","265","603527","0.0-1.0-363.0","0","0","22553","","null","","","null","40","NaN","","","","","","","","","","","","","","",""
"","S2","","html-keyboard-response","266","603789","0.0-1.0-364.0","0","0","22553","","null","","","null","40","","NaN","","","","","","","","","","","","","",""
"","response","","html-keyboard-response","267","604347","0.0-1.0-365.0","0","0","22553","","556","","","68","40","","","2","40","training","adjacent","BC","2","3","N.jpg","R.jpg","0","1","0","",""
"","feedback","","html-keyboard-response","268","605359","0.0-1.0-366.0-0.0","0","0","22553","","null","","","null","40","","","","","","","","","","","","","","","",""
"","time_out","","html-keyboard-response","269","607363","0.0-1.0-368.0-0.0","0","0","22553","","null","","","null","40","","","","","","","","","","","","","","","",""
"","ITI","","html-keyboard-response","270","608366","0.0-1.0-369.0","0","0","22553","","null","","","null","40","","","","","","","","","","","","","","","NaN",""
"","S1","","html-keyboard-response","271","608627","0.0-1.0-371.0","0","0","22553","","null","","","null","41","","","","","","","","","","","","","","","",""
"","ISI","","html-keyboard-response","272","610646","0.0-1.0-372.0","0","0","22553","","null","","","null","41","NaN","","","","","","","","","","","","","","",""
"","S2","","html-keyboard-response","273","610910","0.0-1.0-373.0","0","0","22553","","null","","","null","41","","NaN","","","","","","","","","","","","","",""
"","response","","html-keyboard-response","274","611082","0.0-1.0-374.0","0","0","22553","","170","","","75","41","","","2","41","training","adjacent","AB","1","2","M.jpg","N.jpg","1","1","1","",""
"","feedback","","html-keyboard-response","275","612094","0.0-1.0-375.0-0.0","0","0","22553","","null","","","null","41","","","","","","","","","","","","","","","",""
"","ITI","","html-keyboard-response","276","613110","0.0-1.0-378.0","0","0","22553","","null","","","null","41","","","","","","","","","","","","","","","NaN",""
"","S1","","html-keyboard-response","277","613372","0.0-1.0-380.0","0","0","22553","","null","","","null","42","","","","","","","","","","","","","","","",""
"","ISI","","html-keyboard-response","278","615377","0.0-1.0-381.0","0","0","22553","","null","","","null","42","NaN","","","","","","","","","","","","","","",""
"","S2","","html-keyboard-response","279","615643","0.0-1.0-382.0","0","0","22553","","null","","","null","42","","NaN","","","","","","","","","","","","","",""
"","response","","html-keyboard-response","280","616228","0.0-1.0-383.0","0","0","22553","","582","","","75","42","","","2","42","training","adjacent","DE","4","5","P.jpg","O.jpg","1","1","1","",""
"","feedback","","html-keyboard-response","281","617244","0.0-1.0-384.0-0.0","0","0","22553","","null","","","null","42","","","","","","","","","","","","","","","",""
"","ITI","","html-keyboard-response","282","618255","0.0-1.0-387.0","0","0","22553","","null","","","null","42","","","","","","","","","","","","","","","NaN",""
"","S1","","html-keyboard-response","283","618517","0.0-1.0-389.0","0","0","22553","","null","","","null","43","","","","","","","","","","","","","","","",""
"","ISI","","html-keyboard-response","284","620531","0.0-1.0-390.0","0","0","22553","","null","","","null","43","NaN","","","","","","","","","","","","","","",""
"","S2","","html-keyboard-response","285","620794","0.0-1.0-391.0","0","0","22553","","null","","","null","43","","NaN","","","","","","","","","","","","","",""
"","response","","html-keyboard-response","286","621107","0.0-1.0-392.0","0","0","22553","","311","","","75","43","","","2","43","training","adjacent","BC","2","3","N.jpg","R.jpg","1","1","1","",""
"","feedback","","html-keyboard-response","287","622122","0.0-1.0-393.0-0.0","0","0","22553","","null","","","null","43","","","","","","","","","","","","","","","",""
"","ITI","","html-keyboard-response","288","623127","0.0-1.0-396.0","0","0","22553","","null","","","null","43","","","","","","","","","","","","","","","NaN",""
"","S1","","html-keyboard-response","289","623389","0.0-1.0-398.0","0","0","22553","","null","","","null","44","","","","","","","","","","","","","","","",""
"","ISI","","html-keyboard-response","290","625403","0.0-1.0-399.0","0","0","22553","","null","","","null","44","NaN","","","","","","","","","","","","","","",""
"","S2","","html-keyboard-response","291","625665","0.0-1.0-400.0","0","0","22553","","null","","","null","44","","NaN","","","","","","","","","","","","","",""
"","response","","html-keyboard-response","292","625907","0.0-1.0-401.0","0","0","22553","","239","","","75","44","","","2","44","training","adjacent","DE","4","5","P.jpg","O.jpg","1","1","1","",""
"","feedback","","html-keyboard-response","293","626918","0.0-1.0-402.0-0.0","0","0","22553","","null","","","null","44","","","","","","","","","","","","","","","",""
"","ITI","","html-keyboard-response","294","627926","0.0-1.0-405.0","0","0","22553","","null","","","null","44","","","","","","","","","","","","","","","NaN",""
"","S1","","html-keyboard-response","295","628191","0.0-1.0-407.0","0","0","22553","","null","","","null","45","","","","","","","","","","","","","","","",""
"","ISI","","html-keyboard-response","296","630196","0.0-1.0-408.0","0","0","22553","","null","","","null","45","NaN","","","","","","","","","","","","","","",""
"","S2","","html-keyboard-response","297","630456","0.0-1.0-409.0","0","0","22553","","null","","","null","45","","NaN","","","","","","","","","","","","","",""
"","response","","html-keyboard-response","298","630777","0.0-1.0-410.0","0","0","22553","","319","","","75","45","","","2","45","training","adjacent","FE","6","5","Q.jpg","O.jpg","1","0","0","",""
"","feedback","","html-keyboard-response","299","631784","0.0-1.0-411.0-0.0","0","0","22553","","null","","","null","45","","","","","","","","","","","","","","","",""
"","time_out","","html-keyboard-response","300","633795","0.0-1.0-413.0-0.0","0","0","22553","","null","","","null","45","","","","","","","","","","","","","","","",""
"","ITI","","html-keyboard-response","301","634799","0.0-1.0-414.0","0","0","22553","","null","","","null","45","","","","","","","","","","","","","","","NaN",""
"","S1","","html-keyboard-response","302","635059","0.0-1.0-416.0","0","0","22553","","null","","","null","46","","","","","","","","","","","","","","","",""
"","ISI","","html-keyboard-response","303","637076","0.0-1.0-417.0","0","0","22553","","null","","","null","46","NaN","","","","","","","","","","","","","","",""
"","S2","","html-keyboard-response","304","637335","0.0-1.0-418.0","0","0","22553","","null","","","null","46","","NaN","","","","","","","","","","","","","",""
"","response","","html-keyboard-response","305","637612","0.0-1.0-419.0","0","0","22553","","274","","","75","46","","","2","46","training","adjacent","EF","5","6","O.jpg","Q.jpg","1","1","1","",""
"","feedback","","html-keyboard-response","306","638626","0.0-1.0-420.0-0.0","0","0","22553","","null","","","null","46","","","","","","","","","","","","","","","",""
"","ITI","","html-keyboard-response","307","639636","0.0-1.0-423.0","0","0","22553","","null","","","null","46","","","","","","","","","","","","","","","NaN",""
"","S1","","html-keyboard-response","308","639898","0.0-1.0-425.0","0","0","22553","","null","","","null","47","","","","","","","","","","","","","","","",""
"","ISI","","html-keyboard-response","309","641901","0.0-1.0-426.0","0","0","22553","","null","","","null","47","NaN","","","","","","","","","","","","","","",""
"","S2","","html-keyboard-response","310","642163","0.0-1.0-427.0","0","0","22553","","null","","","null","47","","NaN","","","","","","","","","","","","","",""
"","response","","html-keyboard-response","311","642732","0.0-1.0-428.0","0","0","22553","","566","","","75","47","","","2","47","training","adjacent","ED","5","4","O.jpg","P.jpg","1","0","0","",""
"","feedback","","html-keyboard-response","312","643745","0.0-1.0-429.0-0.0","0","0","22553","","null","","","null","47","","","","","","","","","","","","","","","",""
"","time_out","","html-keyboard-response","313","645762","0.0-1.0-431.0-0.0","0","0","22553","","null","","","null","47","","","","","","","","","","","","","","","",""
"","ITI","","html-keyboard-response","314","646778","0.0-1.0-432.0","0","0","22553","","null","","","null","47","","","","","","","","","","","","","","","NaN",""
"","S1","","html-keyboard-response","315","647041","0.0-1.0-434.0","0","0","22553","","null","","","null","48","","","","","","","","","","","","","","","",""
"","ISI","","html-keyboard-response","316","649051","0.0-1.0-435.0","0","0","22553","","null","","","null","48","NaN","","","","","","","","","","","","","","",""
"","S2","","html-keyboard-response","317","649311","0.0-1.0-436.0","0","0","22553","","null","","","null","48","","NaN","","","","","","","","","","","","","",""
"","response","","html-keyboard-response","318","649533","0.0-1.0-437.0","0","0","22553","","219","","","68","48","","","2","48","training","adjacent","CB","3","2","R.jpg","N.jpg","0","0","1","",""
"","feedback","","html-keyboard-response","319","650543","0.0-1.0-438.0-0.0","0","0","22553","","null","","","null","48","","","","","","","","","","","","","","","",""
"","ITI","","html-keyboard-response","320","651557","0.0-1.0-441.0","0","0","22553","","null","","","null","48","","","","","","","","","","","","","","","NaN",""
"","S1","","html-keyboard-response","321","651819","0.0-1.0-443.0","0","0","22553","","null","","","null","49","","","","","","","","","","","","","","","",""
"","ISI","","html-keyboard-response","322","653830","0.0-1.0-444.0","0","0","22553","","null","","","null","49","NaN","","","","","","","","","","","","","","",""
"","S2","","html-keyboard-response","323","654090","0.0-1.0-445.0","0","0","22553","","null","","","null","49","","NaN","","","","","","","","","","","","","",""
"","response","","html-keyboard-response","324","654667","0.0-1.0-446.0","0","0","22553","","574","","","75","49","","","2","49","training","adjacent","GF","7","6","L.jpg","Q.jpg","1","0","0","",""
"","feedback","","html-keyboard-response","325","655683","0.0-1.0-447.0-0.0","0","0","22553","","null","","","null","49","","","","","","","","","","","","","","","",""
"","time_out","","html-keyboard-response","326","657697","0.0-1.0-449.0-0.0","0","0","22553","","null","","","null","49","","","","","","","","","","","","","","","",""
"","ITI","","html-keyboard-response","327","658702","0.0-1.0-450.0","0","0","22553","","null","","","null","49","","","","","","","","","","","","","","","NaN",""
"","S1","","html-keyboard-response","328","658963","0.0-1.0-452.0","0","0","22553","","null","","","null","50","","","","","","","","","","","","","","","",""
"","ISI","","html-keyboard-response","329","660975","0.0-1.0-453.0","0","0","22553","","null","","","null","50","NaN","","","","","","","","","","","","","","",""
"","S2","","html-keyboard-response","330","661234","0.0-1.0-454.0","0","0","22553","","null","","","null","50","","NaN","","","","","","","","","","","","","",""
"","response","","html-keyboard-response","331","661273","0.0-1.0-455.0","0","0","22553","","37","","","68","50","","","2","50","training","adjacent","EF","5","6","O.jpg","Q.jpg","0","1","0","",""
"","feedback","","html-keyboard-response","332","662284","0.0-1.0-456.0-0.0","0","0","22553","","null","","","null","50","","","","","","","","","","","","","","","",""
"","time_out","","html-keyboard-response","333","664292","0.0-1.0-458.0-0.0","0","0","22553","","null","","","null","50","","","","","","","","","","","","","","","",""
"","ITI","","html-keyboard-response","334","665297","0.0-1.0-459.0","0","0","22553","","null","","","null","50","","","","","","","","","","","","","","","NaN",""
"","S1","","html-keyboard-response","335","665557","0.0-1.0-461.0","0","0","22553","","null","","","null","51","","","","","","","","","","","","","","","",""
"","ISI","","html-keyboard-response","336","667566","0.0-1.0-462.0","0","0","22553","","null","","","null","51","NaN","","","","","","","","","","","","","","",""
"","S2","","html-keyboard-response","337","667831","0.0-1.0-463.0","0","0","22553","","null","","","null","51","","NaN","","","","","","","","","","","","","",""
"","response","","html-keyboard-response","338","668387","0.0-1.0-464.0","0","0","22553","","553","","","75","51","","","2","51","training","adjacent","CB","3","2","R.jpg","N.jpg","1","0","0","",""
"","feedback","","html-keyboard-response","339","669403","0.0-1.0-465.0-0.0","0","0","22553","","null","","","null","51","","","","","","","","","","","","","","","",""
"","time_out","","html-keyboard-response","340","671410","0.0-1.0-467.0-0.0","0","0","22553","","null","","","null","51","","","","","","","","","","","","","","","",""
"","ITI","","html-keyboard-response","341","672417","0.0-1.0-468.0","0","0","22553","","null","","","null","51","","","","","","","","","","","","","","","NaN",""
"","S1","","html-keyboard-response","342","672681","0.0-1.0-470.0","0","0","22553","","null","","","null","52","","","","","","","","","","","","","","","",""
"","ISI","","html-keyboard-response","343","674687","0.0-1.0-471.0","0","0","22553","","null","","","null","52","NaN","","","","","","","","","","","","","","",""
"","S2","","html-keyboard-response","344","674948","0.0-1.0-472.0","0","0","22553","","null","","","null","52","","NaN","","","","","","","","","","","","","",""
"","response","","html-keyboard-response","345","675227","0.0-1.0-473.0","0","0","22553","","277","","","68","52","","","2","52","training","adjacent","CB","3","2","R.jpg","N.jpg","0","0","1","",""
"","feedback","","html-keyboard-response","346","676231","0.0-1.0-474.0-0.0","0","0","22553","","null","","","null","52","","","","","","","","","","","","","","","",""
"","ITI","","html-keyboard-response","347","677236","0.0-1.0-477.0","0","0","22553","","null","","","null","52","","","","","","","","","","","","","","","NaN",""
"","S1","","html-keyboard-response","348","677499","0.0-1.0-479.0","0","0","22553","","null","","","null","53","","","","","","","","","","","","","","","",""
"","ISI","","html-keyboard-response","349","679502","0.0-1.0-480.0","0","0","22553","","null","","","null","53","NaN","","","","","","","","","","","","","","",""
"","S2","","html-keyboard-response","350","679763","0.0-1.0-481.0","0","0","22553","","null","","","null","53","","NaN","","","","","","","","","","","","","",""
"","response","","html-keyboard-response","351","680378","0.0-1.0-482.0","0","0","22553","","613","","","75","53","","","2","53","training","adjacent","ED","5","4","O.jpg","P.jpg","1","0","0","",""
"","feedback","","html-keyboard-response","352","681388","0.0-1.0-483.0-0.0","0","0","22553","","null","","","null","53","","","","","","","","","","","","","","","",""
"","time_out","","html-keyboard-response","353","683393","0.0-1.0-485.0-0.0","0","0","22553","","null","","","null","53","","","","","","","","","","","","","","","",""
"","ITI","","html-keyboard-response","354","684399","0.0-1.0-486.0","0","0","22553","","null","","","null","53","","","","","","","","","","","","","","","NaN",""
"","S1","","html-keyboard-response","355","684664","0.0-1.0-488.0","0","0","22553","","null","","","null","54","","","","","","","","","","","","","","","",""
"","ISI","","html-keyboard-response","356","686666","0.0-1.0-489.0","0","0","22553","","null","","","null","54","NaN","","","","","","","","","","","","","","",""
"","S2","","html-keyboard-response","357","686929","0.0-1.0-490.0","0","0","22553","","null","","","null","54","","NaN","","","","","","","","","","","","","",""
"","response","","html-keyboard-response","358","687435","0.0-1.0-491.0","0","0","22553","","503","","","68","54","","","2","54","training","adjacent","CD","3","4","R.jpg","P.jpg","0","1","0","",""
"","feedback","","html-keyboard-response","359","688441","0.0-1.0-492.0-0.0","0","0","22553","","null","","","null","54","","","","","","","","","","","","","","","",""
"","time_out","","html-keyboard-response","360","690453","0.0-1.0-494.0-0.0","0","0","22553","","null","","","null","54","","","","","","","","","","","","","","","",""
"","ITI","","html-keyboard-response","361","691457","0.0-1.0-495.0","0","0","22553","","null","","","null","54","","","","","","","","","","","","","","","NaN",""
"","S1","","html-keyboard-response","362","691720","0.0-1.0-497.0","0","0","22553","","null","","","null","55","","","","","","","","","","","","","","","",""
"","ISI","","html-keyboard-response","363","693731","0.0-1.0-498.0","0","0","22553","","null","","","null","55","NaN","","","","","","","","","","","","","","",""
"","S2","","html-keyboard-response","364","693995","0.0-1.0-499.0","0","0","22553","","null","","","null","55","","NaN","","","","","","","","","","","","","",""
"","response","","html-keyboard-response","365","694203","0.0-1.0-500.0","0","0","22553","","205","","","75","55","","","2","55","training","adjacent","FG","6","7","Q.jpg","L.jpg","1","1","1","",""
"","feedback","","html-keyboard-response","366","695215","0.0-1.0-501.0-0.0","0","0","22553","","null","","","null","55","","","","","","","","","","","","","","","",""
"","ITI","","html-keyboard-response","367","696218","0.0-1.0-504.0","0","0","22553","","null","","","null","55","","","","","","","","","","","","","","","NaN",""
"","S1","","html-keyboard-response","368","696482","0.0-1.0-506.0","0","0","22553","","null","","","null","56","","","","","","","","","","","","","","","",""
"","ISI","","html-keyboard-response","369","698494","0.0-1.0-507.0","0","0","22553","","null","","","null","56","NaN","","","","","","","","","","","","","","",""
"","S2","","html-keyboard-response","370","698756","0.0-1.0-508.0","0","0","22553","","null","","","null","56","","NaN","","","","","","","","","","","","","",""
"","response","","html-keyboard-response","371","699491","0.0-1.0-509.0","0","0","22553","","731","","","75","56","","","2","56","training","adjacent","ED","5","4","O.jpg","P.jpg","1","0","0","",""
"","feedback","","html-keyboard-response","372","700504","0.0-1.0-510.0-0.0","0","0","22553","","null","","","null","56","","","","","","","","","","","","","","","",""
"","time_out","","html-keyboard-response","373","702518","0.0-1.0-512.0-0.0","0","0","22553","","null","","","null","56","","","","","","","","","","","","","","","",""
"","ITI","","html-keyboard-response","374","703521","0.0-1.0-513.0","0","0","22553","","null","","","null","56","","","","","","","","","","","","","","","NaN",""
"","S1","","html-keyboard-response","375","703785","0.0-1.0-515.0","0","0","22553","","null","","","null","57","","","","","","","","","","","","","","","",""
"","ISI","","html-keyboard-response","376","705796","0.0-1.0-516.0","0","0","22553","","null","","","null","57","NaN","","","","","","","","","","","","","","",""
"","S2","","html-keyboard-response","377","706057","0.0-1.0-517.0","0","0","22553","","null","","","null","57","","NaN","","","","","","","","","","","","","",""
"","response","","html-keyboard-response","378","706427","0.0-1.0-518.0","0","0","22553","","367","","","68","57","","","2","57","training","adjacent","DC","4","3","P.jpg","R.jpg","0","0","1","",""
"","feedback","","html-keyboard-response","379","707435","0.0-1.0-519.0-0.0","0","0","22553","","null","","","null","57","","","","","","","","","","","","","","","",""
"","ITI","","html-keyboard-response","380","708439","0.0-1.0-522.0","0","0","22553","","null","","","null","57","","","","","","","","","","","","","","","NaN",""
"","S1","","html-keyboard-response","381","708702","0.0-1.0-524.0","0","0","22553","","null","","","null","58","","","","","","","","","","","","","","","",""
"","ISI","","html-keyboard-response","382","710709","0.0-1.0-525.0","0","0","22553","","null","","","null","58","NaN","","","","","","","","","","","","","","",""
"","S2","","html-keyboard-response","383","710971","0.0-1.0-526.0","0","0","22553","","null","","","null","58","","NaN","","","","","","","","","","","","","",""
"","response","","html-keyboard-response","384","711553","0.0-1.0-527.0","0","0","22553","","580","","","75","58","","","2","58","training","adjacent","EF","5","6","O.jpg","Q.jpg","1","1","1","",""
"","feedback","","html-keyboard-response","385","712560","0.0-1.0-528.0-0.0","0","0","22553","","null","","","null","58","","","","","","","","","","","","","","","",""
"","ITI","","html-keyboard-response","386","713567","0.0-1.0-531.0","0","0","22553","","null","","","null","58","","","","","","","","","","","","","","","NaN",""
"","S1","","html-keyboard-response","387","713829","0.0-1.0-533.0","0","0","22553","","null","","","null","59","","","","","","","","","","","","","","","",""
"","ISI","","html-keyboard-response","388","715838","0.0-1.0-534.0","0","0","22553","","null","","","null","59","NaN","","","","","","","","","","","","","","",""
"","S2","","html-keyboard-response","389","716102","0.0-1.0-535.0","0","0","22553","","null","","","null","59","","NaN","","","","","","","","","","","","","",""
"","response","","html-keyboard-response","390","716955","0.0-1.0-536.0","0","0","22553","","851","","","68","59","","","2","59","training","adjacent","FG","6","7","Q.jpg","L.jpg","0","1","0","",""
"","feedback","","html-keyboard-response","391","717961","0.0-1.0-537.0-0.0","0","0","22553","","null","","","null","59","","","","","","","","","","","","","","","",""
"","time_out","","html-keyboard-response","392","719976","0.0-1.0-539.0-0.0","0","0","22553","","null","","","null","59","","","","","","","","","","","","","","","",""
"","ITI","","html-keyboard-response","393","720980","0.0-1.0-540.0","0","0","22553","","null","","","null","59","","","","","","","","","","","","","","","NaN",""
"","S1","","html-keyboard-response","394","721243","0.0-1.0-542.0","0","0","22553","","null","","","null","60","","","","","","","","","","","","","","","",""
"","ISI","","html-keyboard-response","395","723246","0.0-1.0-543.0","0","0","22553","","null","","","null","60","NaN","","","","","","","","","","","","","","",""
"","S2","","html-keyboard-response","396","723506","0.0-1.0-544.0","0","0","22553","","null","","","null","60","","NaN","","","","","","","","","","","","","",""
"","response","","html-keyboard-response","397","723523","0.0-1.0-545.0","0","0","22553","","14","","","75","60","","","2","60","training","adjacent","DC","4","3","P.jpg","R.jpg","1","0","0","",""
"","feedback","","html-keyboard-response","398","724539","0.0-1.0-546.0-0.0","0","0","22553","","null","","","null","60","","","","","","","","","","","","","","","",""
"","time_out","","html-keyboard-response","399","726547","0.0-1.0-548.0-0.0","0","0","22553","","null","","","null","60","","","","","","","","","","","","","","","",""
"","ITI","","html-keyboard-response","400","727557","0.0-1.0-549.0","0","0","22553","","null","","","null","60","","","","","","","","","","","","","","","NaN",""
"","S1","","html-keyboard-response","401","727810","0.0-1.0-551.0","0","0","22553","","null","","","null","61","","","","","","","","","","","","","","","",""
"","ISI","","html-keyboard-response","402","729827","0.0-1.0-552.0","0","0","22553","","null","","","null","61","NaN","","","","","","","","","","","","","","",""
"","S2","","html-keyboard-response","403","730079","0.0-1.0-553.0","0","0","22553","","null","","","null","61","","NaN","","","","","","","","","","","","","",""
"","response","","html-keyboard-response","404","730665","0.0-1.0-554.0","0","0","22553","","585","","","68","61","","","2","61","training","adjacent","BA","2","1","N.jpg","M.jpg","0","0","1","",""
"","feedback","","html-keyboard-response","405","731672","0.0-1.0-555.0-0.0","0","0","22553","","null","","","null","61","","","","","","","","","","","","","","","",""
"","ITI","","html-keyboard-response","406","732680","0.0-1.0-558.0","0","0","22553","","null","","","null","61","","","","","","","","","","","","","","","NaN",""
"","S1","","html-keyboard-response","407","732946","0.0-1.0-560.0","0","0","22553","","null","","","null","62","","","","","","","","","","","","","","","",""
"","ISI","","html-keyboard-response","408","734952","0.0-1.0-561.0","0","0","22553","","null","","","null","62","NaN","","","","","","","","","","","","","","",""
"","S2","","html-keyboard-response","409","735217","0.0-1.0-562.0","0","0","22553","","null","","","null","62","","NaN","","","","","","","","","","","","","",""
"","response","","html-keyboard-response","410","735761","0.0-1.0-563.0","0","0","22553","","542","","","75","62","","","2","62","training","adjacent","AB","1","2","M.jpg","N.jpg","1","1","1","",""
"","feedback","","html-keyboard-response","411","736773","0.0-1.0-564.0-0.0","0","0","22553","","null","","","null","62","","","","","","","","","","","","","","","",""
"","ITI","","html-keyboard-response","412","737778","0.0-1.0-567.0","0","0","22553","","null","","","null","62","","","","","","","","","","","","","","","NaN",""
"","S1","","html-keyboard-response","413","738033","0.0-1.0-569.0","0","0","22553","","null","","","null","63","","","","","","","","","","","","","","","",""
"","ISI","","html-keyboard-response","414","740043","0.0-1.0-570.0","0","0","22553","","null","","","null","63","NaN","","","","","","","","","","","","","","",""
"","S2","","html-keyboard-response","415","740308","0.0-1.0-571.0","0","0","22553","","null","","","null","63","","NaN","","","","","","","","","","","","","",""
"","response","","html-keyboard-response","416","740809","0.0-1.0-572.0","0","0","22553","","499","","","75","63","","","2","63","training","adjacent","BA","2","1","N.jpg","M.jpg","1","0","0","",""
"","feedback","","html-keyboard-response","417","741825","0.0-1.0-573.0-0.0","0","0","22553","","null","","","null","63","","","","","","","","","","","","","","","",""
"","time_out","","html-keyboard-response","418","743840","0.0-1.0-575.0-0.0","0","0","22553","","null","","","null","63","","","","","","","","","","","","","","","",""
"","ITI","","html-keyboard-response","419","744843","0.0-1.0-576.0","0","0","22553","","null","","","null","63","","","","","","","","","","","","","","","NaN",""
"","S1","","html-keyboard-response","420","745106","0.0-1.0-578.0","0","0","22553","","null","","","null","64","","","","","","","","","","","","","","","",""
"","ISI","","html-keyboard-response","421","747115","0.0-1.0-579.0","0","0","22553","","null","","","null","64","NaN","","","","","","","","","","","","","","",""
"","S2","","html-keyboard-response","422","747378","0.0-1.0-580.0","0","0","22553","","null","","","null","64","","NaN","","","","","","","","","","","","","",""
"","response","","html-keyboard-response","423","747539","0.0-1.0-581.0","0","0","22553","","159","","","68","64","","","2","64","training","adjacent","AB","1","2","M.jpg","N.jpg","0","1","0","",""
"","feedback","","html-keyboard-response","424","748553","0.0-1.0-582.0-0.0","0","0","22553","","null","","","null","64","","","","","","","","","","","","","","","",""
"","time_out","","html-keyboard-response","425","750569","0.0-1.0-584.0-0.0","0","0","22553","","null","","","null","64","","","","","","","","","","","","","","","",""
"","ITI","","html-keyboard-response","426","751574","0.0-1.0-585.0","0","0","22553","","null","","","null","64","","","","","","","","","","","","","","","NaN",""
"","S1","","html-keyboard-response","427","751838","0.0-1.0-587.0","0","0","22553","","null","","","null","65","","","","","","","","","","","","","","","",""
"","ISI","","html-keyboard-response","428","753847","0.0-1.0-588.0","0","0","22553","","null","","","null","65","NaN","","","","","","","","","","","","","","",""
"","S2","","html-keyboard-response","429","754108","0.0-1.0-589.0","0","0","22553","","null","","","null","65","","NaN","","","","","","","","","","","","","",""
"","response","","html-keyboard-response","430","754666","0.0-1.0-590.0","0","0","22553","","555","","","75","65","","","2","65","training","adjacent","DE","4","5","P.jpg","O.jpg","1","1","1","",""
"","feedback","","html-keyboard-response","431","755671","0.0-1.0-591.0-0.0","0","0","22553","","null","","","null","65","","","","","","","","","","","","","","","",""
"","ITI","","html-keyboard-response","432","756676","0.0-1.0-594.0","0","0","22553","","null","","","null","65","","","","","","","","","","","","","","","NaN",""
"","S1","","html-keyboard-response","433","756938","0.0-1.0-596.0","0","0","22553","","null","","","null","66","","","","","","","","","","","","","","","",""
"","ISI","","html-keyboard-response","434","758945","0.0-1.0-597.0","0","0","22553","","null","","","null","66","NaN","","","","","","","","","","","","","","",""
"","S2","","html-keyboard-response","435","759207","0.0-1.0-598.0","0","0","22553","","null","","","null","66","","NaN","","","","","","","","","","","","","",""
"","response","","html-keyboard-response","436","759866","0.0-1.0-599.0","0","0","22553","","657","","","75","66","","","2","66","training","adjacent","FE","6","5","Q.jpg","O.jpg","1","0","0","",""
"","feedback","","html-keyboard-response","437","760876","0.0-1.0-600.0-0.0","0","0","22553","","null","","","null","66","","","","","","","","","","","","","","","",""
"","time_out","","html-keyboard-response","438","762889","0.0-1.0-602.0-0.0","0","0","22553","","null","","","null","66","","","","","","","","","","","","","","","",""
"","ITI","","html-keyboard-response","439","763905","0.0-1.0-603.0","0","0","22553","","null","","","null","66","","","","","","","","","","","","","","","NaN",""
"","S1","","html-keyboard-response","440","764168","0.0-1.0-605.0","0","0","22553","","null","","","null","67","","","","","","","","","","","","","","","",""
"","ISI","","html-keyboard-response","441","766182","0.0-1.0-606.0","0","0","22553","","null","","","null","67","NaN","","","","","","","","","","","","","","",""
"","S2","","html-keyboard-response","442","766444","0.0-1.0-607.0","0","0","22553","","null","","","null","67","","NaN","","","","","","","","","","","","","",""
"","response","","html-keyboard-response","443","766594","0.0-1.0-608.0","0","0","22553","","148","","","75","67","","","2","67","training","adjacent","GF","7","6","L.jpg","Q.jpg","1","0","0","",""
"","feedback","","html-keyboard-response","444","767602","0.0-1.0-609.0-0.0","0","0","22553","","null","","","null","67","","","","","","","","","","","","","","","",""
"","time_out","","html-keyboard-response","445","769613","0.0-1.0-611.0-0.0","0","0","22553","","null","","","null","67","","","","","","","","","","","","","","","",""
"","ITI","","html-keyboard-response","446","770622","0.0-1.0-612.0","0","0","22553","","null","","","null","67","","","","","","","","","","","","","","","NaN",""
"","S1","","html-keyboard-response","447","770883","0.0-1.0-614.0","0","0","22553","","null","","","null","68","","","","","","","","","","","","","","","",""
"","ISI","","html-keyboard-response","448","772891","0.0-1.0-615.0","0","0","22553","","null","","","null","68","NaN","","","","","","","","","","","","","","",""
"","S2","","html-keyboard-response","449","773153","0.0-1.0-616.0","0","0","22553","","null","","","null","68","","NaN","","","","","","","","","","","","","",""
"","response","","html-keyboard-response","450","773642","0.0-1.0-617.0","0","0","22553","","486","","","68","68","","","2","68","training","adjacent","CD","3","4","R.jpg","P.jpg","0","1","0","",""
"","feedback","","html-keyboard-response","451","774650","0.0-1.0-618.0-0.0","0","0","22553","","null","","","null","68","","","","","","","","","","","","","","","",""
"","time_out","","html-keyboard-response","452","776664","0.0-1.0-620.0-0.0","0","0","22553","","null","","","null","68","","","","","","","","","","","","","","","",""
"","ITI","","html-keyboard-response","453","777670","0.0-1.0-621.0","0","0","22553","","null","","","null","68","","","","","","","","","","","","","","","NaN",""
"","S1","","html-keyboard-response","454","777933","0.0-1.0-623.0","0","0","22553","","null","","","null","69","","","","","","","","","","","","","","","",""
"","ISI","","html-keyboard-response","455","779947","0.0-1.0-624.0","0","0","22553","","null","","","null","69","NaN","","","","","","","","","","","","","","",""
"","S2","","html-keyboard-response","456","780209","0.0-1.0-625.0","0","0","22553","","null","","","null","69","","NaN","","","","","","","","","","","","","",""
"","response","","html-keyboard-response","457","780531","0.0-1.0-626.0","0","0","22553","","320","","","75","69","","","2","69","training","adjacent","CD","3","4","R.jpg","P.jpg","1","1","1","",""
"","feedback","","html-keyboard-response","458","781543","0.0-1.0-627.0-0.0","0","0","22553","","null","","","null","69","","","","","","","","","","","","","","","",""
"","ITI","","html-keyboard-response","459","782551","0.0-1.0-630.0","0","0","22553","","null","","","null","69","","","","","","","","","","","","","","","NaN",""
"","S1","","html-keyboard-response","460","782814","0.0-1.0-632.0","0","0","22553","","null","","","null","70","","","","","","","","","","","","","","","",""
"","ISI","","html-keyboard-response","461","784826","0.0-1.0-633.0","0","0","22553","","null","","","null","70","NaN","","","","","","","","","","","","","","",""
"","S2","","html-keyboard-response","462","785089","0.0-1.0-634.0","0","0","22553","","null","","","null","70","","NaN","","","","","","","","","","","","","",""
"","response","","html-keyboard-response","463","785322","0.0-1.0-635.0","0","0","22553","","230","","","75","70","","","2","70","training","adjacent","ED","5","4","O.jpg","P.jpg","1","0","0","",""
"","feedback","","html-keyboard-response","464","786331","0.0-1.0-636.0-0.0","0","0","22553","","null","","","null","70","","","","","","","","","","","","","","","",""
"","time_out","","html-keyboard-response","465","788343","0.0-1.0-638.0-0.0","0","0","22553","","null","","","null","70","","","","","","","","","","","","","","","",""
"","ITI","","html-keyboard-response","466","789350","0.0-1.0-639.0","0","0","22553","","null","","","null","70","","","","","","","","","","","","","","","NaN",""
"","S1","","html-keyboard-response","467","789614","0.0-1.0-641.0","0","0","22553","","null","","","null","71","","","","","","","","","","","","","","","",""
"","ISI","","html-keyboard-response","468","791624","0.0-1.0-642.0","0","0","22553","","null","","","null","71","NaN","","","","","","","","","","","","","","",""
"","S2","","html-keyboard-response","469","791885","0.0-1.0-643.0","0","0","22553","","null","","","null","71","","NaN","","","","","","","","","","","","","",""
"","response","","html-keyboard-response","470","793899","0.0-1.0-644.0","0","0","22553","","null","","","null","71","","","2","71","training","adjacent","BA","2","1","N.jpg","M.jpg","NaN","0","0","",""
"","too_slow_prompt","","html-keyboard-response","471","794915","0.0-1.0-646.0-0.0","1","0","22553","","null","","","null","","","","","","","","","","","","","","","","",""
"","time_out","","html-keyboard-response","472","796925","0.0-1.0-647.0-0.0","0","0","22553","","null","","","null","71","","","","","","","","","","","","","","","",""
"","ITI","","html-keyboard-response","473","797929","0.0-1.0-648.0","0","0","22553","","null","","","null","71","","","","","","","","","","","","","","","NaN",""
"","S1","","html-keyboard-response","474","798189","0.0-1.0-650.0","0","0","22553","","null","","","null","72","","","","","","","","","","","","","","","",""
"","ISI","","html-keyboard-response","475","800201","0.0-1.0-651.0","0","0","22553","","null","","","null","72","NaN","","","","","","","","","","","","","","",""
"","S2","","html-keyboard-response","476","800464","0.0-1.0-652.0","0","0","22553","","null","","","null","72","","NaN","","","","","","","","","","","","","",""
"","response","","html-keyboard-response","477","801042","0.0-1.0-653.0","0","0","22553","","575","","","75","72","","","2","72","training","adjacent","DC","4","3","P.jpg","R.jpg","1","0","0","",""
"","feedback","","html-keyboard-response","478","802045","0.0-1.0-654.0-0.0","0","0","22553","","null","","","null","72","","","","","","","","","","","","","","","",""
"","time_out","","html-keyboard-response","479","804049","0.0-1.0-656.0-0.0","0","0","22553","","null","","","null","72","","","","","","","","","","","","","","","",""
"","ITI","","html-keyboard-response","480","805055","0.0-1.0-657.0","0","0","22553","","null","","","null","72","","","","","","","","","","","","","","","NaN",""
"","S1","","html-keyboard-response","481","805319","0.0-1.0-659.0","0","0","22553","","null","","","null","73","","","","","","","","","","","","","","","",""
"","ISI","","html-keyboard-response","482","807320","0.0-1.0-660.0","0","0","22553","","null","","","null","73","NaN","","","","","","","","","","","","","","",""
"","S2","","html-keyboard-response","483","807581","0.0-1.0-661.0","0","0","22553","","null","","","null","73","","NaN","","","","","","","","","","","","","",""
"","response","","html-keyboard-response","484","807834","0.0-1.0-662.0","0","0","22553","","250","","","75","73","","","2","73","training","adjacent","FG","6","7","Q.jpg","L.jpg","1","1","1","",""
"","feedback","","html-keyboard-response","485","808848","0.0-1.0-663.0-0.0","0","0","22553","","null","","","null","73","","","","","","","","","","","","","","","",""
"","ITI","","html-keyboard-response","486","809853","0.0-1.0-666.0","0","0","22553","","null","","","null","73","","","","","","","","","","","","","","","NaN",""
"","S1","","html-keyboard-response","487","810114","0.0-1.0-668.0","0","0","22553","","null","","","null","74","","","","","","","","","","","","","","","",""
"","ISI","","html-keyboard-response","488","812127","0.0-1.0-669.0","0","0","22553","","null","","","null","74","NaN","","","","","","","","","","","","","","",""
"","S2","","html-keyboard-response","489","812386","0.0-1.0-670.0","0","0","22553","","null","","","null","74","","NaN","","","","","","","","","","","","","",""
"","response","","html-keyboard-response","490","812947","0.0-1.0-671.0","0","0","22553","","556","","","75","74","","","2","74","training","adjacent","DE","4","5","P.jpg","O.jpg","1","1","1","",""
"","feedback","","html-keyboard-response","491","813965","0.0-1.0-672.0-0.0","0","0","22553","","null","","","null","74","","","","","","","","","","","","","","","",""
"","ITI","","html-keyboard-response","492","814975","0.0-1.0-675.0","0","0","22553","","null","","","null","74","","","","","","","","","","","","","","","NaN",""
"","S1","","html-keyboard-response","493","815236","0.0-1.0-677.0","0","0","22553","","null","","","null","75","","","","","","","","","","","","","","","",""
"","ISI","","html-keyboard-response","494","817251","0.0-1.0-678.0","0","0","22553","","null","","","null","75","NaN","","","","","","","","","","","","","","",""
"","S2","","html-keyboard-response","495","817512","0.0-1.0-679.0","0","0","22553","","null","","","null","75","","NaN","","","","","","","","","","","","","",""
"","response","","html-keyboard-response","496","817681","0.0-1.0-680.0","0","0","22553","","167","","","75","75","","","2","75","training","adjacent","FE","6","5","Q.jpg","O.jpg","1","0","0","",""
"","feedback","","html-keyboard-response","497","818690","0.0-1.0-681.0-0.0","0","0","22553","","null","","","null","75","","","","","","","","","","","","","","","",""
"","time_out","","html-keyboard-response","498","820697","0.0-1.0-683.0-0.0","0","0","22553","","null","","","null","75","","","","","","","","","","","","","","","",""
"","ITI","","html-keyboard-response","499","821707","0.0-1.0-684.0","0","0","22553","","null","","","null","75","","","","","","","","","","","","","","","NaN",""
"","S1","","html-keyboard-response","500","821967","0.0-1.0-686.0","0","0","22553","","null","","","null","76","","","","","","","","","","","","","","","",""
"","ISI","","html-keyboard-response","501","823972","0.0-1.0-687.0","0","0","22553","","null","","","null","76","NaN","","","","","","","","","","","","","","",""
"","S2","","html-keyboard-response","502","824235","0.0-1.0-688.0","0","0","22553","","null","","","null","76","","NaN","","","","","","","","","","","","","",""
"","response","","html-keyboard-response","503","826242","0.0-1.0-689.0","0","0","22553","","null","","","null","76","","","2","76","training","adjacent","BC","2","3","N.jpg","R.jpg","NaN","1","0","",""
"","too_slow_prompt","","html-keyboard-response","504","827258","0.0-1.0-691.0-0.0","1","0","22553","","null","","","null","","","","","","","","","","","","","","","","",""
"","time_out","","html-keyboard-response","505","829263","0.0-1.0-692.0-0.0","0","0","22553","","null","","","null","76","","","","","","","","","","","","","","","",""
"","ITI","","html-keyboard-response","506","830272","0.0-1.0-693.0","0","0","22553","","null","","","null","76","","","","","","","","","","","","","","","NaN",""
"","S1","","html-keyboard-response","507","830533","0.0-1.0-695.0","0","0","22553","","null","","","null","77","","","","","","","","","","","","","","","",""
"","ISI","","html-keyboard-response","508","832546","0.0-1.0-696.0","0","0","22553","","null","","","null","77","NaN","","","","","","","","","","","","","","",""
"","S2","","html-keyboard-response","509","832806","0.0-1.0-697.0","0","0","22553","","null","","","null","77","","NaN","","","","","","","","","","","","","",""
"","response","","html-keyboard-response","510","832993","0.0-1.0-698.0","0","0","22553","","183","","","68","77","","","2","77","training","adjacent","GF","7","6","L.jpg","Q.jpg","0","0","1","",""
"","feedback","","html-keyboard-response","511","834003","0.0-1.0-699.0-0.0","0","0","22553","","null","","","null","77","","","","","","","","","","","","","","","",""
"","ITI","","html-keyboard-response","512","835017","0.0-1.0-702.0","0","0","22553","","null","","","null","77","","","","","","","","","","","","","","","NaN",""
"","S1","","html-keyboard-response","513","835278","0.0-1.0-704.0","0","0","22553","","null","","","null","78","","","","","","","","","","","","","","","",""
"","ISI","","html-keyboard-response","514","837288","0.0-1.0-705.0","0","0","22553","","null","","","null","78","NaN","","","","","","","","","","","","","","",""
"","S2","","html-keyboard-response","515","837547","0.0-1.0-706.0","0","0","22553","","null","","","null","78","","NaN","","","","","","","","","","","","","",""
"","response","","html-keyboard-response","516","837633","0.0-1.0-707.0","0","0","22553","","84","","","75","78","","","2","78","training","adjacent","DC","4","3","P.jpg","R.jpg","1","0","0","",""
"","feedback","","html-keyboard-response","517","838638","0.0-1.0-708.0-0.0","0","0","22553","","null","","","null","78","","","","","","","","","","","","","","","",""
"","time_out","","html-keyboard-response","518","840645","0.0-1.0-710.0-0.0","0","0","22553","","null","","","null","78","","","","","","","","","","","","","","","",""
"","ITI","","html-keyboard-response","519","841657","0.0-1.0-711.0","0","0","22553","","null","","","null","78","","","","","","","","","","","","","","","NaN",""
"","S1","","html-keyboard-response","520","841919","0.0-1.0-713.0","0","0","22553","","null","","","null","79","","","","","","","","","","","","","","","",""
"","ISI","","html-keyboard-response","521","843923","0.0-1.0-714.0","0","0","22553","","312","","","75","79","k","","","","","","","","","","","","","","",""
"","S2","","html-keyboard-response","522","844183","0.0-1.0-715.0","0","0","22553","","null","","","null","79","","NaN","","","","","","","","","","","","","",""
"","response","","html-keyboard-response","523","844408","0.0-1.0-716.0","0","0","22553","","222","","","75","79","","","2","79","training","adjacent","CD","3","4","R.jpg","P.jpg","1","1","1","",""
"","feedback","","html-keyboard-response","524","845416","0.0-1.0-717.0-0.0","0","0","22553","","null","","","null","79","","","","","","","","","","","","","","","",""
"","ITI","","html-keyboard-response","525","846432","0.0-1.0-720.0","0","0","22553","","null","","","null","79","","","","","","","","","","","","","","","NaN",""
"","block_over","","html-keyboard-response","526","851216","0.0-1.0-721.0-0.0","0","0","22553","","4781","","","32","79","","","","","","","","","","","","","","","",""
"","S1","","html-keyboard-response","527","851482","0.0-1.0-722.0","0","0","22553","","null","","","null","80","","","","","","","","","","","","","","","",""
"","ISI","","html-keyboard-response","528","853488","0.0-1.0-723.0","0","0","22553","","null","","","null","80","NaN","","","","","","","","","","","","","","",""
"","S2","","html-keyboard-response","529","853748","0.0-1.0-724.0","0","0","22553","","null","","","null","80","","NaN","","","","","","","","","","","","","",""
"","response","","html-keyboard-response","530","854433","0.0-1.0-725.0","0","0","22553","","682","","","68","80","","","3","80","training","adjacent","BA","2","1","N.jpg","M.jpg","0","0","1","",""
"","feedback","","html-keyboard-response","531","855451","0.0-1.0-726.0-0.0","0","0","22553","","null","","","null","80","","","","","","","","","","","","","","","",""
"","ITI","","html-keyboard-response","532","856464","0.0-1.0-729.0","0","0","22553","","null","","","null","80","","","","","","","","","","","","","","","NaN",""
"","S1","","html-keyboard-response","533","856724","0.0-1.0-731.0","0","0","22553","","null","","","null","81","","","","","","","","","","","","","","","",""
"","ISI","","html-keyboard-response","534","858737","0.0-1.0-732.0","0","0","22553","","1579","","","75","81","k","","","","","","","","","","","","","","",""
"","S2","","html-keyboard-response","535","858999","0.0-1.0-733.0","0","0","22553","","null","","","null","81","","NaN","","","","","","","","","","","","","",""
"","response","","html-keyboard-response","536","859049","0.0-1.0-734.0","0","0","22553","","48","","","75","81","","","3","81","training","adjacent","CD","3","4","R.jpg","P.jpg","1","1","1","",""
"","feedback","","html-keyboard-response","537","860065","0.0-1.0-735.0-0.0","0","0","22553","","null","","","null","81","","","","","","","","","","","","","","","",""
"","ITI","","html-keyboard-response","538","861074","0.0-1.0-738.0","0","0","22553","","null","","","null","81","","","","","","","","","","","","","","","NaN",""
"","S1","","html-keyboard-response","539","861335","0.0-1.0-740.0","0","0","22553","","null","","","null","82","","","","","","","","","","","","","","","",""
"","ISI","","html-keyboard-response","540","863352","0.0-1.0-741.0","0","0","22553","","null","","","null","82","NaN","","","","","","","","","","","","","","",""
"","S2","","html-keyboard-response","541","863614","0.0-1.0-742.0","0","0","22553","","null","","","null","82","","NaN","","","","","","","","","","","","","",""
"","response","","html-keyboard-response","542","863809","0.0-1.0-743.0","0","0","22553","","193","","","68","82","","","3","82","training","adjacent","FE","6","5","Q.jpg","O.jpg","0","0","1","",""
"","feedback","","html-keyboard-response","543","864824","0.0-1.0-744.0-0.0","0","0","22553","","null","","","null","82","","","","","","","","","","","","","","","",""
"","ITI","","html-keyboard-response","544","865839","0.0-1.0-747.0","0","0","22553","","null","","","null","82","","","","","","","","","","","","","","","NaN",""
"","S1","","html-keyboard-response","545","866100","0.0-1.0-749.0","0","0","22553","","null","","","null","83","","","","","","","","","","","","","","","",""
"","ISI","","html-keyboard-response","546","868109","0.0-1.0-750.0","0","0","22553","","null","","","null","83","NaN","","","","","","","","","","","","","","",""
"","S2","","html-keyboard-response","547","868369","0.0-1.0-751.0","0","0","22553","","null","","","null","83","","NaN","","","","","","","","","","","","","",""
"","response","","html-keyboard-response","548","868560","0.0-1.0-752.0","0","0","22553","","189","","","75","83","","","3","83","training","adjacent","FG","6","7","Q.jpg","L.jpg","1","1","1","",""
"","feedback","","html-keyboard-response","549","869564","0.0-1.0-753.0-0.0","0","0","22553","","null","","","null","83","","","","","","","","","","","","","","","",""
"","ITI","","html-keyboard-response","550","870578","0.0-1.0-756.0","0","0","22553","","null","","","null","83","","","","","","","","","","","","","","","NaN",""
"","S1","","html-keyboard-response","551","870840","0.0-1.0-758.0","0","0","22553","","null","","","null","84","","","","","","","","","","","","","","","",""
"","ISI","","html-keyboard-response","552","872845","0.0-1.0-759.0","0","0","22553","","null","","","null","84","NaN","","","","","","","","","","","","","","",""
"","S2","","html-keyboard-response","553","873105","0.0-1.0-760.0","0","0","22553","","null","","","null","84","","NaN","","","","","","","","","","","","","",""
"","response","","html-keyboard-response","554","873616","0.0-1.0-761.0","0","0","22553","","509","","","68","84","","","3","84","training","adjacent","GF","7","6","L.jpg","Q.jpg","0","0","1","",""
"","feedback","","html-keyboard-response","555","874623","0.0-1.0-762.0-0.0","0","0","22553","","null","","","null","84","","","","","","","","","","","","","","","",""
"","ITI","","html-keyboard-response","556","875633","0.0-1.0-765.0","0","0","22553","","null","","","null","84","","","","","","","","","","","","","","","NaN",""
"","S1","","html-keyboard-response","557","875892","0.0-1.0-767.0","0","0","22553","","null","","","null","85","","","","","","","","","","","","","","","",""
"","ISI","","html-keyboard-response","558","877903","0.0-1.0-768.0","0","0","22553","","null","","","null","85","NaN","","","","","","","","","","","","","","",""
"","S2","","html-keyboard-response","559","878163","0.0-1.0-769.0","0","0","22553","","null","","","null","85","","NaN","","","","","","","","","","","","","",""
"","response","","html-keyboard-response","560","878817","0.0-1.0-770.0","0","0","22553","","652","","","68","85","","","3","85","training","adjacent","AB","1","2","M.jpg","N.jpg","0","1","0","",""
"","feedback","","html-keyboard-response","561","879821","0.0-1.0-771.0-0.0","0","0","22553","","null","","","null","85","","","","","","","","","","","","","","","",""
"","time_out","","html-keyboard-response","562","881829","0.0-1.0-773.0-0.0","0","0","22553","","null","","","null","85","","","","","","","","","","","","","","","",""
"","ITI","","html-keyboard-response","563","882839","0.0-1.0-774.0","0","0","22553","","null","","","null","85","","","","","","","","","","","","","","","NaN",""
"","S1","","html-keyboard-response","564","883100","0.0-1.0-776.0","0","0","22553","","null","","","null","86","","","","","","","","","","","","","","","",""
"","ISI","","html-keyboard-response","565","885112","0.0-1.0-777.0","0","0","22553","","481","","","68","86","d","","","","","","","","","","","","","","",""
"","S2","","html-keyboard-response","566","885372","0.0-1.0-778.0","0","0","22553","","null","","","null","86","","NaN","","","","","","","","","","","","","",""
"","response","","html-keyboard-response","567","885600","0.0-1.0-779.0","0","0","22553","","227","","","68","86","","","3","86","training","adjacent","BA","2","1","N.jpg","M.jpg","0","0","1","",""
"","feedback","","html-keyboard-response","568","886613","0.0-1.0-780.0-0.0","0","0","22553","","null","","","null","86","","","","","","","","","","","","","","","",""
"","ITI","","html-keyboard-response","569","887626","0.0-1.0-783.0","0","0","22553","","null","","","null","86","","","","","","","","","","","","","","","NaN",""
"","S1","","html-keyboard-response","570","887888","0.0-1.0-785.0","0","0","22553","","null","","","null","87","","","","","","","","","","","","","","","",""
"","ISI","","html-keyboard-response","571","889905","0.0-1.0-786.0","0","0","22553","","null","","","null","87","NaN","","","","","","","","","","","","","","",""
"","S2","","html-keyboard-response","572","890166","0.0-1.0-787.0","0","0","22553","","null","","","null","87","","NaN","","","","","","","","","","","","","",""
"","response","","html-keyboard-response","573","890473","0.0-1.0-788.0","0","0","22553","","305","","","75","87","","","3","87","training","adjacent","FG","6","7","Q.jpg","L.jpg","1","1","1","",""
"","feedback","","html-keyboard-response","574","891490","0.0-1.0-789.0-0.0","0","0","22553","","null","","","null","87","","","","","","","","","","","","","","","",""
"","ITI","","html-keyboard-response","575","892499","0.0-1.0-792.0","0","0","22553","","null","","","null","87","","","","","","","","","","","","","","","NaN",""
"","S1","","html-keyboard-response","576","892760","0.0-1.0-794.0","0","0","22553","","null","","","null","88","","","","","","","","","","","","","","","",""
"","ISI","","html-keyboard-response","577","894769","0.0-1.0-795.0","0","0","22553","","421","","","68","88","d","","","","","","","","","","","","","","",""
"","S2","","html-keyboard-response","578","895028","0.0-1.0-796.0","0","0","22553","","null","","","null","88","","NaN","","","","","","","","","","","","","",""
"","response","","html-keyboard-response","579","895065","0.0-1.0-797.0","0","0","22553","","33","","","68","88","","","3","88","training","adjacent","EF","5","6","O.jpg","Q.jpg","0","1","0","",""
"","feedback","","html-keyboard-response","580","896081","0.0-1.0-798.0-0.0","0","0","22553","","null","","","null","88","","","","","","","","","","","","","","","",""
"","time_out","","html-keyboard-response","581","898089","0.0-1.0-800.0-0.0","0","0","22553","","null","","","null","88","","","","","","","","","","","","","","","",""
"","ITI","","html-keyboard-response","582","899093","0.0-1.0-801.0","0","0","22553","","null","","","null","88","","","","","","","","","","","","","","","NaN",""
"","S1","","html-keyboard-response","583","899351","0.0-1.0-803.0","0","0","22553","","null","","","null","89","","","","","","","","","","","","","","","",""
"","ISI","","html-keyboard-response","584","901368","0.0-1.0-804.0","0","0","22553","","null","","","null","89","NaN","","","","","","","","","","","","","","",""
