"success","ttype","start_time","trial_type","trial_index","time_elapsed","internal_node_id","warning","missed_checkup","PID","view_history","rt","responses","repeat_instructions","key_press","index","keypress_isi","keypress_S2","block","trial_num","phase","group_type","pair_type","S1_stim","S2_stim","S1_img","S2_img","S1_chosen","S1_higher","accuracy","keypress_iti","total_bonus_tally"
"true","full_screen","d04142023hr1737","fullscreen","0","12604","0.0-0.0","0","0","55668","","","","","","","","","","","","","","","","","","","","","",""
"","instructions","","instructions","1","34430","0.0-1.0-0.0-0.0","0","0","55668","[{""page_index"":0,""viewing_time"":2757},{""page_index"":1,""viewing_time"":13892},{""page_index"":2,""viewing_time"":3880},{""page_index"":3,""viewing_time"":1290}]","21819","","","","","","","","","","","","","","","","","","","",""
"","comprehension_check","","survey-multi-choice","2","47273","0.0-1.0-0.0-1.0","0","0","55668","","12827","{""Q0"":""True"",""Q1"":""D"",""Q2"":""Only when the screen 'MAKE A CHOICE' is shown"",""Q3"":""Green mark"",""Q4"":""either D or K""}","1","","","","","","","","","","","","","","","","","",""
"","missed_instruction_checkup","","html-keyboard-response","3","48480","0.0-1.0-0.0-2.0-0.0","0","1","55668","","1199","","","32","","","","","","","","","","","","","","","","",""
"","instructions","","instructions","4","54300","0.0-1.0-0.1-0.1","0","0","55668","[{""page_index"":0,""viewing_time"":1572},{""page_index"":1,""viewing_time"":2833},{""page_index"":2,""viewing_time"":811},{""page_index"":3,""viewing_time"":599}]","5815","","","","","","","","","","","","","","","","","","","",""
"","comprehension_check","","survey-multi-choice","5","63738","0.0-1.0-0.1-1.1","0","0","55668","","9426","{""Q0"":""True"",""Q1"":""D"",""Q2"":""Once the second image appears and while the screen 'MAKE A CHOICE' is shown"",""Q3"":""Green mark"",""Q4"":""either D or K""}","0","","","","","","","","","","","","","","","","","",""
"","start_exp","","html-keyboard-response","6","64452","0.0-1.0-1.0","0","0","55668","","707","","","32","","","","","","","","","","","","","","","","",""
"","S1","","html-keyboard-response","7","64722","0.0-1.0-2.0","0","0","55668","","null","","","null","0","","","","","","","","","","","","","","","",""
"","ISI","","html-keyboard-response","8","65738","0.0-1.0-3.0","0","0","55668","","null","","","null","0","NaN","","","","","","","","","","","","","","",""
"","S2","","html-keyboard-response","9","66006","0.0-1.0-4.0","0","0","55668","","null","","","null","0","","NaN","","","","","","","","","","","","","",""
"","response","","html-keyboard-response","10","67772","0.0-1.0-5.0-0.0","0","0","55668","","null","","","null","0","","","1","0","training","adjacent","AB","1","2","Q.jpg","M.jpg","NaN","1","0","",""
"","too_slow_prompt","","html-keyboard-response","11","68785","0.0-1.0-7.0-0.0","1","0","55668","","null","","","null","","","","","","","","","","","","","","","","",""
"","time_out","","html-keyboard-response","12","70800","0.0-1.0-8.0-0.0","0","0","55668","","null","","","null","0","","","","","","","","","","","","","","","",""
"","ITI","","html-keyboard-response","13","71808","0.0-1.0-9.0","0","0","55668","","null","","","null","0","","","","","","","","","","","","","","","NaN",""
"","S1","","html-keyboard-response","14","72073","0.0-1.0-11.0","0","0","55668","","null","","","null","1","","","","","","","","","","","","","","","",""
"","ISI","","html-keyboard-response","15","73089","0.0-1.0-12.0","0","0","55668","","null","","","null","1","NaN","","","","","","","","","","","","","","",""
"","S2","","html-keyboard-response","16","73356","0.0-1.0-13.0","0","0","55668","","null","","","null","1","","NaN","","","","","","","","","","","","","",""
"","response","","html-keyboard-response","17","73728","0.0-1.0-14.0-0.0","0","0","55668","","368","","","68","1","","","1","1","training","adjacent","GF","7","6","R.jpg","O.jpg","1","0","0","",""
"","feedback","","html-keyboard-response","18","74747","0.0-1.0-15.0-0.0","0","0","55668","","null","","","null","1","","","","","","","","","","","","","","","",""
"","time_out","","html-keyboard-response","19","76761","0.0-1.0-17.0-0.0","0","0","55668","","null","","","null","1","","","","","","","","","","","","","","","",""
"","ITI","","html-keyboard-response","20","77777","0.0-1.0-18.0","0","0","55668","","null","","","null","1","","","","","","","","","","","","","","","NaN",""
"","S1","","html-keyboard-response","21","78034","0.0-1.0-20.0","0","0","55668","","null","","","null","2","","","","","","","","","","","","","","","",""
"","ISI","","html-keyboard-response","22","79042","0.0-1.0-21.0","0","0","55668","","null","","","null","2","NaN","","","","","","","","","","","","","","",""
"","S2","","html-keyboard-response","23","79308","0.0-1.0-22.0","0","0","55668","","null","","","null","2","","NaN","","","","","","","","","","","","","",""
"","response","","html-keyboard-response","24","79844","0.0-1.0-23.0-0.0","0","0","55668","","532","","","75","2","","","1","2","training","adjacent","BC","2","3","M.jpg","P.jpg","0","1","0","",""
"","feedback","","html-keyboard-response","25","80856","0.0-1.0-24.0-0.0","0","0","55668","","null","","","null","2","","","","","","","","","","","","","","","",""
"","time_out","","html-keyboard-response","26","82872","0.0-1.0-26.0-0.0","0","0","55668","","null","","","null","2","","","","","","","","","","","","","","","",""
"","ITI","","html-keyboard-response","27","83887","0.0-1.0-27.0","0","0","55668","","null","","","null","2","","","","","","","","","","","","","","","NaN",""
"","S1","","html-keyboard-response","28","84154","0.0-1.0-29.0","0","0","55668","","null","","","null","3","","","","","","","","","","","","","","","",""
"","ISI","","html-keyboard-response","29","85161","0.0-1.0-30.0","0","0","55668","","null","","","null","3","NaN","","","","","","","","","","","","","","",""
"","S2","","html-keyboard-response","30","85419","0.0-1.0-31.0","0","0","55668","","null","","","null","3","","NaN","","","","","","","","","","","","","",""
"","response","","html-keyboard-response","31","85780","0.0-1.0-32.0-0.0","0","0","55668","","357","","","68","3","","","1","3","training","adjacent","FE","6","5","O.jpg","L.jpg","1","0","0","",""
"","feedback","","html-keyboard-response","32","86785","0.0-1.0-33.0-0.0","0","0","55668","","null","","","null","3","","","","","","","","","","","","","","","",""
"","time_out","","html-keyboard-response","33","88799","0.0-1.0-35.0-0.0","0","0","55668","","null","","","null","3","","","","","","","","","","","","","","","",""
"","ITI","","html-keyboard-response","34","89815","0.0-1.0-36.0","0","0","55668","","null","","","null","3","","","","","","","","","","","","","","","NaN",""
"","S1","","html-keyboard-response","35","90081","0.0-1.0-38.0","0","0","55668","","null","","","null","4","","","","","","","","","","","","","","","",""
"","ISI","","html-keyboard-response","36","91097","0.0-1.0-39.0","0","0","55668","","null","","","null","4","NaN","","","","","","","","","","","","","","",""
"","S2","","html-keyboard-response","37","91363","0.0-1.0-40.0","0","0","55668","","null","","","null","4","","NaN","","","","","","","","","","","","","",""
"","response","","html-keyboard-response","38","91831","0.0-1.0-41.0-0.0","0","0","55668","","465","","","75","4","","","1","4","training","adjacent","DE","4","5","N.jpg","L.jpg","0","1","0","",""
"","feedback","","html-keyboard-response","39","92845","0.0-1.0-42.0-0.0","0","0","55668","","null","","","null","4","","","","","","","","","","","","","","","",""
"","time_out","","html-keyboard-response","40","94860","0.0-1.0-44.0-0.0","0","0","55668","","null","","","null","4","","","","","","","","","","","","","","","",""
"","ITI","","html-keyboard-response","41","95875","0.0-1.0-45.0","0","0","55668","","null","","","null","4","","","","","","","","","","","","","","","NaN",""
"","S1","","html-keyboard-response","42","96142","0.0-1.0-47.0","0","0","55668","","null","","","null","5","","","","","","","","","","","","","","","",""
"","ISI","","html-keyboard-response","43","97158","0.0-1.0-48.0","0","0","55668","","null","","","null","5","NaN","","","","","","","","","","","","","","",""
"","S2","","html-keyboard-response","44","97424","0.0-1.0-49.0","0","0","55668","","null","","","null","5","","NaN","","","","","","","","","","","","","",""
"","response","","html-keyboard-response","45","97759","0.0-1.0-50.0-0.0","0","0","55668","","331","","","68","5","","","1","5","training","adjacent","FE","6","5","O.jpg","L.jpg","1","0","0","",""
"","feedback","","html-keyboard-response","46","98772","0.0-1.0-51.0-0.0","0","0","55668","","null","","","null","5","","","","","","","","","","","","","","","",""
"","time_out","","html-keyboard-response","47","100788","0.0-1.0-53.0-0.0","0","0","55668","","null","","","null","5","","","","","","","","","","","","","","","",""
"","ITI","","html-keyboard-response","48","101804","0.0-1.0-54.0","0","0","55668","","null","","","null","5","","","","","","","","","","","","","","","NaN",""
"","S1","","html-keyboard-response","49","102070","0.0-1.0-56.0","0","0","55668","","null","","","null","6","","","","","","","","","","","","","","","",""
"","ISI","","html-keyboard-response","50","103086","0.0-1.0-57.0","0","0","55668","","null","","","null","6","NaN","","","","","","","","","","","","","","",""
"","S2","","html-keyboard-response","51","103352","0.0-1.0-58.0","0","0","55668","","null","","","null","6","","NaN","","","","","","","","","","","","","",""
"","response","","html-keyboard-response","52","103988","0.0-1.0-59.0-0.0","0","0","55668","","632","","","75","6","","","1","6","training","adjacent","DE","4","5","N.jpg","L.jpg","0","1","0","",""
"","feedback","","html-keyboard-response","53","105000","0.0-1.0-60.0-0.0","0","0","55668","","null","","","null","6","","","","","","","","","","","","","","","",""
"","time_out","","html-keyboard-response","54","107015","0.0-1.0-62.0-0.0","0","0","55668","","null","","","null","6","","","","","","","","","","","","","","","",""
"","ITI","","html-keyboard-response","55","108031","0.0-1.0-63.0","0","0","55668","","null","","","null","6","","","","","","","","","","","","","","","NaN",""
"","S1","","html-keyboard-response","56","108297","0.0-1.0-65.0","0","0","55668","","null","","","null","7","","","","","","","","","","","","","","","",""
"","ISI","","html-keyboard-response","57","109304","0.0-1.0-66.0","0","0","55668","","null","","","null","7","NaN","","","","","","","","","","","","","","",""
"","S2","","html-keyboard-response","58","109563","0.0-1.0-67.0","0","0","55668","","null","","","null","7","","NaN","","","","","","","","","","","","","",""
"","response","","html-keyboard-response","59","109967","0.0-1.0-68.0-0.0","0","0","55668","","400","","","75","7","","","1","7","training","adjacent","CD","3","4","P.jpg","N.jpg","0","1","0","",""
"","feedback","","html-keyboard-response","60","110978","0.0-1.0-69.0-0.0","0","0","55668","","null","","","null","7","","","","","","","","","","","","","","","",""
"","time_out","","html-keyboard-response","61","112993","0.0-1.0-71.0-0.0","0","0","55668","","null","","","null","7","","","","","","","","","","","","","","","",""
"","ITI","","html-keyboard-response","62","114009","0.0-1.0-72.0","0","0","55668","","null","","","null","7","","","","","","","","","","","","","","","NaN",""
"","S1","","html-keyboard-response","63","114275","0.0-1.0-74.0","0","0","55668","","null","","","null","8","","","","","","","","","","","","","","","",""
"","ISI","","html-keyboard-response","64","115290","0.0-1.0-75.0","0","0","55668","","null","","","null","8","NaN","","","","","","","","","","","","","","",""
"","S2","","html-keyboard-response","65","115557","0.0-1.0-76.0","0","0","55668","","null","","","null","8","","NaN","","","","","","","","","","","","","",""
"","response","","html-keyboard-response","66","115957","0.0-1.0-77.0-0.0","0","0","55668","","396","","","75","8","","","1","8","training","adjacent","FG","6","7","O.jpg","R.jpg","0","1","0","",""
"","feedback","","html-keyboard-response","67","116973","0.0-1.0-78.0-0.0","0","0","55668","","null","","","null","8","","","","","","","","","","","","","","","",""
"","time_out","","html-keyboard-response","68","118987","0.0-1.0-80.0-0.0","0","0","55668","","null","","","null","8","","","","","","","","","","","","","","","",""
"","ITI","","html-keyboard-response","69","120003","0.0-1.0-81.0","0","0","55668","","null","","","null","8","","","","","","","","","","","","","","","NaN",""
"","S1","","html-keyboard-response","70","120269","0.0-1.0-83.0","0","0","55668","","null","","","null","9","","","","","","","","","","","","","","","",""
"","ISI","","html-keyboard-response","71","121285","0.0-1.0-84.0","0","0","55668","","null","","","null","9","NaN","","","","","","","","","","","","","","",""
"","S2","","html-keyboard-response","72","121551","0.0-1.0-85.0","0","0","55668","","null","","","null","9","","NaN","","","","","","","","","","","","","",""
"","response","","html-keyboard-response","73","121832","0.0-1.0-86.0-0.0","0","0","55668","","277","","","68","9","","","1","9","training","adjacent","AB","1","2","Q.jpg","M.jpg","1","1","1","",""
"","feedback","","html-keyboard-response","74","122850","0.0-1.0-87.0-0.0","0","0","55668","","null","","","null","9","","","","","","","","","","","","","","","",""
"","ITI","","html-keyboard-response","75","123866","0.0-1.0-90.0","0","0","55668","","null","","","null","9","","","","","","","","","","","","","","","NaN",""
"","S1","","html-keyboard-response","76","124133","0.0-1.0-92.0","0","0","55668","","null","","","null","10","","","","","","","","","","","","","","","",""
"","ISI","","html-keyboard-response","77","125148","0.0-1.0-93.0","0","0","55668","","null","","","null","10","NaN","","","","","","","","","","","","","","",""
"","S2","","html-keyboard-response","78","125415","0.0-1.0-94.0","0","0","55668","","null","","","null","10","","NaN","","","","","","","","","","","","","",""
"","response","","html-keyboard-response","79","125760","0.0-1.0-95.0-0.0","0","0","55668","","342","","","68","10","","","1","10","training","adjacent","BA","2","1","M.jpg","Q.jpg","1","0","0","",""
"","feedback","","html-keyboard-response","80","126780","0.0-1.0-96.0-0.0","0","0","55668","","null","","","null","10","","","","","","","","","","","","","","","",""
"","time_out","","html-keyboard-response","81","128794","0.0-1.0-98.0-0.0","0","0","55668","","null","","","null","10","","","","","","","","","","","","","","","",""
"","ITI","","html-keyboard-response","82","129810","0.0-1.0-99.0","0","0","55668","","null","","","null","10","","","","","","","","","","","","","","","NaN",""
"","S1","","html-keyboard-response","83","130076","0.0-1.0-101.0","0","0","55668","","null","","","null","11","","","","","","","","","","","","","","","",""
"","ISI","","html-keyboard-response","84","131092","0.0-1.0-102.0","0","0","55668","","null","","","null","11","NaN","","","","","","","","","","","","","","",""
"","S2","","html-keyboard-response","85","131359","0.0-1.0-103.0","0","0","55668","","null","","","null","11","","NaN","","","","","","","","","","","","","",""
"","response","","html-keyboard-response","86","131512","0.0-1.0-104.0-0.0","0","0","55668","","148","","","68","11","","","1","11","training","adjacent","FG","6","7","O.jpg","R.jpg","1","1","1","",""
"","feedback","","html-keyboard-response","87","132524","0.0-1.0-105.0-0.0","0","0","55668","","null","","","null","11","","","","","","","","","","","","","","","",""
"","ITI","","html-keyboard-response","88","133541","0.0-1.0-108.0","0","0","55668","","null","","","null","11","","","","","","","","","","","","","","","NaN",""
"","S1","","html-keyboard-response","89","133807","0.0-1.0-110.0","0","0","55668","","null","","","null","12","","","","","","","","","","","","","","","",""
"","ISI","","html-keyboard-response","90","134823","0.0-1.0-111.0","0","0","55668","","null","","","null","12","NaN","","","","","","","","","","","","","","",""
"","S2","","html-keyboard-response","91","135089","0.0-1.0-112.0","0","0","55668","","null","","","null","12","","NaN","","","","","","","","","","","","","",""
"","response","","html-keyboard-response","92","135367","0.0-1.0-113.0-0.0","0","0","55668","","276","","","68","12","","","1","12","training","adjacent","CD","3","4","P.jpg","N.jpg","1","1","1","",""
"","feedback","","html-keyboard-response","93","136387","0.0-1.0-114.0-0.0","0","0","55668","","null","","","null","12","","","","","","","","","","","","","","","",""
"","ITI","","html-keyboard-response","94","137403","0.0-1.0-117.0","0","0","55668","","null","","","null","12","","","","","","","","","","","","","","","NaN",""
"","S1","","html-keyboard-response","95","137670","0.0-1.0-119.0","0","0","55668","","null","","","null","13","","","","","","","","","","","","","","","",""
"","ISI","","html-keyboard-response","96","138685","0.0-1.0-120.0","0","0","55668","","null","","","null","13","NaN","","","","","","","","","","","","","","",""
"","S2","","html-keyboard-response","97","138951","0.0-1.0-121.0","0","0","55668","","null","","","null","13","","NaN","","","","","","","","","","","","","",""
"","response","","html-keyboard-response","98","139220","0.0-1.0-122.0-0.0","0","0","55668","","265","","","68","13","","","1","13","training","adjacent","FG","6","7","O.jpg","R.jpg","1","1","1","",""
"","feedback","","html-keyboard-response","99","140234","0.0-1.0-123.0-0.0","0","0","55668","","null","","","null","13","","","","","","","","","","","","","","","",""
"","ITI","","html-keyboard-response","100","141250","0.0-1.0-126.0","0","0","55668","","null","","","null","13","","","","","","","","","","","","","","","NaN",""
"","S1","","html-keyboard-response","101","141516","0.0-1.0-128.0","0","0","55668","","null","","","null","14","","","","","","","","","","","","","","","",""
"","ISI","","html-keyboard-response","102","142532","0.0-1.0-129.0","0","0","55668","","null","","","null","14","NaN","","","","","","","","","","","","","","",""
"","S2","","html-keyboard-response","103","142798","0.0-1.0-130.0","0","0","55668","","null","","","null","14","","NaN","","","","","","","","","","","","","",""
"","response","","html-keyboard-response","104","143059","0.0-1.0-131.0-0.0","0","0","55668","","259","","","75","14","","","1","14","training","adjacent","DC","4","3","N.jpg","P.jpg","0","0","1","",""
"","feedback","","html-keyboard-response","105","144063","0.0-1.0-132.0-0.0","0","0","55668","","null","","","null","14","","","","","","","","","","","","","","","",""
"","ITI","","html-keyboard-response","106","145080","0.0-1.0-135.0","0","0","55668","","null","","","null","14","","","","","","","","","","","","","","","NaN",""
"","S1","","html-keyboard-response","107","145346","0.0-1.0-137.0","0","0","55668","","null","","","null","15","","","","","","","","","","","","","","","",""
"","ISI","","html-keyboard-response","108","146361","0.0-1.0-138.0","0","0","55668","","null","","","null","15","NaN","","","","","","","","","","","","","","",""
"","S2","","html-keyboard-response","109","146628","0.0-1.0-139.0","0","0","55668","","null","","","null","15","","NaN","","","","","","","","","","","","","",""
"","response","","html-keyboard-response","110","147668","0.0-1.0-140.0-0.0","0","0","55668","","1036","","","68","15","","","1","15","training","adjacent","EF","5","6","L.jpg","O.jpg","1","1","1","",""
"","feedback","","html-keyboard-response","111","148676","0.0-1.0-141.0-0.0","0","0","55668","","null","","","null","15","","","","","","","","","","","","","","","",""
"","ITI","","html-keyboard-response","112","149692","0.0-1.0-144.0","0","0","55668","","null","","","null","15","","","","","","","","","","","","","","","NaN",""
"","S1","","html-keyboard-response","113","149957","0.0-1.0-146.0","0","0","55668","","null","","","null","16","","","","","","","","","","","","","","","",""
"","ISI","","html-keyboard-response","114","150974","0.0-1.0-147.0","0","0","55668","","null","","","null","16","NaN","","","","","","","","","","","","","","",""
"","S2","","html-keyboard-response","115","151239","0.0-1.0-148.0","0","0","55668","","null","","","null","16","","NaN","","","","","","","","","","","","","",""
"","response","","html-keyboard-response","116","151556","0.0-1.0-149.0-0.0","0","0","55668","","311","","","75","16","","","1","16","training","adjacent","DC","4","3","N.jpg","P.jpg","0","0","1","",""
"","feedback","","html-keyboard-response","117","152572","0.0-1.0-150.0-0.0","0","0","55668","","null","","","null","16","","","","","","","","","","","","","","","",""
"","ITI","","html-keyboard-response","118","153588","0.0-1.0-153.0","0","0","55668","","null","","","null","16","","","","","","","","","","","","","","","NaN",""
"","S1","","html-keyboard-response","119","153854","0.0-1.0-155.0","0","0","55668","","null","","","null","17","","","","","","","","","","","","","","","",""
"","ISI","","html-keyboard-response","120","154869","0.0-1.0-156.0","0","0","55668","","null","","","null","17","NaN","","","","","","","","","","","","","","",""
"","S2","","html-keyboard-response","121","155136","0.0-1.0-157.0","0","0","55668","","null","","","null","17","","NaN","","","","","","","","","","","","","",""
"","response","","html-keyboard-response","122","155452","0.0-1.0-158.0-0.0","0","0","55668","","311","","","68","17","","","1","17","training","adjacent","CB","3","2","P.jpg","M.jpg","1","0","0","",""
"","feedback","","html-keyboard-response","123","156468","0.0-1.0-159.0-0.0","0","0","55668","","null","","","null","17","","","","","","","","","","","","","","","",""
"","time_out","","html-keyboard-response","124","158483","0.0-1.0-161.0-0.0","0","0","55668","","null","","","null","17","","","","","","","","","","","","","","","",""
"","ITI","","html-keyboard-response","125","159498","0.0-1.0-162.0","0","0","55668","","null","","","null","17","","","","","","","","","","","","","","","NaN",""
"","S1","","html-keyboard-response","126","159766","0.0-1.0-164.0","0","0","55668","","null","","","null","18","","","","","","","","","","","","","","","",""
"","ISI","","html-keyboard-response","127","160781","0.0-1.0-165.0","0","0","55668","","null","","","null","18","NaN","","","","","","","","","","","","","","",""
"","S2","","html-keyboard-response","128","161047","0.0-1.0-166.0","0","0","55668","","null","","","null","18","","NaN","","","","","","","","","","","","","",""
"","response","","html-keyboard-response","129","161608","0.0-1.0-167.0-0.0","0","0","55668","","556","","","75","18","","","1","18","training","adjacent","BA","2","1","M.jpg","Q.jpg","0","0","1","",""
"","feedback","","html-keyboard-response","130","162613","0.0-1.0-168.0-0.0","0","0","55668","","null","","","null","18","","","","","","","","","","","","","","","",""
"","ITI","","html-keyboard-response","131","163628","0.0-1.0-171.0","0","0","55668","","null","","","null","18","","","","","","","","","","","","","","","NaN",""
"","S1","","html-keyboard-response","132","163895","0.0-1.0-173.0","0","0","55668","","null","","","null","19","","","","","","","","","","","","","","","",""
"","ISI","","html-keyboard-response","133","164910","0.0-1.0-174.0","0","0","55668","","null","","","null","19","NaN","","","","","","","","","","","","","","",""
"","S2","","html-keyboard-response","134","165177","0.0-1.0-175.0","0","0","55668","","null","","","null","19","","NaN","","","","","","","","","","","","","",""
"","response","","html-keyboard-response","135","165636","0.0-1.0-176.0-0.0","0","0","55668","","455","","","75","19","","","1","19","training","adjacent","BC","2","3","M.jpg","P.jpg","0","1","0","",""
"","feedback","","html-keyboard-response","136","166642","0.0-1.0-177.0-0.0","0","0","55668","","null","","","null","19","","","","","","","","","","","","","","","",""
"","time_out","","html-keyboard-response","137","168657","0.0-1.0-179.0-0.0","0","0","55668","","null","","","null","19","","","","","","","","","","","","","","","",""
"","ITI","","html-keyboard-response","138","169672","0.0-1.0-180.0","0","0","55668","","null","","","null","19","","","","","","","","","","","","","","","NaN",""
"","S1","","html-keyboard-response","139","169939","0.0-1.0-182.0","0","0","55668","","null","","","null","20","","","","","","","","","","","","","","","",""
"","ISI","","html-keyboard-response","140","170954","0.0-1.0-183.0","0","0","55668","","null","","","null","20","NaN","","","","","","","","","","","","","","",""
"","S2","","html-keyboard-response","141","171221","0.0-1.0-184.0","0","0","55668","","null","","","null","20","","NaN","","","","","","","","","","","","","",""
"","response","","html-keyboard-response","142","172063","0.0-1.0-185.0-0.0","0","0","55668","","839","","","68","20","","","1","20","training","adjacent","EF","5","6","L.jpg","O.jpg","1","1","1","",""
"","feedback","","html-keyboard-response","143","173069","0.0-1.0-186.0-0.0","0","0","55668","","null","","","null","20","","","","","","","","","","","","","","","",""
"","ITI","","html-keyboard-response","144","174085","0.0-1.0-189.0","0","0","55668","","null","","","null","20","","","","","","","","","","","","","","","NaN",""
"","S1","","html-keyboard-response","145","174351","0.0-1.0-191.0","0","0","55668","","null","","","null","21","","","","","","","","","","","","","","","",""
"","ISI","","html-keyboard-response","146","175359","0.0-1.0-192.0","0","0","55668","","null","","","null","21","NaN","","","","","","","","","","","","","","",""
"","S2","","html-keyboard-response","147","175626","0.0-1.0-193.0","0","0","55668","","null","","","null","21","","NaN","","","","","","","","","","","","","",""
"","response","","html-keyboard-response","148","176004","0.0-1.0-194.0-0.0","0","0","55668","","373","","","75","21","","","1","21","training","adjacent","DE","4","5","N.jpg","L.jpg","0","1","0","",""
"","feedback","","html-keyboard-response","149","177016","0.0-1.0-195.0-0.0","0","0","55668","","null","","","null","21","","","","","","","","","","","","","","","",""
"","time_out","","html-keyboard-response","150","179029","0.0-1.0-197.0-0.0","0","0","55668","","null","","","null","21","","","","","","","","","","","","","","","",""
"","ITI","","html-keyboard-response","151","180046","0.0-1.0-198.0","0","0","55668","","null","","","null","21","","","","","","","","","","","","","","","NaN",""
"","S1","","html-keyboard-response","152","180313","0.0-1.0-200.0","0","0","55668","","null","","","null","22","","","","","","","","","","","","","","","",""
"","ISI","","html-keyboard-response","153","181328","0.0-1.0-201.0","0","0","55668","","null","","","null","22","NaN","","","","","","","","","","","","","","",""
"","S2","","html-keyboard-response","154","181594","0.0-1.0-202.0","0","0","55668","","null","","","null","22","","NaN","","","","","","","","","","","","","",""
"","response","","html-keyboard-response","155","181828","0.0-1.0-203.0-0.0","0","0","55668","","230","","","75","22","","","1","22","training","adjacent","BC","2","3","M.jpg","P.jpg","0","1","0","",""
"","feedback","","html-keyboard-response","156","182843","0.0-1.0-204.0-0.0","0","0","55668","","null","","","null","22","","","","","","","","","","","","","","","",""
"","time_out","","html-keyboard-response","157","184860","0.0-1.0-206.0-0.0","0","0","55668","","null","","","null","22","","","","","","","","","","","","","","","",""
"","ITI","","html-keyboard-response","158","185874","0.0-1.0-207.0","0","0","55668","","null","","","null","22","","","","","","","","","","","","","","","NaN",""
"","S1","","html-keyboard-response","159","186140","0.0-1.0-209.0","0","0","55668","","null","","","null","23","","","","","","","","","","","","","","","",""
"","ISI","","html-keyboard-response","160","187156","0.0-1.0-210.0","0","0","55668","","null","","","null","23","NaN","","","","","","","","","","","","","","",""
"","S2","","html-keyboard-response","161","187422","0.0-1.0-211.0","0","0","55668","","null","","","null","23","","NaN","","","","","","","","","","","","","",""
"","response","","html-keyboard-response","162","189116","0.0-1.0-212.0-0.0","0","0","55668","","1690","","","68","23","","","1","23","training","adjacent","BC","2","3","M.jpg","P.jpg","1","1","1","",""
"","feedback","","html-keyboard-response","163","190135","0.0-1.0-213.0-0.0","0","0","55668","","null","","","null","23","","","","","","","","","","","","","","","",""
"","ITI","","html-keyboard-response","164","191151","0.0-1.0-216.0","0","0","55668","","null","","","null","23","","","","","","","","","","","","","","","NaN",""
"","S1","","html-keyboard-response","165","191418","0.0-1.0-218.0","0","0","55668","","null","","","null","24","","","","","","","","","","","","","","","",""
"","ISI","","html-keyboard-response","166","192435","0.0-1.0-219.0","0","0","55668","","null","","","null","24","NaN","","","","","","","","","","","","","","",""
"","S2","","html-keyboard-response","167","192701","0.0-1.0-220.0","0","0","55668","","null","","","null","24","","NaN","","","","","","","","","","","","","",""
"","response","","html-keyboard-response","168","193068","0.0-1.0-221.0-0.0","0","0","55668","","363","","","75","24","","","1","24","training","adjacent","GF","7","6","R.jpg","O.jpg","0","0","1","",""
"","feedback","","html-keyboard-response","169","194082","0.0-1.0-222.0-0.0","0","0","55668","","null","","","null","24","","","","","","","","","","","","","","","",""
"","ITI","","html-keyboard-response","170","195099","0.0-1.0-225.0","0","0","55668","","null","","","null","24","","","","","","","","","","","","","","","NaN",""
"","S1","","html-keyboard-response","171","195365","0.0-1.0-227.0","0","0","55668","","null","","","null","25","","","","","","","","","","","","","","","",""
"","ISI","","html-keyboard-response","172","196381","0.0-1.0-228.0","0","0","55668","","null","","","null","25","NaN","","","","","","","","","","","","","","",""
"","S2","","html-keyboard-response","173","196647","0.0-1.0-229.0","0","0","55668","","null","","","null","25","","NaN","","","","","","","","","","","","","",""
"","response","","html-keyboard-response","174","196999","0.0-1.0-230.0-0.0","0","0","55668","","350","","","68","25","","","1","25","training","adjacent","CB","3","2","P.jpg","M.jpg","1","0","0","",""
"","feedback","","html-keyboard-response","175","198013","0.0-1.0-231.0-0.0","0","0","55668","","null","","","null","25","","","","","","","","","","","","","","","",""
"","time_out","","html-keyboard-response","176","200027","0.0-1.0-233.0-0.0","0","0","55668","","null","","","null","25","","","","","","","","","","","","","","","",""
"","ITI","","html-keyboard-response","177","201043","0.0-1.0-234.0","0","0","55668","","null","","","null","25","","","","","","","","","","","","","","","NaN",""
"","S1","","html-keyboard-response","178","201309","0.0-1.0-236.0","0","0","55668","","null","","","null","26","","","","","","","","","","","","","","","",""
"","ISI","","html-keyboard-response","179","202325","0.0-1.0-237.0","0","0","55668","","null","","","null","26","NaN","","","","","","","","","","","","","","",""
"","S2","","html-keyboard-response","180","202592","0.0-1.0-238.0","0","0","55668","","null","","","null","26","","NaN","","","","","","","","","","","","","",""
"","response","","html-keyboard-response","181","202996","0.0-1.0-239.0-0.0","0","0","55668","","401","","","68","26","","","1","26","training","adjacent","CB","3","2","P.jpg","M.jpg","1","0","0","",""
"","feedback","","html-keyboard-response","182","204007","0.0-1.0-240.0-0.0","0","0","55668","","null","","","null","26","","","","","","","","","","","","","","","",""
"","time_out","","html-keyboard-response","183","206021","0.0-1.0-242.0-0.0","0","0","55668","","null","","","null","26","","","","","","","","","","","","","","","",""
"","ITI","","html-keyboard-response","184","207038","0.0-1.0-243.0","0","0","55668","","null","","","null","26","","","","","","","","","","","","","","","NaN",""
"","S1","","html-keyboard-response","185","207304","0.0-1.0-245.0","0","0","55668","","null","","","null","27","","","","","","","","","","","","","","","",""
"","ISI","","html-keyboard-response","186","208319","0.0-1.0-246.0","0","0","55668","","null","","","null","27","NaN","","","","","","","","","","","","","","",""
"","S2","","html-keyboard-response","187","208585","0.0-1.0-247.0","0","0","55668","","null","","","null","27","","NaN","","","","","","","","","","","","","",""
"","response","","html-keyboard-response","188","209040","0.0-1.0-248.0-0.0","0","0","55668","","450","","","75","27","","","1","27","training","adjacent","DE","4","5","N.jpg","L.jpg","0","1","0","",""
"","feedback","","html-keyboard-response","189","210051","0.0-1.0-249.0-0.0","0","0","55668","","null","","","null","27","","","","","","","","","","","","","","","",""
"","time_out","","html-keyboard-response","190","212065","0.0-1.0-251.0-0.0","0","0","55668","","null","","","null","27","","","","","","","","","","","","","","","",""
"","ITI","","html-keyboard-response","191","213082","0.0-1.0-252.0","0","0","55668","","null","","","null","27","","","","","","","","","","","","","","","NaN",""
"","S1","","html-keyboard-response","192","213347","0.0-1.0-254.0","0","0","55668","","null","","","null","28","","","","","","","","","","","","","","","",""
"","ISI","","html-keyboard-response","193","214363","0.0-1.0-255.0","0","0","55668","","null","","","null","28","NaN","","","","","","","","","","","","","","",""
"","S2","","html-keyboard-response","194","214630","0.0-1.0-256.0","0","0","55668","","null","","","null","28","","NaN","","","","","","","","","","","","","",""
"","response","","html-keyboard-response","195","215664","0.0-1.0-257.0-0.0","0","0","55668","","1030","","","75","28","","","1","28","training","adjacent","DC","4","3","N.jpg","P.jpg","0","0","1","",""
"","feedback","","html-keyboard-response","196","216678","0.0-1.0-258.0-0.0","0","0","55668","","null","","","null","28","","","","","","","","","","","","","","","",""
"","ITI","","html-keyboard-response","197","217694","0.0-1.0-261.0","0","0","55668","","null","","","null","28","","","","","","","","","","","","","","","NaN",""
"","S1","","html-keyboard-response","198","217960","0.0-1.0-263.0","0","0","55668","","null","","","null","29","","","","","","","","","","","","","","","",""
"","ISI","","html-keyboard-response","199","218975","0.0-1.0-264.0","0","0","55668","","null","","","null","29","NaN","","","","","","","","","","","","","","",""
"","S2","","html-keyboard-response","200","219243","0.0-1.0-265.0","0","0","55668","","null","","","null","29","","NaN","","","","","","","","","","","","","",""
"","response","","html-keyboard-response","201","219508","0.0-1.0-266.0-0.0","0","0","55668","","262","","","68","29","","","1","29","training","adjacent","ED","5","4","L.jpg","N.jpg","1","0","0","",""
"","feedback","","html-keyboard-response","202","220524","0.0-1.0-267.0-0.0","0","0","55668","","null","","","null","29","","","","","","","","","","","","","","","",""
"","time_out","","html-keyboard-response","203","222539","0.0-1.0-269.0-0.0","0","0","55668","","null","","","null","29","","","","","","","","","","","","","","","",""
"","ITI","","html-keyboard-response","204","223555","0.0-1.0-270.0","0","0","55668","","null","","","null","29","","","","","","","","","","","","","","","NaN",""
"","S1","","html-keyboard-response","205","223821","0.0-1.0-272.0","0","0","55668","","null","","","null","30","","","","","","","","","","","","","","","",""
"","ISI","","html-keyboard-response","206","224837","0.0-1.0-273.0","0","0","55668","","null","","","null","30","NaN","","","","","","","","","","","","","","",""
"","S2","","html-keyboard-response","207","225103","0.0-1.0-274.0","0","0","55668","","null","","","null","30","","NaN","","","","","","","","","","","","","",""
"","response","","html-keyboard-response","208","225288","0.0-1.0-275.0-0.0","0","0","55668","","182","","","68","30","","","1","30","training","adjacent","CB","3","2","P.jpg","M.jpg","1","0","0","",""
"","feedback","","html-keyboard-response","209","226302","0.0-1.0-276.0-0.0","0","0","55668","","null","","","null","30","","","","","","","","","","","","","","","",""
"","time_out","","html-keyboard-response","210","228317","0.0-1.0-278.0-0.0","0","0","55668","","null","","","null","30","","","","","","","","","","","","","","","",""
"","ITI","","html-keyboard-response","211","229333","0.0-1.0-279.0","0","0","55668","","null","","","null","30","","","","","","","","","","","","","","","NaN",""
"","S1","","html-keyboard-response","212","229599","0.0-1.0-281.0","0","0","55668","","null","","","null","31","","","","","","","","","","","","","","","",""
"","ISI","","html-keyboard-response","213","230615","0.0-1.0-282.0","0","0","55668","","null","","","null","31","NaN","","","","","","","","","","","","","","",""
"","S2","","html-keyboard-response","214","230881","0.0-1.0-283.0","0","0","55668","","null","","","null","31","","NaN","","","","","","","","","","","","","",""
"","response","","html-keyboard-response","215","231297","0.0-1.0-284.0-0.0","0","0","55668","","411","","","75","31","","","1","31","training","adjacent","FE","6","5","O.jpg","L.jpg","0","0","1","",""
"","feedback","","html-keyboard-response","216","232313","0.0-1.0-285.0-0.0","0","0","55668","","null","","","null","31","","","","","","","","","","","","","","","",""
"","ITI","","html-keyboard-response","217","233332","0.0-1.0-288.0","0","0","55668","","null","","","null","31","","","","","","","","","","","","","","","NaN",""
"","S1","","html-keyboard-response","218","233596","0.0-1.0-290.0","0","0","55668","","null","","","null","32","","","","","","","","","","","","","","","",""
"","ISI","","html-keyboard-response","219","234611","0.0-1.0-291.0","0","0","55668","","null","","","null","32","NaN","","","","","","","","","","","","","","",""
"","S2","","html-keyboard-response","220","234877","0.0-1.0-292.0","0","0","55668","","null","","","null","32","","NaN","","","","","","","","","","","","","",""
"","response","","html-keyboard-response","221","235027","0.0-1.0-293.0-0.0","0","0","55668","","145","","","68","32","","","1","32","training","adjacent","AB","1","2","Q.jpg","M.jpg","1","1","1","",""
"","feedback","","html-keyboard-response","222","236044","0.0-1.0-294.0-0.0","0","0","55668","","null","","","null","32","","","","","","","","","","","","","","","",""
"","ITI","","html-keyboard-response","223","237059","0.0-1.0-297.0","0","0","55668","","null","","","null","32","","","","","","","","","","","","","","","NaN",""
"","S1","","html-keyboard-response","224","237317","0.0-1.0-299.0","0","0","55668","","null","","","null","33","","","","","","","","","","","","","","","",""
"","ISI","","html-keyboard-response","225","238325","0.0-1.0-300.0","0","0","55668","","null","","","null","33","NaN","","","","","","","","","","","","","","",""
"","S2","","html-keyboard-response","226","238582","0.0-1.0-301.0","0","0","55668","","null","","","null","33","","NaN","","","","","","","","","","","","","",""
"","response","","html-keyboard-response","227","238925","0.0-1.0-302.0-0.0","0","0","55668","","338","","","75","33","","","1","33","training","adjacent","GF","7","6","R.jpg","O.jpg","0","0","1","",""
"","feedback","","html-keyboard-response","228","239939","0.0-1.0-303.0-0.0","0","0","55668","","null","","","null","33","","","","","","","","","","","","","","","",""
"","ITI","","html-keyboard-response","229","240955","0.0-1.0-306.0","0","0","55668","","null","","","null","33","","","","","","","","","","","","","","","NaN",""
"","S1","","html-keyboard-response","230","241222","0.0-1.0-308.0","0","0","55668","","null","","","null","34","","","","","","","","","","","","","","","",""
"","ISI","","html-keyboard-response","231","242237","0.0-1.0-309.0","0","0","55668","","null","","","null","34","NaN","","","","","","","","","","","","","","",""
"","S2","","html-keyboard-response","232","242504","0.0-1.0-310.0","0","0","55668","","null","","","null","34","","NaN","","","","","","","","","","","","","",""
"","response","","html-keyboard-response","233","243056","0.0-1.0-311.0-0.0","0","0","55668","","547","","","75","34","","","1","34","training","adjacent","BA","2","1","M.jpg","Q.jpg","0","0","1","",""
"","feedback","","html-keyboard-response","234","244069","0.0-1.0-312.0-0.0","0","0","55668","","null","","","null","34","","","","","","","","","","","","","","","",""
"","ITI","","html-keyboard-response","235","245084","0.0-1.0-315.0","0","0","55668","","null","","","null","34","","","","","","","","","","","","","","","NaN",""
"","S1","","html-keyboard-response","236","245350","0.0-1.0-317.0","0","0","55668","","null","","","null","35","","","","","","","","","","","","","","","",""
"","ISI","","html-keyboard-response","237","246366","0.0-1.0-318.0","0","0","55668","","null","","","null","35","NaN","","","","","","","","","","","","","","",""
"","S2","","html-keyboard-response","238","246633","0.0-1.0-319.0","0","0","55668","","null","","","null","35","","NaN","","","","","","","","","","","","","",""
"","response","","html-keyboard-response","239","246908","0.0-1.0-320.0-0.0","0","0","55668","","271","","","68","35","","","1","35","training","adjacent","FG","6","7","O.jpg","R.jpg","1","1","1","",""
"","feedback","","html-keyboard-response","240","247915","0.0-1.0-321.0-0.0","0","0","55668","","null","","","null","35","","","","","","","","","","","","","","","",""
"","ITI","","html-keyboard-response","241","248930","0.0-1.0-324.0","0","0","55668","","null","","","null","35","","","","","","","","","","","","","","","NaN",""
"","S1","","html-keyboard-response","242","249197","0.0-1.0-326.0","0","0","55668","","null","","","null","36","","","","","","","","","","","","","","","",""
"","ISI","","html-keyboard-response","243","250213","0.0-1.0-327.0","0","0","55668","","null","","","null","36","NaN","","","","","","","","","","","","","","",""
"","S2","","html-keyboard-response","244","250479","0.0-1.0-328.0","0","0","55668","","null","","","null","36","","NaN","","","","","","","","","","","","","",""
"","response","","html-keyboard-response","245","250739","0.0-1.0-329.0-0.0","0","0","55668","","256","","","68","36","","","1","36","training","adjacent","FE","6","5","O.jpg","L.jpg","1","0","0","",""
"","feedback","","html-keyboard-response","246","251744","0.0-1.0-330.0-0.0","0","0","55668","","null","","","null","36","","","","","","","","","","","","","","","",""
"","time_out","","html-keyboard-response","247","253759","0.0-1.0-332.0-0.0","0","0","55668","","null","","","null","36","","","","","","","","","","","","","","","",""
"","ITI","","html-keyboard-response","248","254775","0.0-1.0-333.0","0","0","55668","","null","","","null","36","","","","","","","","","","","","","","","NaN",""
"","S1","","html-keyboard-response","249","255041","0.0-1.0-335.0","0","0","55668","","null","","","null","37","","","","","","","","","","","","","","","",""
"","ISI","","html-keyboard-response","250","256057","0.0-1.0-336.0","0","0","55668","","null","","","null","37","NaN","","","","","","","","","","","","","","",""
"","S2","","html-keyboard-response","251","256324","0.0-1.0-337.0","0","0","55668","","null","","","null","37","","NaN","","","","","","","","","","","","","",""
"","response","","html-keyboard-response","252","256596","0.0-1.0-338.0-0.0","0","0","55668","","268","","","68","37","","","1","37","training","adjacent","CD","3","4","P.jpg","N.jpg","1","1","1","",""
"","feedback","","html-keyboard-response","253","257606","0.0-1.0-339.0-0.0","0","0","55668","","null","","","null","37","","","","","","","","","","","","","","","",""
"","ITI","","html-keyboard-response","254","258622","0.0-1.0-342.0","0","0","55668","","null","","","null","37","","","","","","","","","","","","","","","NaN",""
"","S1","","html-keyboard-response","255","258888","0.0-1.0-344.0","0","0","55668","","null","","","null","38","","","","","","","","","","","","","","","",""
"","ISI","","html-keyboard-response","256","259904","0.0-1.0-345.0","0","0","55668","","null","","","null","38","NaN","","","","","","","","","","","","","","",""
"","S2","","html-keyboard-response","257","260170","0.0-1.0-346.0","0","0","55668","","null","","","null","38","","NaN","","","","","","","","","","","","","",""
"","response","","html-keyboard-response","258","260567","0.0-1.0-347.0-0.0","0","0","55668","","393","","","75","38","","","1","38","training","adjacent","DC","4","3","N.jpg","P.jpg","0","0","1","",""
"","feedback","","html-keyboard-response","259","261586","0.0-1.0-348.0-0.0","0","0","55668","","null","","","null","38","","","","","","","","","","","","","","","",""
"","ITI","","html-keyboard-response","260","262601","0.0-1.0-351.0","0","0","55668","","null","","","null","38","","","","","","","","","","","","","","","NaN",""
"","S1","","html-keyboard-response","261","262867","0.0-1.0-353.0","0","0","55668","","null","","","null","39","","","","","","","","","","","","","","","",""
"","ISI","","html-keyboard-response","262","263883","0.0-1.0-354.0","0","0","55668","","null","","","null","39","NaN","","","","","","","","","","","","","","",""
"","S2","","html-keyboard-response","263","264150","0.0-1.0-355.0","0","0","55668","","null","","","null","39","","NaN","","","","","","","","","","","","","",""
"","response","","html-keyboard-response","264","265111","0.0-1.0-356.0-0.0","0","0","55668","","958","","","68","39","","","1","39","training","adjacent","EF","5","6","L.jpg","O.jpg","1","1","1","",""
"","feedback","","html-keyboard-response","265","266132","0.0-1.0-357.0-0.0","0","0","55668","","null","","","null","39","","","","","","","","","","","","","","","",""
"","ITI","","html-keyboard-response","266","267146","0.0-1.0-360.0","0","0","55668","","null","","","null","39","","","","","","","","","","","","","","","NaN",""
"","S1","","html-keyboard-response","267","267413","0.0-1.0-362.0","0","0","55668","","null","","","null","40","","","","","","","","","","","","","","","",""
"","ISI","","html-keyboard-response","268","268429","0.0-1.0-363.0","0","0","55668","","null","","","null","40","NaN","","","","","","","","","","","","","","",""
"","S2","","html-keyboard-response","269","268696","0.0-1.0-364.0","0","0","55668","","null","","","null","40","","NaN","","","","","","","","","","","","","",""
"","response","","html-keyboard-response","270","269128","0.0-1.0-365.0-0.0","0","0","55668","","429","","","68","40","","","1","40","training","adjacent","CD","3","4","P.jpg","N.jpg","1","1","1","",""
"","feedback","","html-keyboard-response","271","270144","0.0-1.0-366.0-0.0","0","0","55668","","null","","","null","40","","","","","","","","","","","","","","","",""
"","ITI","","html-keyboard-response","272","271160","0.0-1.0-369.0","0","0","55668","","null","","","null","40","","","","","","","","","","","","","","","NaN",""
"","S1","","html-keyboard-response","273","271426","0.0-1.0-371.0","0","0","55668","","null","","","null","41","","","","","","","","","","","","","","","",""
"","ISI","","html-keyboard-response","274","272442","0.0-1.0-372.0","0","0","55668","","null","","","null","41","NaN","","","","","","","","","","","","","","",""
"","S2","","html-keyboard-response","275","272709","0.0-1.0-373.0","0","0","55668","","null","","","null","41","","NaN","","","","","","","","","","","","","",""
"","response","","html-keyboard-response","276","273035","0.0-1.0-374.0-0.0","0","0","55668","","323","","","68","41","","","1","41","training","adjacent","EF","5","6","L.jpg","O.jpg","1","1","1","",""
"","feedback","","html-keyboard-response","277","274041","0.0-1.0-375.0-0.0","0","0","55668","","null","","","null","41","","","","","","","","","","","","","","","",""
"","ITI","","html-keyboard-response","278","275056","0.0-1.0-378.0","0","0","55668","","null","","","null","41","","","","","","","","","","","","","","","NaN",""
"","S1","","html-keyboard-response","279","275322","0.0-1.0-380.0","0","0","55668","","null","","","null","42","","","","","","","","","","","","","","","",""
"","ISI","","html-keyboard-response","280","276338","0.0-1.0-381.0","0","0","55668","","null","","","null","42","NaN","","","","","","","","","","","","","","",""
"","S2","","html-keyboard-response","281","276607","0.0-1.0-382.0","0","0","55668","","null","","","null","42","","NaN","","","","","","","","","","","","","",""
"","response","","html-keyboard-response","282","276996","0.0-1.0-383.0-0.0","0","0","55668","","384","","","75","42","","","1","42","training","adjacent","GF","7","6","R.jpg","O.jpg","0","0","1","",""
"","feedback","","html-keyboard-response","283","278003","0.0-1.0-384.0-0.0","0","0","55668","","null","","","null","42","","","","","","","","","","","","","","","",""
"","ITI","","html-keyboard-response","284","279019","0.0-1.0-387.0","0","0","55668","","null","","","null","42","","","","","","","","","","","","","","","NaN",""
"","S1","","html-keyboard-response","285","279285","0.0-1.0-389.0","0","0","55668","","null","","","null","43","","","","","","","","","","","","","","","",""
"","ISI","","html-keyboard-response","286","280303","0.0-1.0-390.0","0","0","55668","","null","","","null","43","NaN","","","","","","","","","","","","","","",""
"","S2","","html-keyboard-response","287","280567","0.0-1.0-391.0","0","0","55668","","null","","","null","43","","NaN","","","","","","","","","","","","","",""
"","response","","html-keyboard-response","288","280876","0.0-1.0-392.0-0.0","0","0","55668","","305","","","68","43","","","1","43","training","adjacent","ED","5","4","L.jpg","N.jpg","1","0","0","",""
"","feedback","","html-keyboard-response","289","281883","0.0-1.0-393.0-0.0","0","0","55668","","null","","","null","43","","","","","","","","","","","","","","","",""
"","time_out","","html-keyboard-response","290","283897","0.0-1.0-395.0-0.0","0","0","55668","","null","","","null","43","","","","","","","","","","","","","","","",""
"","ITI","","html-keyboard-response","291","284914","0.0-1.0-396.0","0","0","55668","","null","","","null","43","","","","","","","","","","","","","","","NaN",""
"","S1","","html-keyboard-response","292","285179","0.0-1.0-398.0","0","0","55668","","null","","","null","44","","","","","","","","","","","","","","","",""
"","ISI","","html-keyboard-response","293","286195","0.0-1.0-399.0","0","0","55668","","null","","","null","44","NaN","","","","","","","","","","","","","","",""
"","S2","","html-keyboard-response","294","286463","0.0-1.0-400.0","0","0","55668","","null","","","null","44","","NaN","","","","","","","","","","","","","",""
"","response","","html-keyboard-response","295","286888","0.0-1.0-401.0-0.0","0","0","55668","","421","","","75","44","","","1","44","training","adjacent","BA","2","1","M.jpg","Q.jpg","0","0","1","",""
"","feedback","","html-keyboard-response","296","287894","0.0-1.0-402.0-0.0","0","0","55668","","null","","","null","44","","","","","","","","","","","","","","","",""
"","ITI","","html-keyboard-response","297","288909","0.0-1.0-405.0","0","0","55668","","null","","","null","44","","","","","","","","","","","","","","","NaN",""
"","S1","","html-keyboard-response","298","289176","0.0-1.0-407.0","0","0","55668","","null","","","null","45","","","","","","","","","","","","","","","",""
"","ISI","","html-keyboard-response","299","290192","0.0-1.0-408.0","0","0","55668","","null","","","null","45","NaN","","","","","","","","","","","","","","",""
"","S2","","html-keyboard-response","300","290458","0.0-1.0-409.0","0","0","55668","","null","","","null","45","","NaN","","","","","","","","","","","","","",""
"","response","","html-keyboard-response","301","290988","0.0-1.0-410.0-0.0","0","0","55668","","526","","","75","45","","","1","45","training","adjacent","ED","5","4","L.jpg","N.jpg","0","0","1","",""
"","feedback","","html-keyboard-response","302","292007","0.0-1.0-411.0-0.0","0","0","55668","","null","","","null","45","","","","","","","","","","","","","","","",""
"","ITI","","html-keyboard-response","303","293026","0.0-1.0-414.0","0","0","55668","","null","","","null","45","","","","","","","","","","","","","","","NaN",""
"","S1","","html-keyboard-response","304","293289","0.0-1.0-416.0","0","0","55668","","null","","","null","46","","","","","","","","","","","","","","","",""
"","ISI","","html-keyboard-response","305","294305","0.0-1.0-417.0","0","0","55668","","null","","","null","46","NaN","","","","","","","","","","","","","","",""
"","S2","","html-keyboard-response","306","294571","0.0-1.0-418.0","0","0","55668","","null","","","null","46","","NaN","","","","","","","","","","","","","",""
"","response","","html-keyboard-response","307","294676","0.0-1.0-419.0-0.0","0","0","55668","","100","","","68","46","","","1","46","training","adjacent","AB","1","2","Q.jpg","M.jpg","1","1","1","",""
"","feedback","","html-keyboard-response","308","295687","0.0-1.0-420.0-0.0","0","0","55668","","null","","","null","46","","","","","","","","","","","","","","","",""
"","ITI","","html-keyboard-response","309","296702","0.0-1.0-423.0","0","0","55668","","null","","","null","46","","","","","","","","","","","","","","","NaN",""
"","S1","","html-keyboard-response","310","296968","0.0-1.0-425.0","0","0","55668","","null","","","null","47","","","","","","","","","","","","","","","",""
"","ISI","","html-keyboard-response","311","297985","0.0-1.0-426.0","0","0","55668","","null","","","null","47","NaN","","","","","","","","","","","","","","",""
"","S2","","html-keyboard-response","312","298250","0.0-1.0-427.0","0","0","55668","","null","","","null","47","","NaN","","","","","","","","","","","","","",""
"","response","","html-keyboard-response","313","298449","0.0-1.0-428.0-0.0","0","0","55668","","194","","","68","47","","","1","47","training","adjacent","ED","5","4","L.jpg","N.jpg","1","0","0","",""
"","feedback","","html-keyboard-response","314","299467","0.0-1.0-429.0-0.0","0","0","55668","","null","","","null","47","","","","","","","","","","","","","","","",""
"","time_out","","html-keyboard-response","315","301481","0.0-1.0-431.0-0.0","0","0","55668","","null","","","null","47","","","","","","","","","","","","","","","",""
"","ITI","","html-keyboard-response","316","302496","0.0-1.0-432.0","0","0","55668","","null","","","null","47","","","","","","","","","","","","","","","NaN",""
"","block_over","","html-keyboard-response","317","305055","0.0-1.0-433.0-0.0","0","0","55668","","2552","","","32","47","","","","","","","","","","","","","","","",""
"","S1","","html-keyboard-response","318","305311","0.0-1.0-434.0","0","0","55668","","null","","","null","48","","","","","","","","","","","","","","","",""
"","ISI","","html-keyboard-response","319","306326","0.0-1.0-435.0","0","0","55668","","null","","","null","48","NaN","","","","","","","","","","","","","","",""
"","S2","","html-keyboard-response","320","306593","0.0-1.0-436.0","0","0","55668","","null","","","null","48","","NaN","","","","","","","","","","","","","",""
"","response","","html-keyboard-response","321","306904","0.0-1.0-437.0-0.0","0","0","55668","","307","","","68","48","","","2","48","training","adjacent","EF","5","6","L.jpg","O.jpg","1","1","1","",""
"","feedback","","html-keyboard-response","322","307907","0.0-1.0-438.0-0.0","0","0","55668","","null","","","null","48","","","","","","","","","","","","","","","",""
"","ITI","","html-keyboard-response","323","308924","0.0-1.0-441.0","0","0","55668","","null","","","null","48","","","","","","","","","","","","","","","NaN",""
"","S1","","html-keyboard-response","324","309190","0.0-1.0-443.0","0","0","55668","","null","","","null","49","","","","","","","","","","","","","","","",""
"","ISI","","html-keyboard-response","325","310206","0.0-1.0-444.0","0","0","55668","","null","","","null","49","NaN","","","","","","","","","","","","","","",""
"","S2","","html-keyboard-response","326","310471","0.0-1.0-445.0","0","0","55668","","null","","","null","49","","NaN","","","","","","","","","","","","","",""
"","response","","html-keyboard-response","327","310792","0.0-1.0-446.0-0.0","0","0","55668","","316","","","75","49","","","2","49","training","adjacent","BC","2","3","M.jpg","P.jpg","0","1","0","",""
"","feedback","","html-keyboard-response","328","311803","0.0-1.0-447.0-0.0","0","0","55668","","null","","","null","49","","","","","","","","","","","","","","","",""
"","time_out","","html-keyboard-response","329","313819","0.0-1.0-449.0-0.0","0","0","55668","","null","","","null","49","","","","","","","","","","","","","","","",""
"","ITI","","html-keyboard-response","330","314835","0.0-1.0-450.0","0","0","55668","","null","","","null","49","","","","","","","","","","","","","","","NaN",""
"","S1","","html-keyboard-response","331","315101","0.0-1.0-452.0","0","0","55668","","null","","","null","50","","","","","","","","","","","","","","","",""
"","ISI","","html-keyboard-response","332","316118","0.0-1.0-453.0","0","0","55668","","null","","","null","50","NaN","","","","","","","","","","","","","","",""
"","S2","","html-keyboard-response","333","316368","0.0-1.0-454.0","0","0","55668","","245","","","68","50","","d","2","50","training","adjacent","AB","1","2","Q.jpg","M.jpg","1","1","1","",""
"","feedback","","html-keyboard-response","334","317382","0.0-1.0-456.0-0.0","0","0","55668","","null","","","null","50","","","","","","","","","","","","","","","",""
"","ITI","","html-keyboard-response","335","318398","0.0-1.0-459.0","0","0","55668","","null","","","null","50","","","","","","","","","","","","","","","NaN",""
"","S1","","html-keyboard-response","336","318663","0.0-1.0-461.0","0","0","55668","","null","","","null","51","","","","","","","","","","","","","","","",""
"","ISI","","html-keyboard-response","337","319681","0.0-1.0-462.0","0","0","55668","","null","","","null","51","NaN","","","","","","","","","","","","","","",""
"","S2","","html-keyboard-response","338","319924","0.0-1.0-463.0","0","0","55668","","238","","","68","51","","d","2","51","training","adjacent","BC","2","3","M.jpg","P.jpg","1","1","1","",""
"","feedback","","html-keyboard-response","339","320929","0.0-1.0-465.0-0.0","0","0","55668","","null","","","null","51","","","","","","","","","","","","","","","",""
"","ITI","","html-keyboard-response","340","321945","0.0-1.0-468.0","0","0","55668","","null","","","null","51","","","","","","","","","","","","","","","NaN",""
"","S1","","html-keyboard-response","341","322211","0.0-1.0-470.0","0","0","55668","","null","","","null","52","","","","","","","","","","","","","","","",""
"","ISI","","html-keyboard-response","342","323228","0.0-1.0-471.0","0","0","55668","","null","","","null","52","NaN","","","","","","","","","","","","","","",""
"","S2","","html-keyboard-response","343","323493","0.0-1.0-472.0","0","0","55668","","null","","","null","52","","NaN","","","","","","","","","","","","","",""
"","response","","html-keyboard-response","344","324084","0.0-1.0-473.0-0.0","0","0","55668","","587","","","68","52","","","2","52","training","adjacent","ED","5","4","L.jpg","N.jpg","1","0","0","",""
"","feedback","","html-keyboard-response","345","325092","0.0-1.0-474.0-0.0","0","0","55668","","null","","","null","52","","","","","","","","","","","","","","","",""
"","time_out","","html-keyboard-response","346","327104","0.0-1.0-476.0-0.0","0","0","55668","","null","","","null","52","","","","","","","","","","","","","","","",""
"","ITI","","html-keyboard-response","347","328122","0.0-1.0-477.0","0","0","55668","","null","","","null","52","","","","","","","","","","","","","","","NaN",""
"","S1","","html-keyboard-response","348","328386","0.0-1.0-479.0","0","0","55668","","null","","","null","53","","","","","","","","","","","","","","","",""
"","ISI","","html-keyboard-response","349","329404","0.0-1.0-480.0","0","0","55668","","null","","","null","53","NaN","","","","","","","","","","","","","","",""
"","S2","","html-keyboard-response","350","329672","0.0-1.0-481.0","0","0","55668","","null","","","null","53","","NaN","","","","","","","","","","","","","",""
"","response","","html-keyboard-response","351","330068","0.0-1.0-482.0-0.0","0","0","55668","","392","","","68","53","","","2","53","training","adjacent","AB","1","2","Q.jpg","M.jpg","1","1","1","",""
"","feedback","","html-keyboard-response","352","331087","0.0-1.0-483.0-0.0","0","0","55668","","null","","","null","53","","","","","","","","","","","","","","","",""
"","ITI","","html-keyboard-response","353","332101","0.0-1.0-486.0","0","0","55668","","null","","","null","53","","","","","","","","","","","","","","","NaN",""
"","S1","","html-keyboard-response","354","332368","0.0-1.0-488.0","0","0","55668","","null","","","null","54","","","","","","","","","","","","","","","",""
"","ISI","","html-keyboard-response","355","333383","0.0-1.0-489.0","0","0","55668","","null","","","null","54","NaN","","","","","","","","","","","","","","",""
"","S2","","html-keyboard-response","356","333650","0.0-1.0-490.0","0","0","55668","","null","","","null","54","","NaN","","","","","","","","","","","","","",""
"","response","","html-keyboard-response","357","334448","0.0-1.0-491.0-0.0","0","0","55668","","793","","","75","54","","","2","54","training","adjacent","ED","5","4","L.jpg","N.jpg","0","0","1","",""
"","feedback","","html-keyboard-response","358","335465","0.0-1.0-492.0-0.0","0","0","55668","","null","","","null","54","","","","","","","","","","","","","","","",""
"","ITI","","html-keyboard-response","359","336480","0.0-1.0-495.0","0","0","55668","","null","","","null","54","","","","","","","","","","","","","","","NaN",""
"","S1","","html-keyboard-response","360","336748","0.0-1.0-497.0","0","0","55668","","null","","","null","55","","","","","","","","","","","","","","","",""
"","ISI","","html-keyboard-response","361","337762","0.0-1.0-498.0","0","0","55668","","null","","","null","55","NaN","","","","","","","","","","","","","","",""
"","S2","","html-keyboard-response","362","338030","0.0-1.0-499.0","0","0","55668","","null","","","null","55","","NaN","","","","","","","","","","","","","",""
"","response","","html-keyboard-response","363","338472","0.0-1.0-500.0-0.0","0","0","55668","","438","","","75","55","","","2","55","training","adjacent","GF","7","6","R.jpg","O.jpg","0","0","1","",""
"","feedback","","html-keyboard-response","364","339479","0.0-1.0-501.0-0.0","0","0","55668","","null","","","null","55","","","","","","","","","","","","","","","",""
"","ITI","","html-keyboard-response","365","340485","0.0-1.0-504.0","0","0","55668","","null","","","null","55","","","","","","","","","","","","","","","NaN",""
"","S1","","html-keyboard-response","366","340750","0.0-1.0-506.0","0","0","55668","","null","","","null","56","","","","","","","","","","","","","","","",""
"","ISI","","html-keyboard-response","367","341759","0.0-1.0-507.0","0","0","55668","","null","","","null","56","NaN","","","","","","","","","","","","","","",""
"","S2","","html-keyboard-response","368","342024","0.0-1.0-508.0","0","0","55668","","null","","","null","56","","NaN","","","","","","","","","","","","","",""
"","response","","html-keyboard-response","369","343267","0.0-1.0-509.0-0.0","0","0","55668","","1238","","","75","56","","","2","56","training","adjacent","CB","3","2","P.jpg","M.jpg","0","0","1","",""
"","feedback","","html-keyboard-response","370","344274","0.0-1.0-510.0-0.0","0","0","55668","","null","","","null","56","","","","","","","","","","","","","","","",""
"","ITI","","html-keyboard-response","371","345289","0.0-1.0-513.0","0","0","55668","","null","","","null","56","","","","","","","","","","","","","","","NaN",""
"","S1","","html-keyboard-response","372","345556","0.0-1.0-515.0","0","0","55668","","null","","","null","57","","","","","","","","","","","","","","","",""
"","ISI","","html-keyboard-response","373","346570","0.0-1.0-516.0","0","0","55668","","null","","","null","57","NaN","","","","","","","","","","","","","","",""
"","S2","","html-keyboard-response","374","346839","0.0-1.0-517.0","0","0","55668","","null","","","null","57","","NaN","","","","","","","","","","","","","",""
"","response","","html-keyboard-response","375","347107","0.0-1.0-518.0-0.0","0","0","55668","","264","","","68","57","","","2","57","training","adjacent","EF","5","6","L.jpg","O.jpg","1","1","1","",""
"","feedback","","html-keyboard-response","376","348120","0.0-1.0-519.0-0.0","0","0","55668","","null","","","null","57","","","","","","","","","","","","","","","",""
"","ITI","","html-keyboard-response","377","349135","0.0-1.0-522.0","0","0","55668","","null","","","null","57","","","","","","","","","","","","","","","NaN",""
"","S1","","html-keyboard-response","378","349403","0.0-1.0-524.0","0","0","55668","","null","","","null","58","","","","","","","","","","","","","","","",""
"","ISI","","html-keyboard-response","379","350417","0.0-1.0-525.0","0","0","55668","","null","","","null","58","NaN","","","","","","","","","","","","","","",""
"","S2","","html-keyboard-response","380","350685","0.0-1.0-526.0","0","0","55668","","null","","","null","58","","NaN","","","","","","","","","","","","","",""
"","response","","html-keyboard-response","381","351992","0.0-1.0-527.0-0.0","0","0","55668","","1302","","","68","58","","","2","58","training","adjacent","DC","4","3","N.jpg","P.jpg","1","0","0","",""
"","feedback","","html-keyboard-response","382","352998","0.0-1.0-528.0-0.0","0","0","55668","","null","","","null","58","","","","","","","","","","","","","","","",""
"","time_out","","html-keyboard-response","383","355013","0.0-1.0-530.0-0.0","0","0","55668","","null","","","null","58","","","","","","","","","","","","","","","",""
"","ITI","","html-keyboard-response","384","356029","0.0-1.0-531.0","0","0","55668","","null","","","null","58","","","","","","","","","","","","","","","NaN",""
"","S1","","html-keyboard-response","385","356295","0.0-1.0-533.0","0","0","55668","","null","","","null","59","","","","","","","","","","","","","","","",""
"","ISI","","html-keyboard-response","386","357312","0.0-1.0-534.0","0","0","55668","","null","","","null","59","NaN","","","","","","","","","","","","","","",""
"","S2","","html-keyboard-response","387","357577","0.0-1.0-535.0","0","0","55668","","null","","","null","59","","NaN","","","","","","","","","","","","","",""
"","response","","html-keyboard-response","388","358211","0.0-1.0-536.0-0.0","0","0","55668","","631","","","75","59","","","2","59","training","adjacent","FE","6","5","O.jpg","L.jpg","0","0","1","",""
"","feedback","","html-keyboard-response","389","359226","0.0-1.0-537.0-0.0","0","0","55668","","null","","","null","59","","","","","","","","","","","","","","","",""
"","ITI","","html-keyboard-response","390","360242","0.0-1.0-540.0","0","0","55668","","null","","","null","59","","","","","","","","","","","","","","","NaN",""
"","S1","","html-keyboard-response","391","360508","0.0-1.0-542.0","0","0","55668","","null","","","null","60","","","","","","","","","","","","","","","",""
"","ISI","","html-keyboard-response","392","361524","0.0-1.0-543.0","0","0","55668","","null","","","null","60","NaN","","","","","","","","","","","","","","",""
"","S2","","html-keyboard-response","393","361790","0.0-1.0-544.0","0","0","55668","","null","","","null","60","","NaN","","","","","","","","","","","","","",""
"","response","","html-keyboard-response","394","362379","0.0-1.0-545.0-0.0","0","0","55668","","587","","","75","60","","","2","60","training","adjacent","FE","6","5","O.jpg","L.jpg","0","0","1","",""
"","feedback","","html-keyboard-response","395","363389","0.0-1.0-546.0-0.0","0","0","55668","","null","","","null","60","","","","","","","","","","","","","","","",""
"","ITI","","html-keyboard-response","396","364404","0.0-1.0-549.0","0","0","55668","","null","","","null","60","","","","","","","","","","","","","","","NaN",""
"","S1","","html-keyboard-response","397","364672","0.0-1.0-551.0","0","0","55668","","null","","","null","61","","","","","","","","","","","","","","","",""
"","ISI","","html-keyboard-response","398","365686","0.0-1.0-552.0","0","0","55668","","null","","","null","61","NaN","","","","","","","","","","","","","","",""
"","S2","","html-keyboard-response","399","365953","0.0-1.0-553.0","0","0","55668","","null","","","null","61","","NaN","","","","","","","","","","","","","",""
"","response","","html-keyboard-response","400","366408","0.0-1.0-554.0-0.0","0","0","55668","","451","","","75","61","","","2","61","training","adjacent","BA","2","1","M.jpg","Q.jpg","0","0","1","",""
"","feedback","","html-keyboard-response","401","367418","0.0-1.0-555.0-0.0","0","0","55668","","null","","","null","61","","","","","","","","","","","","","","","",""
"","ITI","","html-keyboard-response","402","368435","0.0-1.0-558.0","0","0","55668","","null","","","null","61","","","","","","","","","","","","","","","NaN",""
"","S1","","html-keyboard-response","403","368700","0.0-1.0-560.0","0","0","55668","","null","","","null","62","","","","","","","","","","","","","","","",""
"","ISI","","html-keyboard-response","404","369717","0.0-1.0-561.0","0","0","55668","","null","","","null","62","NaN","","","","","","","","","","","","","","",""
"","S2","","html-keyboard-response","405","369982","0.0-1.0-562.0","0","0","55668","","null","","","null","62","","NaN","","","","","","","","","","","","","",""
"","response","","html-keyboard-response","406","370351","0.0-1.0-563.0-0.0","0","0","55668","","365","","","68","62","","","2","62","training","adjacent","DC","4","3","N.jpg","P.jpg","1","0","0","",""
"","feedback","","html-keyboard-response","407","371365","0.0-1.0-564.0-0.0","0","0","55668","","null","","","null","62","","","","","","","","","","","","","","","",""
"","time_out","","html-keyboard-response","408","373378","0.0-1.0-566.0-0.0","0","0","55668","","null","","","null","62","","","","","","","","","","","","","","","",""
"","ITI","","html-keyboard-response","409","374395","0.0-1.0-567.0","0","0","55668","","null","","","null","62","","","","","","","","","","","","","","","NaN",""
"","S1","","html-keyboard-response","410","374661","0.0-1.0-569.0","0","0","55668","","null","","","null","63","","","","","","","","","","","","","","","",""
"","ISI","","html-keyboard-response","411","375677","0.0-1.0-570.0","0","0","55668","","null","","","null","63","NaN","","","","","","","","","","","","","","",""
"","S2","","html-keyboard-response","412","375944","0.0-1.0-571.0","0","0","55668","","null","","","null","63","","NaN","","","","","","","","","","","","","",""
"","response","","html-keyboard-response","413","376591","0.0-1.0-572.0-0.0","0","0","55668","","643","","","75","63","","","2","63","training","adjacent","ED","5","4","L.jpg","N.jpg","0","0","1","",""
"","feedback","","html-keyboard-response","414","377609","0.0-1.0-573.0-0.0","0","0","55668","","null","","","null","63","","","","","","","","","","","","","","","",""
"","ITI","","html-keyboard-response","415","378625","0.0-1.0-576.0","0","0","55668","","null","","","null","63","","","","","","","","","","","","","","","NaN",""
"","S1","","html-keyboard-response","416","378890","0.0-1.0-578.0","0","0","55668","","null","","","null","64","","","","","","","","","","","","","","","",""
"","ISI","","html-keyboard-response","417","379907","0.0-1.0-579.0","0","0","55668","","null","","","null","64","NaN","","","","","","","","","","","","","","",""
"","S2","","html-keyboard-response","418","380173","0.0-1.0-580.0","0","0","55668","","null","","","null","64","","NaN","","","","","","","","","","","","","",""
"","response","","html-keyboard-response","419","380524","0.0-1.0-581.0-0.0","0","0","55668","","348","","","75","64","","","2","64","training","adjacent","CB","3","2","P.jpg","M.jpg","0","0","1","",""
"","feedback","","html-keyboard-response","420","381539","0.0-1.0-582.0-0.0","0","0","55668","","null","","","null","64","","","","","","","","","","","","","","","",""
"","ITI","","html-keyboard-response","421","382555","0.0-1.0-585.0","0","0","55668","","null","","","null","64","","","","","","","","","","","","","","","NaN",""
"","S1","","html-keyboard-response","422","382821","0.0-1.0-587.0","0","0","55668","","null","","","null","65","","","","","","","","","","","","","","","",""
"","ISI","","html-keyboard-response","423","383836","0.0-1.0-588.0","0","0","55668","","null","","","null","65","NaN","","","","","","","","","","","","","","",""
"","S2","","html-keyboard-response","424","384103","0.0-1.0-589.0","0","0","55668","","null","","","null","65","","NaN","","","","","","","","","","","","","",""
"","response","","html-keyboard-response","425","384387","0.0-1.0-590.0-0.0","0","0","55668","","280","","","75","65","","","2","65","training","adjacent","FE","6","5","O.jpg","L.jpg","0","0","1","",""
"","feedback","","html-keyboard-response","426","385401","0.0-1.0-591.0-0.0","0","0","55668","","null","","","null","65","","","","","","","","","","","","","","","",""
"","ITI","","html-keyboard-response","427","386417","0.0-1.0-594.0","0","0","55668","","null","","","null","65","","","","","","","","","","","","","","","NaN",""
"","S1","","html-keyboard-response","428","386683","0.0-1.0-596.0","0","0","55668","","null","","","null","66","","","","","","","","","","","","","","","",""
"","ISI","","html-keyboard-response","429","387700","0.0-1.0-597.0","0","0","55668","","null","","","null","66","NaN","","","","","","","","","","","","","","",""
"","S2","","html-keyboard-response","430","387965","0.0-1.0-598.0","0","0","55668","","null","","","null","66","","NaN","","","","","","","","","","","","","",""
"","response","","html-keyboard-response","431","388291","0.0-1.0-599.0-0.0","0","0","55668","","323","","","75","66","","","2","66","training","adjacent","BA","2","1","M.jpg","Q.jpg","0","0","1","",""
"","feedback","","html-keyboard-response","432","389300","0.0-1.0-600.0-0.0","0","0","55668","","null","","","null","66","","","","","","","","","","","","","","","",""
"","ITI","","html-keyboard-response","433","390314","0.0-1.0-603.0","0","0","55668","","null","","","null","66","","","","","","","","","","","","","","","NaN",""
"","S1","","html-keyboard-response","434","390580","0.0-1.0-605.0","0","0","55668","","null","","","null","67","","","","","","","","","","","","","","","",""
"","ISI","","html-keyboard-response","435","391596","0.0-1.0-606.0","0","0","55668","","null","","","null","67","NaN","","","","","","","","","","","","","","",""
"","S2","","html-keyboard-response","436","391862","0.0-1.0-607.0","0","0","55668","","null","","","null","67","","NaN","","","","","","","","","","","","","",""
"","response","","html-keyboard-response","437","392271","0.0-1.0-608.0-0.0","0","0","55668","","406","","","68","67","","","2","67","training","adjacent","EF","5","6","L.jpg","O.jpg","1","1","1","",""
"","feedback","","html-keyboard-response","438","393277","0.0-1.0-609.0-0.0","0","0","55668","","null","","","null","67","","","","","","","","","","","","","","","",""
"","ITI","","html-keyboard-response","439","394293","0.0-1.0-612.0","0","0","55668","","null","","","null","67","","","","","","","","","","","","","","","NaN",""
"","S1","","html-keyboard-response","440","394559","0.0-1.0-614.0","0","0","55668","","null","","","null","68","","","","","","","","","","","","","","","",""
"","ISI","","html-keyboard-response","441","395575","0.0-1.0-615.0","0","0","55668","","null","","","null","68","NaN","","","","","","","","","","","","","","",""
"","S2","","html-keyboard-response","442","395842","0.0-1.0-616.0","0","0","55668","","null","","","null","68","","NaN","","","","","","","","","","","","","",""
"","response","","html-keyboard-response","443","396888","0.0-1.0-617.0-0.0","0","0","55668","","1042","","","75","68","","","2","68","training","adjacent","CD","3","4","P.jpg","N.jpg","0","1","0","",""
"","feedback","","html-keyboard-response","444","397907","0.0-1.0-618.0-0.0","0","0","55668","","null","","","null","68","","","","","","","","","","","","","","","",""
"","time_out","","html-keyboard-response","445","399921","0.0-1.0-620.0-0.0","0","0","55668","","null","","","null","68","","","","","","","","","","","","","","","",""
"","ITI","","html-keyboard-response","446","400937","0.0-1.0-621.0","0","0","55668","","null","","","null","68","","","","","","","","","","","","","","","NaN",""
"","S1","","html-keyboard-response","447","401203","0.0-1.0-623.0","0","0","55668","","null","","","null","69","","","","","","","","","","","","","","","",""
"","ISI","","html-keyboard-response","448","402218","0.0-1.0-624.0","0","0","55668","","null","","","null","69","NaN","","","","","","","","","","","","","","",""
"","S2","","html-keyboard-response","449","402485","0.0-1.0-625.0","0","0","55668","","null","","","null","69","","NaN","","","","","","","","","","","","","",""
"","response","","html-keyboard-response","450","402807","0.0-1.0-626.0-0.0","0","0","55668","","319","","","68","69","","","2","69","training","adjacent","AB","1","2","Q.jpg","M.jpg","1","1","1","",""
"","feedback","","html-keyboard-response","451","403818","0.0-1.0-627.0-0.0","0","0","55668","","null","","","null","69","","","","","","","","","","","","","","","",""
"","ITI","","html-keyboard-response","452","404833","0.0-1.0-630.0","0","0","55668","","null","","","null","69","","","","","","","","","","","","","","","NaN",""
"","S1","","html-keyboard-response","453","405099","0.0-1.0-632.0","0","0","55668","","null","","","null","70","","","","","","","","","","","","","","","",""
"","ISI","","html-keyboard-response","454","406116","0.0-1.0-633.0","0","0","55668","","null","","","null","70","NaN","","","","","","","","","","","","","","",""
"","S2","","html-keyboard-response","455","406382","0.0-1.0-634.0","0","0","55668","","null","","","null","70","","NaN","","","","","","","","","","","","","",""
"","response","","html-keyboard-response","456","406819","0.0-1.0-635.0-0.0","0","0","55668","","434","","","68","70","","","2","70","training","adjacent","DE","4","5","N.jpg","L.jpg","1","1","1","",""
"","feedback","","html-keyboard-response","457","407831","0.0-1.0-636.0-0.0","0","0","55668","","null","","","null","70","","","","","","","","","","","","","","","",""
"","ITI","","html-keyboard-response","458","408846","0.0-1.0-639.0","0","0","55668","","null","","","null","70","","","","","","","","","","","","","","","NaN",""
"","S1","","html-keyboard-response","459","409112","0.0-1.0-641.0","0","0","55668","","null","","","null","71","","","","","","","","","","","","","","","",""
"","ISI","","html-keyboard-response","460","410128","0.0-1.0-642.0","0","0","55668","","null","","","null","71","NaN","","","","","","","","","","","","","","",""
"","S2","","html-keyboard-response","461","410394","0.0-1.0-643.0","0","0","55668","","null","","","null","71","","NaN","","","","","","","","","","","","","",""
"","response","","html-keyboard-response","462","410744","0.0-1.0-644.0-0.0","0","0","55668","","345","","","75","71","","","2","71","training","adjacent","FE","6","5","O.jpg","L.jpg","0","0","1","",""
"","feedback","","html-keyboard-response","463","411760","0.0-1.0-645.0-0.0","0","0","55668","","null","","","null","71","","","","","","","","","","","","","","","",""
"","ITI","","html-keyboard-response","464","412775","0.0-1.0-648.0","0","0","55668","","null","","","null","71","","","","","","","","","","","","","","","NaN",""
"","S1","","html-keyboard-response","465","413042","0.0-1.0-650.0","0","0","55668","","null","","","null","72","","","","","","","","","","","","","","","",""
"","ISI","","html-keyboard-response","466","414057","0.0-1.0-651.0","0","0","55668","","null","","","null","72","NaN","","","","","","","","","","","","","","",""
"","S2","","html-keyboard-response","467","414324","0.0-1.0-652.0","0","0","55668","","null","","","null","72","","NaN","","","","","","","","","","","","","",""
"","response","","html-keyboard-response","468","414711","0.0-1.0-653.0-0.0","0","0","55668","","383","","","68","72","","","2","72","training","adjacent","FG","6","7","O.jpg","R.jpg","1","1","1","",""
"","feedback","","html-keyboard-response","469","415722","0.0-1.0-654.0-0.0","0","0","55668","","null","","","null","72","","","","","","","","","","","","","","","",""
"","ITI","","html-keyboard-response","470","416738","0.0-1.0-657.0","0","0","55668","","null","","","null","72","","","","","","","","","","","","","","","NaN",""
"","S1","","html-keyboard-response","471","417007","0.0-1.0-659.0","0","0","55668","","null","","","null","73","","","","","","","","","","","","","","","",""
"","ISI","","html-keyboard-response","472","418020","0.0-1.0-660.0","0","0","55668","","null","","","null","73","NaN","","","","","","","","","","","","","","",""
"","S2","","html-keyboard-response","473","418287","0.0-1.0-661.0","0","0","55668","","null","","","null","73","","NaN","","","","","","","","","","","","","",""
"","response","","html-keyboard-response","474","418786","0.0-1.0-662.0-0.0","0","0","55668","","496","","","75","73","","","2","73","training","adjacent","CB","3","2","P.jpg","M.jpg","0","0","1","",""
"","feedback","","html-keyboard-response","475","419802","0.0-1.0-663.0-0.0","0","0","55668","","null","","","null","73","","","","","","","","","","","","","","","",""
"","ITI","","html-keyboard-response","476","420818","0.0-1.0-666.0","0","0","55668","","null","","","null","73","","","","","","","","","","","","","","","NaN",""
"","S1","","html-keyboard-response","477","421084","0.0-1.0-668.0","0","0","55668","","null","","","null","74","","","","","","","","","","","","","","","",""
"","ISI","","html-keyboard-response","478","422100","0.0-1.0-669.0","0","0","55668","","null","","","null","74","NaN","","","","","","","","","","","","","","",""
"","S2","","html-keyboard-response","479","422366","0.0-1.0-670.0","0","0","55668","","null","","","null","74","","NaN","","","","","","","","","","","","","",""
"","response","","html-keyboard-response","480","422775","0.0-1.0-671.0-0.0","0","0","55668","","404","","","75","74","","","2","74","training","adjacent","GF","7","6","R.jpg","O.jpg","0","0","1","",""
"","feedback","","html-keyboard-response","481","423784","0.0-1.0-672.0-0.0","0","0","55668","","null","","","null","74","","","","","","","","","","","","","","","",""
"","ITI","","html-keyboard-response","482","424797","0.0-1.0-675.0","0","0","55668","","null","","","null","74","","","","","","","","","","","","","","","NaN",""
"","S1","","html-keyboard-response","483","425064","0.0-1.0-677.0","0","0","55668","","null","","","null","75","","","","","","","","","","","","","","","",""
"","ISI","","html-keyboard-response","484","426079","0.0-1.0-678.0","0","0","55668","","null","","","null","75","NaN","","","","","","","","","","","","","","",""
"","S2","","html-keyboard-response","485","426346","0.0-1.0-679.0","0","0","55668","","null","","","null","75","","NaN","","","","","","","","","","","","","",""
"","response","","html-keyboard-response","486","426640","0.0-1.0-680.0-0.0","0","0","55668","","290","","","68","75","","","2","75","training","adjacent","AB","1","2","Q.jpg","M.jpg","1","1","1","",""
"","feedback","","html-keyboard-response","487","427645","0.0-1.0-681.0-0.0","0","0","55668","","null","","","null","75","","","","","","","","","","","","","","","",""
"","ITI","","html-keyboard-response","488","428661","0.0-1.0-684.0","0","0","55668","","null","","","null","75","","","","","","","","","","","","","","","NaN",""
"","S1","","html-keyboard-response","489","428926","0.0-1.0-686.0","0","0","55668","","null","","","null","76","","","","","","","","","","","","","","","",""
"","ISI","","html-keyboard-response","490","429942","0.0-1.0-687.0","0","0","55668","","null","","","null","76","NaN","","","","","","","","","","","","","","",""
"","S2","","html-keyboard-response","491","430209","0.0-1.0-688.0","0","0","55668","","null","","","null","76","","NaN","","","","","","","","","","","","","",""
"","response","","html-keyboard-response","492","430443","0.0-1.0-689.0-0.0","0","0","55668","","230","","","75","76","","","2","76","training","adjacent","GF","7","6","R.jpg","O.jpg","0","0","1","",""
"","feedback","","html-keyboard-response","493","431449","0.0-1.0-690.0-0.0","0","0","55668","","null","","","null","76","","","","","","","","","","","","","","","",""
"","ITI","","html-keyboard-response","494","432465","0.0-1.0-693.0","0","0","55668","","null","","","null","76","","","","","","","","","","","","","","","NaN",""
"","S1","","html-keyboard-response","495","432732","0.0-1.0-695.0","0","0","55668","","null","","","null","77","","","","","","","","","","","","","","","",""
"","ISI","","html-keyboard-response","496","433748","0.0-1.0-696.0","0","0","55668","","null","","","null","77","NaN","","","","","","","","","","","","","","",""
"","S2","","html-keyboard-response","497","434014","0.0-1.0-697.0","0","0","55668","","null","","","null","77","","NaN","","","","","","","","","","","","","",""
"","response","","html-keyboard-response","498","434699","0.0-1.0-698.0-0.0","0","0","55668","","682","","","75","77","","","2","77","training","adjacent","ED","5","4","L.jpg","N.jpg","0","0","1","",""
"","feedback","","html-keyboard-response","499","435712","0.0-1.0-699.0-0.0","0","0","55668","","null","","","null","77","","","","","","","","","","","","","","","",""
"","ITI","","html-keyboard-response","500","436728","0.0-1.0-702.0","0","0","55668","","null","","","null","77","","","","","","","","","","","","","","","NaN",""
"","S1","","html-keyboard-response","501","436994","0.0-1.0-704.0","0","0","55668","","null","","","null","78","","","","","","","","","","","","","","","",""
"","ISI","","html-keyboard-response","502","438010","0.0-1.0-705.0","0","0","55668","","null","","","null","78","NaN","","","","","","","","","","","","","","",""
"","S2","","html-keyboard-response","503","438277","0.0-1.0-706.0","0","0","55668","","null","","","null","78","","NaN","","","","","","","","","","","","","",""
"","response","","html-keyboard-response","504","438527","0.0-1.0-707.0-0.0","0","0","55668","","247","","","68","78","","","2","78","training","adjacent","BC","2","3","M.jpg","P.jpg","1","1","1","",""
"","feedback","","html-keyboard-response","505","439542","0.0-1.0-708.0-0.0","0","0","55668","","null","","","null","78","","","","","","","","","","","","","","","",""
"","ITI","","html-keyboard-response","506","440557","0.0-1.0-711.0","0","0","55668","","null","","","null","78","","","","","","","","","","","","","","","NaN",""
"","S1","","html-keyboard-response","507","440824","0.0-1.0-713.0","0","0","55668","","null","","","null","79","","","","","","","","","","","","","","","",""
"","ISI","","html-keyboard-response","508","441839","0.0-1.0-714.0","0","0","55668","","null","","","null","79","NaN","","","","","","","","","","","","","","",""
"","S2","","html-keyboard-response","509","442106","0.0-1.0-715.0","0","0","55668","","null","","","null","79","","NaN","","","","","","","","","","","","","",""
"","response","","html-keyboard-response","510","442379","0.0-1.0-716.0-0.0","0","0","55668","","269","","","68","79","","","2","79","training","adjacent","DE","4","5","N.jpg","L.jpg","1","1","1","",""
"","feedback","","html-keyboard-response","511","443388","0.0-1.0-717.0-0.0","0","0","55668","","null","","","null","79","","","","","","","","","","","","","","","",""
"","ITI","","html-keyboard-response","512","444404","0.0-1.0-720.0","0","0","55668","","null","","","null","79","","","","","","","","","","","","","","","NaN",""
"","S1","","html-keyboard-response","513","444670","0.0-1.0-722.0","0","0","55668","","null","","","null","80","","","","","","","","","","","","","","","",""
"","ISI","","html-keyboard-response","514","445686","0.0-1.0-723.0","0","0","55668","","null","","","null","80","NaN","","","","","","","","","","","","","","",""
"","S2","","html-keyboard-response","515","445954","0.0-1.0-724.0","0","0","55668","","null","","","null","80","","NaN","","","","","","","","","","","","","",""
"","response","","html-keyboard-response","516","446231","0.0-1.0-725.0-0.0","0","0","55668","","273","","","68","80","","","2","80","training","adjacent","FG","6","7","O.jpg","R.jpg","1","1","1","",""
"","feedback","","html-keyboard-response","517","447251","0.0-1.0-726.0-0.0","0","0","55668","","null","","","null","80","","","","","","","","","","","","","","","",""
"","ITI","","html-keyboard-response","518","448267","0.0-1.0-729.0","0","0","55668","","null","","","null","80","","","","","","","","","","","","","","","NaN",""
"","S1","","html-keyboard-response","519","448533","0.0-1.0-731.0","0","0","55668","","null","","","null","81","","","","","","","","","","","","","","","",""
"","ISI","","html-keyboard-response","520","449548","0.0-1.0-732.0","0","0","55668","","null","","","null","81","NaN","","","","","","","","","","","","","","",""
"","S2","","html-keyboard-response","521","449815","0.0-1.0-733.0","0","0","55668","","null","","","null","81","","NaN","","","","","","","","","","","","","",""
"","response","","html-keyboard-response","522","450347","0.0-1.0-734.0-0.0","0","0","55668","","527","","","68","81","","","2","81","training","adjacent","DC","4","3","N.jpg","P.jpg","1","0","0","",""
"","feedback","","html-keyboard-response","523","451364","0.0-1.0-735.0-0.0","0","0","55668","","null","","","null","81","","","","","","","","","","","","","","","",""
"","time_out","","html-keyboard-response","524","453379","0.0-1.0-737.0-0.0","0","0","55668","","null","","","null","81","","","","","","","","","","","","","","","",""
"","ITI","","html-keyboard-response","525","454394","0.0-1.0-738.0","0","0","55668","","null","","","null","81","","","","","","","","","","","","","","","NaN",""
"","S1","","html-keyboard-response","526","454661","0.0-1.0-740.0","0","0","55668","","null","","","null","82","","","","","","","","","","","","","","","",""
"","ISI","","html-keyboard-response","527","455677","0.0-1.0-741.0","0","0","55668","","null","","","null","82","NaN","","","","","","","","","","","","","","",""
"","S2","","html-keyboard-response","528","455943","0.0-1.0-742.0","0","0","55668","","null","","","null","82","","NaN","","","","","","","","","","","","","",""
"","response","","html-keyboard-response","529","456235","0.0-1.0-743.0-0.0","0","0","55668","","288","","","75","82","","","2","82","training","adjacent","DC","4","3","N.jpg","P.jpg","0","0","1","",""
"","feedback","","html-keyboard-response","530","457242","0.0-1.0-744.0-0.0","0","0","55668","","null","","","null","82","","","","","","","","","","","","","","","",""
"","ITI","","html-keyboard-response","531","458258","0.0-1.0-747.0","0","0","55668","","null","","","null","82","","","","","","","","","","","","","","","NaN",""
"","S1","","html-keyboard-response","532","458523","0.0-1.0-749.0","0","0","55668","","null","","","null","83","","","","","","","","","","","","","","","",""
"","ISI","","html-keyboard-response","533","459531","0.0-1.0-750.0","0","0","55668","","null","","","null","83","NaN","","","","","","","","","","","","","","",""
"","S2","","html-keyboard-response","534","459798","0.0-1.0-751.0","0","0","55668","","null","","","null","83","","NaN","","","","","","","","","","","","","",""
"","response","","html-keyboard-response","535","460232","0.0-1.0-752.0-0.0","0","0","55668","","431","","","68","83","","","2","83","training","adjacent","DE","4","5","N.jpg","L.jpg","1","1","1","",""
"","feedback","","html-keyboard-response","536","461246","0.0-1.0-753.0-0.0","0","0","55668","","null","","","null","83","","","","","","","","","","","","","","","",""
"","ITI","","html-keyboard-response","537","462262","0.0-1.0-756.0","0","0","55668","","null","","","null","83","","","","","","","","","","","","","","","NaN",""
"","S1","","html-keyboard-response","538","462528","0.0-1.0-758.0","0","0","55668","","null","","","null","84","","","","","","","","","","","","","","","",""
"","ISI","","html-keyboard-response","539","463543","0.0-1.0-759.0","0","0","55668","","null","","","null","84","NaN","","","","","","","","","","","","","","",""
"","S2","","html-keyboard-response","540","463811","0.0-1.0-760.0","0","0","55668","","null","","","null","84","","NaN","","","","","","","","","","","","","",""
"","response","","html-keyboard-response","541","464131","0.0-1.0-761.0-0.0","0","0","55668","","316","","","75","84","","","2","84","training","adjacent","BA","2","1","M.jpg","Q.jpg","0","0","1","",""
"","feedback","","html-keyboard-response","542","465143","0.0-1.0-762.0-0.0","0","0","55668","","null","","","null","84","","","","","","","","","","","","","","","",""
"","ITI","","html-keyboard-response","543","466158","0.0-1.0-765.0","0","0","55668","","null","","","null","84","","","","","","","","","","","","","","","NaN",""
"","S1","","html-keyboard-response","544","466424","0.0-1.0-767.0","0","0","55668","","null","","","null","85","","","","","","","","","","","","","","","",""
"","ISI","","html-keyboard-response","545","467441","0.0-1.0-768.0","0","0","55668","","null","","","null","85","NaN","","","","","","","","","","","","","","",""
"","S2","","html-keyboard-response","546","467707","0.0-1.0-769.0","0","0","55668","","null","","","null","85","","NaN","","","","","","","","","","","","","",""
"","response","","html-keyboard-response","547","469051","0.0-1.0-770.0-0.0","0","0","55668","","1340","","","75","85","","","2","85","training","adjacent","CB","3","2","P.jpg","M.jpg","0","0","1","",""
"","feedback","","html-keyboard-response","548","470072","0.0-1.0-771.0-0.0","0","0","55668","","null","","","null","85","","","","","","","","","","","","","","","",""
"","ITI","","html-keyboard-response","549","471087","0.0-1.0-774.0","0","0","55668","","null","","","null","85","","","","","","","","","","","","","","","NaN",""
"","S1","","html-keyboard-response","550","471353","0.0-1.0-776.0","0","0","55668","","null","","","null","86","","","","","","","","","","","","","","","",""
"","ISI","","html-keyboard-response","551","472369","0.0-1.0-777.0","0","0","55668","","null","","","null","86","NaN","","","","","","","","","","","","","","",""
"","S2","","html-keyboard-response","552","472636","0.0-1.0-778.0","0","0","55668","","null","","","null","86","","NaN","","","","","","","","","","","","","",""
"","response","","html-keyboard-response","553","472907","0.0-1.0-779.0-0.0","0","0","55668","","267","","","68","86","","","2","86","training","adjacent","DE","4","5","N.jpg","L.jpg","1","1","1","",""
"","feedback","","html-keyboard-response","554","473917","0.0-1.0-780.0-0.0","0","0","55668","","null","","","null","86","","","","","","","","","","","","","","","",""
"","ITI","","html-keyboard-response","555","474933","0.0-1.0-783.0","0","0","55668","","null","","","null","86","","","","","","","","","","","","","","","NaN",""
"","S1","","html-keyboard-response","556","475199","0.0-1.0-785.0","0","0","55668","","null","","","null","87","","","","","","","","","","","","","","","",""
"","ISI","","html-keyboard-response","557","476215","0.0-1.0-786.0","0","0","55668","","null","","","null","87","NaN","","","","","","","","","","","","","","",""
"","S2","","html-keyboard-response","558","476482","0.0-1.0-787.0","0","0","55668","","null","","","null","87","","NaN","","","","","","","","","","","","","",""
"","response","","html-keyboard-response","559","476851","0.0-1.0-788.0-0.0","0","0","55668","","365","","","68","87","","","2","87","training","adjacent","FG","6","7","O.jpg","R.jpg","1","1","1","",""
"","feedback","","html-keyboard-response","560","477862","0.0-1.0-789.0-0.0","0","0","55668","","null","","","null","87","","","","","","","","","","","","","","","",""
"","ITI","","html-keyboard-response","561","478879","0.0-1.0-792.0","0","0","55668","","null","","","null","87","","","","","","","","","","","","","","","NaN",""
"","S1","","html-keyboard-response","562","479146","0.0-1.0-794.0","0","0","55668","","null","","","null","88","","","","","","","","","","","","","","","",""
"","ISI","","html-keyboard-response","563","480162","0.0-1.0-795.0","0","0","55668","","null","","","null","88","NaN","","","","","","","","","","","","","","",""
"","S2","","html-keyboard-response","564","480430","0.0-1.0-796.0","0","0","55668","","null","","","null","88","","NaN","","","","","","","","","","","","","",""
"","response","","html-keyboard-response","565","481530","0.0-1.0-797.0-0.0","0","0","55668","","1097","","","68","88","","","2","88","training","adjacent","CD","3","4","P.jpg","N.jpg","1","1","1","",""
"","feedback","","html-keyboard-response","566","482543","0.0-1.0-798.0-0.0","0","0","55668","","null","","","null","88","","","","","","","","","","","","","","","",""
"","ITI","","html-keyboard-response","567","483559","0.0-1.0-801.0","0","0","55668","","null","","","null","88","","","","","","","","","","","","","","","NaN",""
"","S1","","html-keyboard-response","568","483825","0.0-1.0-803.0","0","0","55668","","null","","","null","89","","","","","","","","","","","","","","","",""
"","ISI","","html-keyboard-response","569","484840","0.0-1.0-804.0","0","0","55668","","null","","","null","89","NaN","","","","","","","","","","","","","","",""
"","S2","","html-keyboard-response","570","485107","0.0-1.0-805.0","0","0","55668","","null","","","null","89","","NaN","","","","","","","","","","","","","",""
"","response","","html-keyboard-response","571","485403","0.0-1.0-806.0-0.0","0","0","55668","","292","","","68","89","","","2","89","training","adjacent","FG","6","7","O.jpg","R.jpg","1","1","1","",""
"","feedback","","html-keyboard-response","572","486422","0.0-1.0-807.0-0.0","0","0","55668","","null","","","null","89","","","","","","","","","","","","","","","",""
"","ITI","","html-keyboard-response","573","487438","0.0-1.0-810.0","0","0","55668","","null","","","null","89","","","","","","","","","","","","","","","NaN",""
"","S1","","html-keyboard-response","574","487704","0.0-1.0-812.0","0","0","55668","","null","","","null","90","","","","","","","","","","","","","","","",""
"","ISI","","html-keyboard-response","575","488720","0.0-1.0-813.0","0","0","55668","","null","","","null","90","NaN","","","","","","","","","","","","","","",""
"","S2","","html-keyboard-response","576","488987","0.0-1.0-814.0","0","0","55668","","null","","","null","90","","NaN","","","","","","","","","","","","","",""
"","response","","html-keyboard-response","577","489315","0.0-1.0-815.0-0.0","0","0","55668","","324","","","75","90","","","2","90","training","adjacent","BA","2","1","M.jpg","Q.jpg","0","0","1","",""
"","feedback","","html-keyboard-response","578","490336","0.0-1.0-816.0-0.0","0","0","55668","","null","","","null","90","","","","","","","","","","","","","","","",""
"","ITI","","html-keyboard-response","579","491349","0.0-1.0-819.0","0","0","55668","","null","","","null","90","","","","","","","","","","","","","","","NaN",""
"","S1","","html-keyboard-response","580","491610","0.0-1.0-821.0","0","0","55668","","null","","","null","91","","","","","","","","","","","","","","","",""
"","ISI","","html-keyboard-response","581","492625","0.0-1.0-822.0","0","0","55668","","null","","","null","91","NaN","","","","","","","","","","","","","","",""
