"success","ttype","start_time","trial_type","trial_index","time_elapsed","internal_node_id","warning","missed_checkup","PID","view_history","rt","responses","repeat_instructions","key_press","index","keypress_isi","keypress_S2","block","trial_num","phase","group_type","pair_type","S1_stim","S2_stim","S1_img","S2_img","S1_chosen","S1_higher","accuracy","keypress_iti","total_bonus_tally"
"true","full_screen","d07282022hr1754","fullscreen","0","26164","0.0-0.0","0","0","34103","","","","","","","","","","","","","","","","","","","","","",""
"","instructions","","instructions","1","54896","0.0-1.0-0.0-0.0","0","0","34103","[{""page_index"":0,""viewing_time"":6594},{""page_index"":1,""viewing_time"":10344},{""page_index"":2,""viewing_time"":10418},{""page_index"":3,""viewing_time"":1372}]","28728","","","","","","","","","","","","","","","","","","","",""
"","comprehension_check","","survey-multi-choice","2","68226","0.0-1.0-0.0-1.0","0","0","34103","","13326","{""Q0"":""True"",""Q1"":""True"",""Q2"":""When you see the prompt 'MAKE A CHOICE' after the second image was presented"",""Q3"":""Green mark"",""Q4"":""either D or K""}","0","","","","","","","","","","","","","","","","","",""
"","start_exp","","html-keyboard-response","3","69577","0.0-1.0-1.0","0","0","34103","","1346","","","32","","","","","","","","","","","","","","","","",""
"","S1","","html-keyboard-response","4","69836","0.0-1.0-2.0","0","0","34103","","null","","","null","0","","","","","","","","","","","","","","","",""
"","ISI","","html-keyboard-response","5","71838","0.0-1.0-3.0","0","0","34103","","null","","","null","0","NaN","","","","","","","","","","","","","","",""
"","S2","","html-keyboard-response","6","72103","0.0-1.0-4.0","0","0","34103","","null","","","null","0","","NaN","","","","","","","","","","","","","",""
"","response","","html-keyboard-response","7","72778","0.0-1.0-5.0","0","0","34103","","674","","","75","0","","","1","0","training","adjacent","AB","1","2","N.jpg","P.jpg","1","1","1","",""
"","feedback","","html-keyboard-response","8","73795","0.0-1.0-6.0-0.0","0","0","34103","","null","","","null","0","","","","","","","","","","","","","","","",""
"","ITI","","html-keyboard-response","9","74811","0.0-1.0-9.0","0","0","34103","","null","","","null","0","","","","","","","","","","","","","","","NaN",""
"","S1","","html-keyboard-response","10","75075","0.0-1.0-11.0","0","0","34103","","null","","","null","1","","","","","","","","","","","","","","","",""
"","ISI","","html-keyboard-response","11","77093","0.0-1.0-12.0","0","0","34103","","null","","","null","1","NaN","","","","","","","","","","","","","","",""
"","S2","","html-keyboard-response","12","77356","0.0-1.0-13.0","0","0","34103","","null","","","null","1","","NaN","","","","","","","","","","","","","",""
"","response","","html-keyboard-response","13","77738","0.0-1.0-14.0","0","0","34103","","380","","","75","1","","","1","1","training","adjacent","EF","5","6","R.jpg","Q.jpg","1","1","1","",""
"","feedback","","html-keyboard-response","14","78743","0.0-1.0-15.0-0.0","0","0","34103","","null","","","null","1","","","","","","","","","","","","","","","",""
"","ITI","","html-keyboard-response","15","79749","0.0-1.0-18.0","0","0","34103","","null","","","null","1","","","","","","","","","","","","","","","NaN",""
"","S1","","html-keyboard-response","16","80001","0.0-1.0-20.0","0","0","34103","","null","","","null","2","","","","","","","","","","","","","","","",""
"","ISI","","html-keyboard-response","17","82012","0.0-1.0-21.0","0","0","34103","","null","","","null","2","NaN","","","","","","","","","","","","","","",""
"","S2","","html-keyboard-response","18","82276","0.0-1.0-22.0","0","0","34103","","null","","","null","2","","NaN","","","","","","","","","","","","","",""
"","response","","html-keyboard-response","19","82470","0.0-1.0-23.0","0","0","34103","","193","","","68","2","","","1","2","training","adjacent","DC","4","3","M.jpg","O.jpg","0","0","1","",""
"","feedback","","html-keyboard-response","20","83474","0.0-1.0-24.0-0.0","0","0","34103","","null","","","null","2","","","","","","","","","","","","","","","",""
"","ITI","","html-keyboard-response","21","84480","0.0-1.0-27.0","0","0","34103","","null","","","null","2","","","","","","","","","","","","","","","NaN",""
"","S1","","html-keyboard-response","22","84746","0.0-1.0-29.0","0","0","34103","","null","","","null","3","","","","","","","","","","","","","","","",""
"","ISI","","html-keyboard-response","23","86761","0.0-1.0-30.0","0","0","34103","","null","","","null","3","NaN","","","","","","","","","","","","","","",""
"","S2","","html-keyboard-response","24","87022","0.0-1.0-31.0","0","0","34103","","null","","","null","3","","NaN","","","","","","","","","","","","","",""
"","response","","html-keyboard-response","25","87686","0.0-1.0-32.0","0","0","34103","","663","","","68","3","","","1","3","training","adjacent","BA","2","1","P.jpg","N.jpg","0","0","1","",""
"","feedback","","html-keyboard-response","26","88696","0.0-1.0-33.0-0.0","0","0","34103","","null","","","null","3","","","","","","","","","","","","","","","",""
"","ITI","","html-keyboard-response","27","89706","0.0-1.0-36.0","0","0","34103","","null","","","null","3","","","","","","","","","","","","","","","NaN",""
"","S1","","html-keyboard-response","28","89958","0.0-1.0-38.0","0","0","34103","","null","","","null","4","","","","","","","","","","","","","","","",""
"","ISI","","html-keyboard-response","29","91974","0.0-1.0-39.0","0","0","34103","","null","","","null","4","NaN","","","","","","","","","","","","","","",""
"","S2","","html-keyboard-response","30","92238","0.0-1.0-40.0","0","0","34103","","null","","","null","4","","NaN","","","","","","","","","","","","","",""
"","response","","html-keyboard-response","31","92520","0.0-1.0-41.0","0","0","34103","","281","","","68","4","","","1","4","training","adjacent","DE","4","5","M.jpg","R.jpg","0","1","0","",""
"","feedback","","html-keyboard-response","32","93538","0.0-1.0-42.0-0.0","0","0","34103","","null","","","null","4","","","","","","","","","","","","","","","",""
"","time_out","","html-keyboard-response","33","95546","0.0-1.0-44.0-0.0","0","0","34103","","null","","","null","4","","","","","","","","","","","","","","","",""
"","ITI","","html-keyboard-response","34","96552","0.0-1.0-45.0","0","0","34103","","null","","","null","4","","","","","","","","","","","","","","","NaN",""
"","S1","","html-keyboard-response","35","96819","0.0-1.0-47.0","0","0","34103","","null","","","null","5","","","","","","","","","","","","","","","",""
"","ISI","","html-keyboard-response","36","98836","0.0-1.0-48.0","0","0","34103","","null","","","null","5","NaN","","","","","","","","","","","","","","",""
"","S2","","html-keyboard-response","37","99101","0.0-1.0-49.0","0","0","34103","","null","","","null","5","","NaN","","","","","","","","","","","","","",""
"","response","","html-keyboard-response","38","99555","0.0-1.0-50.0","0","0","34103","","453","","","68","5","","","1","5","training","adjacent","FG","6","7","Q.jpg","L.jpg","0","1","0","",""
"","feedback","","html-keyboard-response","39","100560","0.0-1.0-51.0-0.0","0","0","34103","","null","","","null","5","","","","","","","","","","","","","","","",""
"","time_out","","html-keyboard-response","40","102576","0.0-1.0-53.0-0.0","0","0","34103","","null","","","null","5","","","","","","","","","","","","","","","",""
"","ITI","","html-keyboard-response","41","103587","0.0-1.0-54.0","0","0","34103","","null","","","null","5","","","","","","","","","","","","","","","NaN",""
"","S1","","html-keyboard-response","42","103854","0.0-1.0-56.0","0","0","34103","","null","","","null","6","","","","","","","","","","","","","","","",""
"","ISI","","html-keyboard-response","43","105861","0.0-1.0-57.0","0","0","34103","","null","","","null","6","NaN","","","","","","","","","","","","","","",""
"","S2","","html-keyboard-response","44","106125","0.0-1.0-58.0","0","0","34103","","null","","","null","6","","NaN","","","","","","","","","","","","","",""
"","response","","html-keyboard-response","45","106454","0.0-1.0-59.0","0","0","34103","","325","","","75","6","","","1","6","training","adjacent","CD","3","4","O.jpg","M.jpg","1","1","1","",""
"","feedback","","html-keyboard-response","46","107456","0.0-1.0-60.0-0.0","0","0","34103","","null","","","null","6","","","","","","","","","","","","","","","",""
"","ITI","","html-keyboard-response","47","108463","0.0-1.0-63.0","0","0","34103","","null","","","null","6","","","","","","","","","","","","","","","NaN",""
"","S1","","html-keyboard-response","48","108725","0.0-1.0-65.0","0","0","34103","","null","","","null","7","","","","","","","","","","","","","","","",""
"","ISI","","html-keyboard-response","49","110734","0.0-1.0-66.0","0","0","34103","","null","","","null","7","NaN","","","","","","","","","","","","","","",""
"","S2","","html-keyboard-response","50","110998","0.0-1.0-67.0","0","0","34103","","null","","","null","7","","NaN","","","","","","","","","","","","","",""
"","response","","html-keyboard-response","51","111357","0.0-1.0-68.0","0","0","34103","","359","","","68","7","","","1","7","training","adjacent","FE","6","5","Q.jpg","R.jpg","0","0","1","",""
"","feedback","","html-keyboard-response","52","112366","0.0-1.0-69.0-0.0","0","0","34103","","null","","","null","7","","","","","","","","","","","","","","","",""
"","ITI","","html-keyboard-response","53","113372","0.0-1.0-72.0","0","0","34103","","null","","","null","7","","","","","","","","","","","","","","","NaN",""
"","S1","","html-keyboard-response","54","113629","0.0-1.0-74.0","0","0","34103","","null","","","null","8","","","","","","","","","","","","","","","",""
"","ISI","","html-keyboard-response","55","115643","0.0-1.0-75.0","0","0","34103","","null","","","null","8","NaN","","","","","","","","","","","","","","",""
"","S2","","html-keyboard-response","56","115906","0.0-1.0-76.0","0","0","34103","","null","","","null","8","","NaN","","","","","","","","","","","","","",""
"","response","","html-keyboard-response","57","116299","0.0-1.0-77.0","0","0","34103","","391","","","68","8","","","1","8","training","adjacent","BC","2","3","P.jpg","O.jpg","0","1","0","",""
"","feedback","","html-keyboard-response","58","117306","0.0-1.0-78.0-0.0","0","0","34103","","null","","","null","8","","","","","","","","","","","","","","","",""
"","time_out","","html-keyboard-response","59","119315","0.0-1.0-80.0-0.0","0","0","34103","","null","","","null","8","","","","","","","","","","","","","","","",""
"","ITI","","html-keyboard-response","60","120318","0.0-1.0-81.0","0","0","34103","","null","","","null","8","","","","","","","","","","","","","","","NaN",""
"","S1","","html-keyboard-response","61","120584","0.0-1.0-83.0","0","0","34103","","null","","","null","9","","","","","","","","","","","","","","","",""
"","ISI","","html-keyboard-response","62","122592","0.0-1.0-84.0","0","0","34103","","null","","","null","9","NaN","","","","","","","","","","","","","","",""
"","S2","","html-keyboard-response","63","122855","0.0-1.0-85.0","0","0","34103","","null","","","null","9","","NaN","","","","","","","","","","","","","",""
"","response","","html-keyboard-response","64","123262","0.0-1.0-86.0","0","0","34103","","403","","","75","9","","","1","9","training","adjacent","ED","5","4","R.jpg","M.jpg","1","0","0","",""
"","feedback","","html-keyboard-response","65","124268","0.0-1.0-87.0-0.0","0","0","34103","","null","","","null","9","","","","","","","","","","","","","","","",""
"","time_out","","html-keyboard-response","66","126275","0.0-1.0-89.0-0.0","0","0","34103","","null","","","null","9","","","","","","","","","","","","","","","",""
"","ITI","","html-keyboard-response","67","127288","0.0-1.0-90.0","0","0","34103","","null","","","null","9","","","","","","","","","","","","","","","NaN",""
"","S1","","html-keyboard-response","68","127551","0.0-1.0-92.0","0","0","34103","","null","","","null","10","","","","","","","","","","","","","","","",""
"","ISI","","html-keyboard-response","69","129555","0.0-1.0-93.0","0","0","34103","","null","","","null","10","NaN","","","","","","","","","","","","","","",""
"","S2","","html-keyboard-response","70","129818","0.0-1.0-94.0","0","0","34103","","null","","","null","10","","NaN","","","","","","","","","","","","","",""
"","response","","html-keyboard-response","71","130142","0.0-1.0-95.0","0","0","34103","","321","","","75","10","","","1","10","training","adjacent","BC","2","3","P.jpg","O.jpg","1","1","1","",""
"","feedback","","html-keyboard-response","72","131146","0.0-1.0-96.0-0.0","0","0","34103","","null","","","null","10","","","","","","","","","","","","","","","",""
"","ITI","","html-keyboard-response","73","132157","0.0-1.0-99.0","0","0","34103","","null","","","null","10","","","","","","","","","","","","","","","NaN",""
"","S1","","html-keyboard-response","74","132419","0.0-1.0-101.0","0","0","34103","","null","","","null","11","","","","","","","","","","","","","","","",""
"","ISI","","html-keyboard-response","75","134437","0.0-1.0-102.0","0","0","34103","","null","","","null","11","NaN","","","","","","","","","","","","","","",""
"","S2","","html-keyboard-response","76","134703","0.0-1.0-103.0","0","0","34103","","null","","","null","11","","NaN","","","","","","","","","","","","","",""
"","response","","html-keyboard-response","77","134801","0.0-1.0-104.0","0","0","34103","","96","","","75","11","","","1","11","training","adjacent","AB","1","2","N.jpg","P.jpg","1","1","1","",""
"","feedback","","html-keyboard-response","78","135817","0.0-1.0-105.0-0.0","0","0","34103","","null","","","null","11","","","","","","","","","","","","","","","",""
"","ITI","","html-keyboard-response","79","136832","0.0-1.0-108.0","0","0","34103","","null","","","null","11","","","","","","","","","","","","","","","NaN",""
"","S1","","html-keyboard-response","80","137095","0.0-1.0-110.0","0","0","34103","","null","","","null","12","","","","","","","","","","","","","","","",""
"","ISI","","html-keyboard-response","81","139103","0.0-1.0-111.0","0","0","34103","","null","","","null","12","NaN","","","","","","","","","","","","","","",""
"","S2","","html-keyboard-response","82","139367","0.0-1.0-112.0","0","0","34103","","null","","","null","12","","NaN","","","","","","","","","","","","","",""
"","response","","html-keyboard-response","83","139660","0.0-1.0-113.0","0","0","34103","","292","","","75","12","","","1","12","training","adjacent","EF","5","6","R.jpg","Q.jpg","1","1","1","",""
"","feedback","","html-keyboard-response","84","140673","0.0-1.0-114.0-0.0","0","0","34103","","null","","","null","12","","","","","","","","","","","","","","","",""
"","ITI","","html-keyboard-response","85","141684","0.0-1.0-117.0","0","0","34103","","null","","","null","12","","","","","","","","","","","","","","","NaN",""
"","S1","","html-keyboard-response","86","141947","0.0-1.0-119.0","0","0","34103","","null","","","null","13","","","","","","","","","","","","","","","",""
"","ISI","","html-keyboard-response","87","143958","0.0-1.0-120.0","0","0","34103","","null","","","null","13","NaN","","","","","","","","","","","","","","",""
"","S2","","html-keyboard-response","88","144224","0.0-1.0-121.0","0","0","34103","","null","","","null","13","","NaN","","","","","","","","","","","","","",""
"","response","","html-keyboard-response","89","144504","0.0-1.0-122.0","0","0","34103","","278","","","75","13","","","1","13","training","adjacent","BA","2","1","P.jpg","N.jpg","1","0","0","",""
"","feedback","","html-keyboard-response","90","145518","0.0-1.0-123.0-0.0","0","0","34103","","null","","","null","13","","","","","","","","","","","","","","","",""
"","time_out","","html-keyboard-response","91","147534","0.0-1.0-125.0-0.0","0","0","34103","","null","","","null","13","","","","","","","","","","","","","","","",""
"","ITI","","html-keyboard-response","92","148548","0.0-1.0-126.0","0","0","34103","","null","","","null","13","","","","","","","","","","","","","","","NaN",""
"","S1","","html-keyboard-response","93","148811","0.0-1.0-128.0","0","0","34103","","null","","","null","14","","","","","","","","","","","","","","","",""
"","ISI","","html-keyboard-response","94","150828","0.0-1.0-129.0","0","0","34103","","null","","","null","14","NaN","","","","","","","","","","","","","","",""
"","S2","","html-keyboard-response","95","151092","0.0-1.0-130.0","0","0","34103","","null","","","null","14","","NaN","","","","","","","","","","","","","",""
"","response","","html-keyboard-response","96","151424","0.0-1.0-131.0","0","0","34103","","330","","","75","14","","","1","14","training","adjacent","BC","2","3","P.jpg","O.jpg","1","1","1","",""
"","feedback","","html-keyboard-response","97","152427","0.0-1.0-132.0-0.0","0","0","34103","","null","","","null","14","","","","","","","","","","","","","","","",""
"","ITI","","html-keyboard-response","98","153442","0.0-1.0-135.0","0","0","34103","","null","","","null","14","","","","","","","","","","","","","","","NaN",""
"","S1","","html-keyboard-response","99","153703","0.0-1.0-137.0","0","0","34103","","null","","","null","15","","","","","","","","","","","","","","","",""
"","ISI","","html-keyboard-response","100","155717","0.0-1.0-138.0","0","0","34103","","null","","","null","15","NaN","","","","","","","","","","","","","","",""
"","S2","","html-keyboard-response","101","155982","0.0-1.0-139.0","0","0","34103","","null","","","null","15","","NaN","","","","","","","","","","","","","",""
"","response","","html-keyboard-response","102","156286","0.0-1.0-140.0","0","0","34103","","302","","","75","15","","","1","15","training","adjacent","CB","3","2","O.jpg","P.jpg","1","0","0","",""
"","feedback","","html-keyboard-response","103","157294","0.0-1.0-141.0-0.0","0","0","34103","","null","","","null","15","","","","","","","","","","","","","","","",""
"","time_out","","html-keyboard-response","104","159310","0.0-1.0-143.0-0.0","0","0","34103","","null","","","null","15","","","","","","","","","","","","","","","",""
"","ITI","","html-keyboard-response","105","160321","0.0-1.0-144.0","0","0","34103","","null","","","null","15","","","","","","","","","","","","","","","NaN",""
"","S1","","html-keyboard-response","106","160584","0.0-1.0-146.0","0","0","34103","","null","","","null","16","","","","","","","","","","","","","","","",""
"","ISI","","html-keyboard-response","107","162591","0.0-1.0-147.0","0","0","34103","","null","","","null","16","NaN","","","","","","","","","","","","","","",""
"","S2","","html-keyboard-response","108","162855","0.0-1.0-148.0","0","0","34103","","null","","","null","16","","NaN","","","","","","","","","","","","","",""
"","response","","html-keyboard-response","109","163118","0.0-1.0-149.0","0","0","34103","","259","","","75","16","","","1","16","training","adjacent","EF","5","6","R.jpg","Q.jpg","1","1","1","",""
"","feedback","","html-keyboard-response","110","164129","0.0-1.0-150.0-0.0","0","0","34103","","null","","","null","16","","","","","","","","","","","","","","","",""
"","ITI","","html-keyboard-response","111","165144","0.0-1.0-153.0","0","0","34103","","null","","","null","16","","","","","","","","","","","","","","","NaN",""
"","S1","","html-keyboard-response","112","165406","0.0-1.0-155.0","0","0","34103","","null","","","null","17","","","","","","","","","","","","","","","",""
"","ISI","","html-keyboard-response","113","167413","0.0-1.0-156.0","0","0","34103","","null","","","null","17","NaN","","","","","","","","","","","","","","",""
"","S2","","html-keyboard-response","114","167681","0.0-1.0-157.0","0","0","34103","","null","","","null","17","","NaN","","","","","","","","","","","","","",""
"","response","","html-keyboard-response","115","167987","0.0-1.0-158.0","0","0","34103","","305","","","75","17","","","1","17","training","adjacent","FG","6","7","Q.jpg","L.jpg","1","1","1","",""
"","feedback","","html-keyboard-response","116","168996","0.0-1.0-159.0-0.0","0","0","34103","","null","","","null","17","","","","","","","","","","","","","","","",""
"","ITI","","html-keyboard-response","117","170004","0.0-1.0-162.0","0","0","34103","","null","","","null","17","","","","","","","","","","","","","","","NaN",""
"","S1","","html-keyboard-response","118","170272","0.0-1.0-164.0","0","0","34103","","null","","","null","18","","","","","","","","","","","","","","","",""
"","ISI","","html-keyboard-response","119","172282","0.0-1.0-165.0","0","0","34103","","null","","","null","18","NaN","","","","","","","","","","","","","","",""
"","S2","","html-keyboard-response","120","172547","0.0-1.0-166.0","0","0","34103","","null","","","null","18","","NaN","","","","","","","","","","","","","",""
"","response","","html-keyboard-response","121","173028","0.0-1.0-167.0","0","0","34103","","479","","","68","18","","","1","18","training","adjacent","CB","3","2","O.jpg","P.jpg","0","0","1","",""
"","feedback","","html-keyboard-response","122","174046","0.0-1.0-168.0-0.0","0","0","34103","","null","","","null","18","","","","","","","","","","","","","","","",""
"","ITI","","html-keyboard-response","123","175057","0.0-1.0-171.0","0","0","34103","","null","","","null","18","","","","","","","","","","","","","","","NaN",""
"","S1","","html-keyboard-response","124","175324","0.0-1.0-173.0","0","0","34103","","null","","","null","19","","","","","","","","","","","","","","","",""
"","ISI","","html-keyboard-response","125","177326","0.0-1.0-174.0","0","0","34103","","null","","","null","19","NaN","","","","","","","","","","","","","","",""
"","S2","","html-keyboard-response","126","177579","0.0-1.0-175.0","0","0","34103","","null","","","null","19","","NaN","","","","","","","","","","","","","",""
"","response","","html-keyboard-response","127","177949","0.0-1.0-176.0","0","0","34103","","368","","","68","19","","","1","19","training","adjacent","DE","4","5","M.jpg","R.jpg","0","1","0","",""
"","feedback","","html-keyboard-response","128","178966","0.0-1.0-177.0-0.0","0","0","34103","","null","","","null","19","","","","","","","","","","","","","","","",""
"","time_out","","html-keyboard-response","129","180969","0.0-1.0-179.0-0.0","0","0","34103","","null","","","null","19","","","","","","","","","","","","","","","",""
"","ITI","","html-keyboard-response","130","181972","0.0-1.0-180.0","0","0","34103","","null","","","null","19","","","","","","","","","","","","","","","NaN",""
"","S1","","html-keyboard-response","131","182233","0.0-1.0-182.0","0","0","34103","","null","","","null","20","","","","","","","","","","","","","","","",""
"","ISI","","html-keyboard-response","132","184240","0.0-1.0-183.0","0","0","34103","","null","","","null","20","NaN","","","","","","","","","","","","","","",""
"","S2","","html-keyboard-response","133","184507","0.0-1.0-184.0","0","0","34103","","null","","","null","20","","NaN","","","","","","","","","","","","","",""
"","response","","html-keyboard-response","134","184800","0.0-1.0-185.0","0","0","34103","","291","","","75","20","","","1","20","training","adjacent","FE","6","5","Q.jpg","R.jpg","1","0","0","",""
"","feedback","","html-keyboard-response","135","185815","0.0-1.0-186.0-0.0","0","0","34103","","null","","","null","20","","","","","","","","","","","","","","","",""
"","time_out","","html-keyboard-response","136","187825","0.0-1.0-188.0-0.0","0","0","34103","","null","","","null","20","","","","","","","","","","","","","","","",""
"","ITI","","html-keyboard-response","137","188843","0.0-1.0-189.0","0","0","34103","","null","","","null","20","","","","","","","","","","","","","","","NaN",""
"","S1","","html-keyboard-response","138","189106","0.0-1.0-191.0","0","0","34103","","null","","","null","21","","","","","","","","","","","","","","","",""
"","ISI","","html-keyboard-response","139","191118","0.0-1.0-192.0","0","0","34103","","null","","","null","21","NaN","","","","","","","","","","","","","","",""
"","S2","","html-keyboard-response","140","191373","0.0-1.0-193.0","0","0","34103","","null","","","null","21","","NaN","","","","","","","","","","","","","",""
"","response","","html-keyboard-response","141","191752","0.0-1.0-194.0","0","0","34103","","378","","","75","21","","","1","21","training","adjacent","ED","5","4","R.jpg","M.jpg","1","0","0","",""
"","feedback","","html-keyboard-response","142","192760","0.0-1.0-195.0-0.0","0","0","34103","","null","","","null","21","","","","","","","","","","","","","","","",""
"","time_out","","html-keyboard-response","143","194763","0.0-1.0-197.0-0.0","0","0","34103","","null","","","null","21","","","","","","","","","","","","","","","",""
"","ITI","","html-keyboard-response","144","195774","0.0-1.0-198.0","0","0","34103","","null","","","null","21","","","","","","","","","","","","","","","NaN",""
"","S1","","html-keyboard-response","145","196039","0.0-1.0-200.0","0","0","34103","","null","","","null","22","","","","","","","","","","","","","","","",""
"","ISI","","html-keyboard-response","146","198041","0.0-1.0-201.0","0","0","34103","","null","","","null","22","NaN","","","","","","","","","","","","","","",""
"","S2","","html-keyboard-response","147","198305","0.0-1.0-202.0","0","0","34103","","null","","","null","22","","NaN","","","","","","","","","","","","","",""
"","response","","html-keyboard-response","148","198636","0.0-1.0-203.0","0","0","34103","","330","","","68","22","","","1","22","training","adjacent","FE","6","5","Q.jpg","R.jpg","0","0","1","",""
"","feedback","","html-keyboard-response","149","199642","0.0-1.0-204.0-0.0","0","0","34103","","null","","","null","22","","","","","","","","","","","","","","","",""
"","ITI","","html-keyboard-response","150","200649","0.0-1.0-207.0","0","0","34103","","null","","","null","22","","","","","","","","","","","","","","","NaN",""
"","S1","","html-keyboard-response","151","200902","0.0-1.0-209.0","0","0","34103","","null","","","null","23","","","","","","","","","","","","","","","",""
"","ISI","","html-keyboard-response","152","202913","0.0-1.0-210.0","0","0","34103","","null","","","null","23","NaN","","","","","","","","","","","","","","",""
"","S2","","html-keyboard-response","153","203167","0.0-1.0-211.0","0","0","34103","","null","","","null","23","","NaN","","","","","","","","","","","","","",""
"","response","","html-keyboard-response","154","203466","0.0-1.0-212.0","0","0","34103","","298","","","75","23","","","1","23","training","adjacent","GF","7","6","L.jpg","Q.jpg","1","0","0","",""
"","feedback","","html-keyboard-response","155","204478","0.0-1.0-213.0-0.0","0","0","34103","","null","","","null","23","","","","","","","","","","","","","","","",""
"","time_out","","html-keyboard-response","156","206484","0.0-1.0-215.0-0.0","0","0","34103","","null","","","null","23","","","","","","","","","","","","","","","",""
"","ITI","","html-keyboard-response","157","207498","0.0-1.0-216.0","0","0","34103","","null","","","null","23","","","","","","","","","","","","","","","NaN",""
"","S1","","html-keyboard-response","158","207762","0.0-1.0-218.0","0","0","34103","","null","","","null","24","","","","","","","","","","","","","","","",""
"","ISI","","html-keyboard-response","159","209770","0.0-1.0-219.0","0","0","34103","","null","","","null","24","NaN","","","","","","","","","","","","","","",""
"","S2","","html-keyboard-response","160","210036","0.0-1.0-220.0","0","0","34103","","null","","","null","24","","NaN","","","","","","","","","","","","","",""
"","response","","html-keyboard-response","161","210361","0.0-1.0-221.0","0","0","34103","","324","","","68","24","","","1","24","training","adjacent","AB","1","2","N.jpg","P.jpg","0","1","0","",""
"","feedback","","html-keyboard-response","162","211378","0.0-1.0-222.0-0.0","0","0","34103","","null","","","null","24","","","","","","","","","","","","","","","",""
"","time_out","","html-keyboard-response","163","213382","0.0-1.0-224.0-0.0","0","0","34103","","null","","","null","24","","","","","","","","","","","","","","","",""
"","ITI","","html-keyboard-response","164","214390","0.0-1.0-225.0","0","0","34103","","null","","","null","24","","","","","","","","","","","","","","","NaN",""
"","S1","","html-keyboard-response","165","214655","0.0-1.0-227.0","0","0","34103","","null","","","null","25","","","","","","","","","","","","","","","",""
"","ISI","","html-keyboard-response","166","216669","0.0-1.0-228.0","0","0","34103","","null","","","null","25","NaN","","","","","","","","","","","","","","",""
"","S2","","html-keyboard-response","167","216934","0.0-1.0-229.0","0","0","34103","","null","","","null","25","","NaN","","","","","","","","","","","","","",""
"","response","","html-keyboard-response","168","217005","0.0-1.0-230.0","0","0","34103","","70","","","75","25","","","1","25","training","adjacent","AB","1","2","N.jpg","P.jpg","1","1","1","",""
"","feedback","","html-keyboard-response","169","218007","0.0-1.0-231.0-0.0","0","0","34103","","null","","","null","25","","","","","","","","","","","","","","","",""
"","ITI","","html-keyboard-response","170","219012","0.0-1.0-234.0","0","0","34103","","null","","","null","25","","","","","","","","","","","","","","","NaN",""
"","S1","","html-keyboard-response","171","219276","0.0-1.0-236.0","0","0","34103","","null","","","null","26","","","","","","","","","","","","","","","",""
"","ISI","","html-keyboard-response","172","221283","0.0-1.0-237.0","0","0","34103","","null","","","null","26","NaN","","","","","","","","","","","","","","",""
"","S2","","html-keyboard-response","173","221549","0.0-1.0-238.0","0","0","34103","","null","","","null","26","","NaN","","","","","","","","","","","","","",""
"","response","","html-keyboard-response","174","222033","0.0-1.0-239.0","0","0","34103","","481","","","75","26","","","1","26","training","adjacent","GF","7","6","L.jpg","Q.jpg","1","0","0","",""
"","feedback","","html-keyboard-response","175","223042","0.0-1.0-240.0-0.0","0","0","34103","","null","","","null","26","","","","","","","","","","","","","","","",""
"","time_out","","html-keyboard-response","176","225059","0.0-1.0-242.0-0.0","0","0","34103","","null","","","null","26","","","","","","","","","","","","","","","",""
"","ITI","","html-keyboard-response","177","226070","0.0-1.0-243.0","0","0","34103","","null","","","null","26","","","","","","","","","","","","","","","NaN",""
"","S1","","html-keyboard-response","178","226335","0.0-1.0-245.0","0","0","34103","","null","","","null","27","","","","","","","","","","","","","","","",""
"","ISI","","html-keyboard-response","179","228352","0.0-1.0-246.0","0","0","34103","","null","","","null","27","NaN","","","","","","","","","","","","","","",""
"","S2","","html-keyboard-response","180","228616","0.0-1.0-247.0","0","0","34103","","null","","","null","27","","NaN","","","","","","","","","","","","","",""
"","response","","html-keyboard-response","181","229057","0.0-1.0-248.0","0","0","34103","","440","","","75","27","","","1","27","training","adjacent","CD","3","4","O.jpg","M.jpg","1","1","1","",""
"","feedback","","html-keyboard-response","182","230071","0.0-1.0-249.0-0.0","0","0","34103","","null","","","null","27","","","","","","","","","","","","","","","",""
"","ITI","","html-keyboard-response","183","231084","0.0-1.0-252.0","0","0","34103","","null","","","null","27","","","","","","","","","","","","","","","NaN",""
"","S1","","html-keyboard-response","184","231348","0.0-1.0-254.0","0","0","34103","","null","","","null","28","","","","","","","","","","","","","","","",""
"","ISI","","html-keyboard-response","185","233357","0.0-1.0-255.0","0","0","34103","","null","","","null","28","NaN","","","","","","","","","","","","","","",""
"","S2","","html-keyboard-response","186","233613","0.0-1.0-256.0","0","0","34103","","null","","","null","28","","NaN","","","","","","","","","","","","","",""
"","response","","html-keyboard-response","187","234025","0.0-1.0-257.0","0","0","34103","","411","","","68","28","","","1","28","training","adjacent","BC","2","3","P.jpg","O.jpg","0","1","0","",""
"","feedback","","html-keyboard-response","188","235040","0.0-1.0-258.0-0.0","0","0","34103","","null","","","null","28","","","","","","","","","","","","","","","",""
"","time_out","","html-keyboard-response","189","237056","0.0-1.0-260.0-0.0","0","0","34103","","null","","","null","28","","","","","","","","","","","","","","","",""
"","ITI","","html-keyboard-response","190","238065","0.0-1.0-261.0","0","0","34103","","null","","","null","28","","","","","","","","","","","","","","","NaN",""
"","S1","","html-keyboard-response","191","238327","0.0-1.0-263.0","0","0","34103","","null","","","null","29","","","","","","","","","","","","","","","",""
"","ISI","","html-keyboard-response","192","240339","0.0-1.0-264.0","0","0","34103","","null","","","null","29","NaN","","","","","","","","","","","","","","",""
"","S2","","html-keyboard-response","193","240603","0.0-1.0-265.0","0","0","34103","","null","","","null","29","","NaN","","","","","","","","","","","","","",""
"","response","","html-keyboard-response","194","240956","0.0-1.0-266.0","0","0","34103","","351","","","68","29","","","1","29","training","adjacent","ED","5","4","R.jpg","M.jpg","0","0","1","",""
"","feedback","","html-keyboard-response","195","241969","0.0-1.0-267.0-0.0","0","0","34103","","null","","","null","29","","","","","","","","","","","","","","","",""
"","ITI","","html-keyboard-response","196","242971","0.0-1.0-270.0","0","0","34103","","null","","","null","29","","","","","","","","","","","","","","","NaN",""
"","S1","","html-keyboard-response","197","243234","0.0-1.0-272.0","0","0","34103","","null","","","null","30","","","","","","","","","","","","","","","",""
"","ISI","","html-keyboard-response","198","245242","0.0-1.0-273.0","0","0","34103","","null","","","null","30","NaN","","","","","","","","","","","","","","",""
"","S2","","html-keyboard-response","199","245498","0.0-1.0-274.0","0","0","34103","","null","","","null","30","","NaN","","","","","","","","","","","","","",""
"","response","","html-keyboard-response","200","245826","0.0-1.0-275.0","0","0","34103","","327","","","75","30","","","1","30","training","adjacent","BA","2","1","P.jpg","N.jpg","1","0","0","",""
"","feedback","","html-keyboard-response","201","246840","0.0-1.0-276.0-0.0","0","0","34103","","null","","","null","30","","","","","","","","","","","","","","","",""
"","time_out","","html-keyboard-response","202","248856","0.0-1.0-278.0-0.0","0","0","34103","","null","","","null","30","","","","","","","","","","","","","","","",""
"","ITI","","html-keyboard-response","203","249865","0.0-1.0-279.0","0","0","34103","","null","","","null","30","","","","","","","","","","","","","","","NaN",""
"","S1","","html-keyboard-response","204","250130","0.0-1.0-281.0","0","0","34103","","null","","","null","31","","","","","","","","","","","","","","","",""
"","ISI","","html-keyboard-response","205","252138","0.0-1.0-282.0","0","0","34103","","null","","","null","31","NaN","","","","","","","","","","","","","","",""
"","S2","","html-keyboard-response","206","252401","0.0-1.0-283.0","0","0","34103","","null","","","null","31","","NaN","","","","","","","","","","","","","",""
"","response","","html-keyboard-response","207","252707","0.0-1.0-284.0","0","0","34103","","303","","","75","31","","","1","31","training","adjacent","DC","4","3","M.jpg","O.jpg","1","0","0","",""
"","feedback","","html-keyboard-response","208","253723","0.0-1.0-285.0-0.0","0","0","34103","","null","","","null","31","","","","","","","","","","","","","","","",""
"","time_out","","html-keyboard-response","209","255734","0.0-1.0-287.0-0.0","0","0","34103","","null","","","null","31","","","","","","","","","","","","","","","",""
"","ITI","","html-keyboard-response","210","256743","0.0-1.0-288.0","0","0","34103","","null","","","null","31","","","","","","","","","","","","","","","NaN",""
"","S1","","html-keyboard-response","211","257006","0.0-1.0-290.0","0","0","34103","","null","","","null","32","","","","","","","","","","","","","","","",""
"","ISI","","html-keyboard-response","212","259021","0.0-1.0-291.0","0","0","34103","","null","","","null","32","NaN","","","","","","","","","","","","","","",""
"","S2","","html-keyboard-response","213","259286","0.0-1.0-292.0","0","0","34103","","null","","","null","32","","NaN","","","","","","","","","","","","","",""
"","response","","html-keyboard-response","214","259544","0.0-1.0-293.0","0","0","34103","","257","","","75","32","","","1","32","training","adjacent","DC","4","3","M.jpg","O.jpg","1","0","0","",""
"","feedback","","html-keyboard-response","215","260549","0.0-1.0-294.0-0.0","0","0","34103","","null","","","null","32","","","","","","","","","","","","","","","",""
"","time_out","","html-keyboard-response","216","262565","0.0-1.0-296.0-0.0","0","0","34103","","null","","","null","32","","","","","","","","","","","","","","","",""
"","ITI","","html-keyboard-response","217","263570","0.0-1.0-297.0","0","0","34103","","null","","","null","32","","","","","","","","","","","","","","","NaN",""
"","S1","","html-keyboard-response","218","263822","0.0-1.0-299.0","0","0","34103","","null","","","null","33","","","","","","","","","","","","","","","",""
"","ISI","","html-keyboard-response","219","265830","0.0-1.0-300.0","0","0","34103","","null","","","null","33","NaN","","","","","","","","","","","","","","",""
"","S2","","html-keyboard-response","220","266093","0.0-1.0-301.0","0","0","34103","","null","","","null","33","","NaN","","","","","","","","","","","","","",""
"","response","","html-keyboard-response","221","266397","0.0-1.0-302.0","0","0","34103","","303","","","75","33","","","1","33","training","adjacent","CB","3","2","O.jpg","P.jpg","1","0","0","",""
"","feedback","","html-keyboard-response","222","267400","0.0-1.0-303.0-0.0","0","0","34103","","null","","","null","33","","","","","","","","","","","","","","","",""
"","time_out","","html-keyboard-response","223","269411","0.0-1.0-305.0-0.0","0","0","34103","","null","","","null","33","","","","","","","","","","","","","","","",""
"","ITI","","html-keyboard-response","224","270414","0.0-1.0-306.0","0","0","34103","","null","","","null","33","","","","","","","","","","","","","","","NaN",""
"","S1","","html-keyboard-response","225","270677","0.0-1.0-308.0","0","0","34103","","null","","","null","34","","","","","","","","","","","","","","","",""
"","ISI","","html-keyboard-response","226","272693","0.0-1.0-309.0","0","0","34103","","null","","","null","34","NaN","","","","","","","","","","","","","","",""
"","S2","","html-keyboard-response","227","272946","0.0-1.0-310.0","0","0","34103","","null","","","null","34","","NaN","","","","","","","","","","","","","",""
"","response","","html-keyboard-response","228","273034","0.0-1.0-311.0","0","0","34103","","86","","","68","34","","","1","34","training","adjacent","BA","2","1","P.jpg","N.jpg","0","0","1","",""
"","feedback","","html-keyboard-response","229","274040","0.0-1.0-312.0-0.0","0","0","34103","","null","","","null","34","","","","","","","","","","","","","","","",""
"","ITI","","html-keyboard-response","230","275047","0.0-1.0-315.0","0","0","34103","","null","","","null","34","","","","","","","","","","","","","","","NaN",""
"","S1","","html-keyboard-response","231","275312","0.0-1.0-317.0","0","0","34103","","null","","","null","35","","","","","","","","","","","","","","","",""
"","ISI","","html-keyboard-response","232","277324","0.0-1.0-318.0","0","0","34103","","null","","","null","35","NaN","","","","","","","","","","","","","","",""
"","S2","","html-keyboard-response","233","277578","0.0-1.0-319.0","0","0","34103","","null","","","null","35","","NaN","","","","","","","","","","","","","",""
"","response","","html-keyboard-response","234","277870","0.0-1.0-320.0","0","0","34103","","289","","","68","35","","","1","35","training","adjacent","GF","7","6","L.jpg","Q.jpg","0","0","1","",""
"","feedback","","html-keyboard-response","235","278873","0.0-1.0-321.0-0.0","0","0","34103","","null","","","null","35","","","","","","","","","","","","","","","",""
"","ITI","","html-keyboard-response","236","279883","0.0-1.0-324.0","0","0","34103","","null","","","null","35","","","","","","","","","","","","","","","NaN",""
"","S1","","html-keyboard-response","237","280147","0.0-1.0-326.0","0","0","34103","","null","","","null","36","","","","","","","","","","","","","","","",""
"","ISI","","html-keyboard-response","238","282150","0.0-1.0-327.0","0","0","34103","","null","","","null","36","NaN","","","","","","","","","","","","","","",""
"","S2","","html-keyboard-response","239","282416","0.0-1.0-328.0","0","0","34103","","null","","","null","36","","NaN","","","","","","","","","","","","","",""
"","response","","html-keyboard-response","240","282705","0.0-1.0-329.0","0","0","34103","","288","","","75","36","","","1","36","training","adjacent","CB","3","2","O.jpg","P.jpg","1","0","0","",""
"","feedback","","html-keyboard-response","241","283715","0.0-1.0-330.0-0.0","0","0","34103","","null","","","null","36","","","","","","","","","","","","","","","",""
"","time_out","","html-keyboard-response","242","285731","0.0-1.0-332.0-0.0","0","0","34103","","null","","","null","36","","","","","","","","","","","","","","","",""
"","ITI","","html-keyboard-response","243","286744","0.0-1.0-333.0","0","0","34103","","null","","","null","36","","","","","","","","","","","","","","","NaN",""
"","S1","","html-keyboard-response","244","287007","0.0-1.0-335.0","0","0","34103","","null","","","null","37","","","","","","","","","","","","","","","",""
"","ISI","","html-keyboard-response","245","289011","0.0-1.0-336.0","0","0","34103","","null","","","null","37","NaN","","","","","","","","","","","","","","",""
"","S2","","html-keyboard-response","246","289264","0.0-1.0-337.0","0","0","34103","","null","","","null","37","","NaN","","","","","","","","","","","","","",""
"","response","","html-keyboard-response","247","289524","0.0-1.0-338.0","0","0","34103","","258","","","75","37","","","1","37","training","adjacent","DE","4","5","M.jpg","R.jpg","1","1","1","",""
"","feedback","","html-keyboard-response","248","290533","0.0-1.0-339.0-0.0","0","0","34103","","null","","","null","37","","","","","","","","","","","","","","","",""
"","ITI","","html-keyboard-response","249","291549","0.0-1.0-342.0","0","0","34103","","null","","","null","37","","","","","","","","","","","","","","","NaN",""
"","S1","","html-keyboard-response","250","291813","0.0-1.0-344.0","0","0","34103","","null","","","null","38","","","","","","","","","","","","","","","",""
"","ISI","","html-keyboard-response","251","293830","0.0-1.0-345.0","0","0","34103","","null","","","null","38","NaN","","","","","","","","","","","","","","",""
"","S2","","html-keyboard-response","252","294084","0.0-1.0-346.0","0","0","34103","","null","","","null","38","","NaN","","","","","","","","","","","","","",""
"","response","","html-keyboard-response","253","294383","0.0-1.0-347.0","0","0","34103","","296","","","75","38","","","1","38","training","adjacent","CD","3","4","O.jpg","M.jpg","1","1","1","",""
"","feedback","","html-keyboard-response","254","295389","0.0-1.0-348.0-0.0","0","0","34103","","null","","","null","38","","","","","","","","","","","","","","","",""
"","ITI","","html-keyboard-response","255","296402","0.0-1.0-351.0","0","0","34103","","null","","","null","38","","","","","","","","","","","","","","","NaN",""
"","S1","","html-keyboard-response","256","296656","0.0-1.0-353.0","0","0","34103","","null","","","null","39","","","","","","","","","","","","","","","",""
"","ISI","","html-keyboard-response","257","298671","0.0-1.0-354.0","0","0","34103","","null","","","null","39","NaN","","","","","","","","","","","","","","",""
"","S2","","html-keyboard-response","258","298934","0.0-1.0-355.0","0","0","34103","","null","","","null","39","","NaN","","","","","","","","","","","","","",""
"","response","","html-keyboard-response","259","299365","0.0-1.0-356.0","0","0","34103","","430","","","75","39","","","1","39","training","adjacent","FG","6","7","Q.jpg","L.jpg","1","1","1","",""
"","feedback","","html-keyboard-response","260","300374","0.0-1.0-357.0-0.0","0","0","34103","","null","","","null","39","","","","","","","","","","","","","","","",""
"","ITI","","html-keyboard-response","261","301379","0.0-1.0-360.0","0","0","34103","","null","","","null","39","","","","","","","","","","","","","","","NaN",""
"","block_over","","html-keyboard-response","262","307328","0.0-1.0-361.0-0.0","0","0","34103","","5946","","","32","39","","","","","","","","","","","","","","","",""
"","S1","","html-keyboard-response","263","307583","0.0-1.0-362.0","0","0","34103","","null","","","null","40","","","","","","","","","","","","","","","",""
"","ISI","","html-keyboard-response","264","309599","0.0-1.0-363.0","0","0","34103","","null","","","null","40","NaN","","","","","","","","","","","","","","",""
"","S2","","html-keyboard-response","265","309865","0.0-1.0-364.0","0","0","34103","","null","","","null","40","","NaN","","","","","","","","","","","","","",""
"","response","","html-keyboard-response","266","310169","0.0-1.0-365.0","0","0","34103","","302","","","75","40","","","2","40","training","adjacent","AB","1","2","N.jpg","P.jpg","1","1","1","",""
"","feedback","","html-keyboard-response","267","311184","0.0-1.0-366.0-0.0","0","0","34103","","null","","","null","40","","","","","","","","","","","","","","","",""
"","ITI","","html-keyboard-response","268","312197","0.0-1.0-369.0","0","0","34103","","null","","","null","40","","","","","","","","","","","","","","","NaN",""
"","S1","","html-keyboard-response","269","312464","0.0-1.0-371.0","0","0","34103","","null","","","null","41","","","","","","","","","","","","","","","",""
"","ISI","","html-keyboard-response","270","314477","0.0-1.0-372.0","0","0","34103","","null","","","null","41","NaN","","","","","","","","","","","","","","",""
"","S2","","html-keyboard-response","271","314734","0.0-1.0-373.0","0","0","34103","","null","","","null","41","","NaN","","","","","","","","","","","","","",""
"","response","","html-keyboard-response","272","315065","0.0-1.0-374.0","0","0","34103","","330","","","75","41","","","2","41","training","adjacent","CD","3","4","O.jpg","M.jpg","1","1","1","",""
"","feedback","","html-keyboard-response","273","316080","0.0-1.0-375.0-0.0","0","0","34103","","null","","","null","41","","","","","","","","","","","","","","","",""
"","ITI","","html-keyboard-response","274","317091","0.0-1.0-378.0","0","0","34103","","null","","","null","41","","","","","","","","","","","","","","","NaN",""
"","S1","","html-keyboard-response","275","317356","0.0-1.0-380.0","0","0","34103","","null","","","null","42","","","","","","","","","","","","","","","",""
"","ISI","","html-keyboard-response","276","319363","0.0-1.0-381.0","0","0","34103","","null","","","null","42","NaN","","","","","","","","","","","","","","",""
"","S2","","html-keyboard-response","277","319629","0.0-1.0-382.0","0","0","34103","","null","","","null","42","","NaN","","","","","","","","","","","","","",""
"","response","","html-keyboard-response","278","320157","0.0-1.0-383.0","0","0","34103","","526","","","75","42","","","2","42","training","adjacent","DC","4","3","M.jpg","O.jpg","1","0","0","",""
"","feedback","","html-keyboard-response","279","321164","0.0-1.0-384.0-0.0","0","0","34103","","null","","","null","42","","","","","","","","","","","","","","","",""
"","time_out","","html-keyboard-response","280","323174","0.0-1.0-386.0-0.0","0","0","34103","","null","","","null","42","","","","","","","","","","","","","","","",""
"","ITI","","html-keyboard-response","281","324187","0.0-1.0-387.0","0","0","34103","","null","","","null","42","","","","","","","","","","","","","","","NaN",""
"","S1","","html-keyboard-response","282","324450","0.0-1.0-389.0","0","0","34103","","null","","","null","43","","","","","","","","","","","","","","","",""
"","ISI","","html-keyboard-response","283","326466","0.0-1.0-390.0","0","0","34103","","null","","","null","43","NaN","","","","","","","","","","","","","","",""
"","S2","","html-keyboard-response","284","326731","0.0-1.0-391.0","0","0","34103","","null","","","null","43","","NaN","","","","","","","","","","","","","",""
"","response","","html-keyboard-response","285","326967","0.0-1.0-392.0","0","0","34103","","234","","","75","43","","","2","43","training","adjacent","CD","3","4","O.jpg","M.jpg","1","1","1","",""
"","feedback","","html-keyboard-response","286","327975","0.0-1.0-393.0-0.0","0","0","34103","","null","","","null","43","","","","","","","","","","","","","","","",""
"","ITI","","html-keyboard-response","287","328988","0.0-1.0-396.0","0","0","34103","","null","","","null","43","","","","","","","","","","","","","","","NaN",""
"","S1","","html-keyboard-response","288","329251","0.0-1.0-398.0","0","0","34103","","null","","","null","44","","","","","","","","","","","","","","","",""
"","ISI","","html-keyboard-response","289","331255","0.0-1.0-399.0","0","0","34103","","null","","","null","44","NaN","","","","","","","","","","","","","","",""
"","S2","","html-keyboard-response","290","331519","0.0-1.0-400.0","0","0","34103","","null","","","null","44","","NaN","","","","","","","","","","","","","",""
"","response","","html-keyboard-response","291","331974","0.0-1.0-401.0","0","0","34103","","453","","","68","44","","","2","44","training","adjacent","BC","2","3","P.jpg","O.jpg","0","1","0","",""
"","feedback","","html-keyboard-response","292","332978","0.0-1.0-402.0-0.0","0","0","34103","","null","","","null","44","","","","","","","","","","","","","","","",""
"","time_out","","html-keyboard-response","293","334986","0.0-1.0-404.0-0.0","0","0","34103","","null","","","null","44","","","","","","","","","","","","","","","",""
"","ITI","","html-keyboard-response","294","335990","0.0-1.0-405.0","0","0","34103","","null","","","null","44","","","","","","","","","","","","","","","NaN",""
"","S1","","html-keyboard-response","295","336256","0.0-1.0-407.0","0","0","34103","","null","","","null","45","","","","","","","","","","","","","","","",""
"","ISI","","html-keyboard-response","296","338270","0.0-1.0-408.0","0","0","34103","","null","","","null","45","NaN","","","","","","","","","","","","","","",""
"","S2","","html-keyboard-response","297","338535","0.0-1.0-409.0","0","0","34103","","null","","","null","45","","NaN","","","","","","","","","","","","","",""
"","response","","html-keyboard-response","298","339070","0.0-1.0-410.0","0","0","34103","","533","","","75","45","","","2","45","training","adjacent","CD","3","4","O.jpg","M.jpg","1","1","1","",""
"","feedback","","html-keyboard-response","299","340087","0.0-1.0-411.0-0.0","0","0","34103","","null","","","null","45","","","","","","","","","","","","","","","",""
"","ITI","","html-keyboard-response","300","341099","0.0-1.0-414.0","0","0","34103","","null","","","null","45","","","","","","","","","","","","","","","NaN",""
"","S1","","html-keyboard-response","301","341363","0.0-1.0-416.0","0","0","34103","","null","","","null","46","","","","","","","","","","","","","","","",""
"","ISI","","html-keyboard-response","302","343366","0.0-1.0-417.0","0","0","34103","","null","","","null","46","NaN","","","","","","","","","","","","","","",""
"","S2","","html-keyboard-response","303","343621","0.0-1.0-418.0","0","0","34103","","null","","","null","46","","NaN","","","","","","","","","","","","","",""
"","response","","html-keyboard-response","304","344063","0.0-1.0-419.0","0","0","34103","","440","","","75","46","","","2","46","training","adjacent","GF","7","6","L.jpg","Q.jpg","1","0","0","",""
"","feedback","","html-keyboard-response","305","345077","0.0-1.0-420.0-0.0","0","0","34103","","null","","","null","46","","","","","","","","","","","","","","","",""
"","time_out","","html-keyboard-response","306","347082","0.0-1.0-422.0-0.0","0","0","34103","","null","","","null","46","","","","","","","","","","","","","","","",""
"","ITI","","html-keyboard-response","307","348095","0.0-1.0-423.0","0","0","34103","","null","","","null","46","","","","","","","","","","","","","","","NaN",""
"","S1","","html-keyboard-response","308","348363","0.0-1.0-425.0","0","0","34103","","null","","","null","47","","","","","","","","","","","","","","","",""
"","ISI","","html-keyboard-response","309","350380","0.0-1.0-426.0","0","0","34103","","null","","","null","47","NaN","","","","","","","","","","","","","","",""
"","S2","","html-keyboard-response","310","350644","0.0-1.0-427.0","0","0","34103","","null","","","null","47","","NaN","","","","","","","","","","","","","",""
"","response","","html-keyboard-response","311","350915","0.0-1.0-428.0","0","0","34103","","269","","","68","47","","","2","47","training","adjacent","ED","5","4","R.jpg","M.jpg","0","0","1","",""
"","feedback","","html-keyboard-response","312","351924","0.0-1.0-429.0-0.0","0","0","34103","","null","","","null","47","","","","","","","","","","","","","","","",""
"","ITI","","html-keyboard-response","313","352926","0.0-1.0-432.0","0","0","34103","","null","","","null","47","","","","","","","","","","","","","","","NaN",""
"","S1","","html-keyboard-response","314","353188","0.0-1.0-434.0","0","0","34103","","null","","","null","48","","","","","","","","","","","","","","","",""
"","ISI","","html-keyboard-response","315","355196","0.0-1.0-435.0","0","0","34103","","null","","","null","48","NaN","","","","","","","","","","","","","","",""
"","S2","","html-keyboard-response","316","355462","0.0-1.0-436.0","0","0","34103","","null","","","null","48","","NaN","","","","","","","","","","","","","",""
"","response","","html-keyboard-response","317","355919","0.0-1.0-437.0","0","0","34103","","455","","","75","48","","","2","48","training","adjacent","DE","4","5","M.jpg","R.jpg","1","1","1","",""
"","feedback","","html-keyboard-response","318","356935","0.0-1.0-438.0-0.0","0","0","34103","","null","","","null","48","","","","","","","","","","","","","","","",""
"","ITI","","html-keyboard-response","319","357941","0.0-1.0-441.0","0","0","34103","","null","","","null","48","","","","","","","","","","","","","","","NaN",""
"","S1","","html-keyboard-response","320","358206","0.0-1.0-443.0","0","0","34103","","null","","","null","49","","","","","","","","","","","","","","","",""
"","ISI","","html-keyboard-response","321","360214","0.0-1.0-444.0","0","0","34103","","null","","","null","49","NaN","","","","","","","","","","","","","","",""
"","S2","","html-keyboard-response","322","360480","0.0-1.0-445.0","0","0","34103","","null","","","null","49","","NaN","","","","","","","","","","","","","",""
"","response","","html-keyboard-response","323","360846","0.0-1.0-446.0","0","0","34103","","364","","","75","49","","","2","49","training","adjacent","CB","3","2","O.jpg","P.jpg","1","0","0","",""
"","feedback","","html-keyboard-response","324","361860","0.0-1.0-447.0-0.0","0","0","34103","","null","","","null","49","","","","","","","","","","","","","","","",""
"","time_out","","html-keyboard-response","325","363866","0.0-1.0-449.0-0.0","0","0","34103","","null","","","null","49","","","","","","","","","","","","","","","",""
"","ITI","","html-keyboard-response","326","364879","0.0-1.0-450.0","0","0","34103","","null","","","null","49","","","","","","","","","","","","","","","NaN",""
"","S1","","html-keyboard-response","327","365145","0.0-1.0-452.0","0","0","34103","","null","","","null","50","","","","","","","","","","","","","","","",""
"","ISI","","html-keyboard-response","328","367157","0.0-1.0-453.0","0","0","34103","","null","","","null","50","NaN","","","","","","","","","","","","","","",""
"","S2","","html-keyboard-response","329","367420","0.0-1.0-454.0","0","0","34103","","null","","","null","50","","NaN","","","","","","","","","","","","","",""
"","response","","html-keyboard-response","330","367672","0.0-1.0-455.0","0","0","34103","","250","","","68","50","","","2","50","training","adjacent","CB","3","2","O.jpg","P.jpg","0","0","1","",""
"","feedback","","html-keyboard-response","331","368690","0.0-1.0-456.0-0.0","0","0","34103","","null","","","null","50","","","","","","","","","","","","","","","",""
"","ITI","","html-keyboard-response","332","369694","0.0-1.0-459.0","0","0","34103","","null","","","null","50","","","","","","","","","","","","","","","NaN",""
"","S1","","html-keyboard-response","333","369957","0.0-1.0-461.0","0","0","34103","","null","","","null","51","","","","","","","","","","","","","","","",""
"","ISI","","html-keyboard-response","334","371972","0.0-1.0-462.0","0","0","34103","","null","","","null","51","NaN","","","","","","","","","","","","","","",""
"","S2","","html-keyboard-response","335","372237","0.0-1.0-463.0","0","0","34103","","null","","","null","51","","NaN","","","","","","","","","","","","","",""
"","response","","html-keyboard-response","336","372674","0.0-1.0-464.0","0","0","34103","","435","","","75","51","","","2","51","training","adjacent","BA","2","1","P.jpg","N.jpg","1","0","0","",""
"","feedback","","html-keyboard-response","337","373684","0.0-1.0-465.0-0.0","0","0","34103","","null","","","null","51","","","","","","","","","","","","","","","",""
"","time_out","","html-keyboard-response","338","375688","0.0-1.0-467.0-0.0","0","0","34103","","null","","","null","51","","","","","","","","","","","","","","","",""
"","ITI","","html-keyboard-response","339","376696","0.0-1.0-468.0","0","0","34103","","null","","","null","51","","","","","","","","","","","","","","","NaN",""
"","S1","","html-keyboard-response","340","376949","0.0-1.0-470.0","0","0","34103","","null","","","null","52","","","","","","","","","","","","","","","",""
"","ISI","","html-keyboard-response","341","378957","0.0-1.0-471.0","0","0","34103","","null","","","null","52","NaN","","","","","","","","","","","","","","",""
"","S2","","html-keyboard-response","342","379222","0.0-1.0-472.0","0","0","34103","","null","","","null","52","","NaN","","","","","","","","","","","","","",""
"","response","","html-keyboard-response","343","379527","0.0-1.0-473.0","0","0","34103","","303","","","68","52","","","2","52","training","adjacent","ED","5","4","R.jpg","M.jpg","0","0","1","",""
"","feedback","","html-keyboard-response","344","380531","0.0-1.0-474.0-0.0","0","0","34103","","null","","","null","52","","","","","","","","","","","","","","","",""
"","ITI","","html-keyboard-response","345","381541","0.0-1.0-477.0","0","0","34103","","null","","","null","52","","","","","","","","","","","","","","","NaN",""
"","S1","","html-keyboard-response","346","381807","0.0-1.0-479.0","0","0","34103","","null","","","null","53","","","","","","","","","","","","","","","",""
"","ISI","","html-keyboard-response","347","383817","0.0-1.0-480.0","0","0","34103","","null","","","null","53","NaN","","","","","","","","","","","","","","",""
"","S2","","html-keyboard-response","348","384072","0.0-1.0-481.0","0","0","34103","","null","","","null","53","","NaN","","","","","","","","","","","","","",""
"","response","","html-keyboard-response","349","384438","0.0-1.0-482.0","0","0","34103","","364","","","75","53","","","2","53","training","adjacent","DE","4","5","M.jpg","R.jpg","1","1","1","",""
"","feedback","","html-keyboard-response","350","385455","0.0-1.0-483.0-0.0","0","0","34103","","null","","","null","53","","","","","","","","","","","","","","","",""
"","ITI","","html-keyboard-response","351","386464","0.0-1.0-486.0","0","0","34103","","null","","","null","53","","","","","","","","","","","","","","","NaN",""
"","S1","","html-keyboard-response","352","386731","0.0-1.0-488.0","0","0","34103","","null","","","null","54","","","","","","","","","","","","","","","",""
"","ISI","","html-keyboard-response","353","388746","0.0-1.0-489.0","0","0","34103","","null","","","null","54","NaN","","","","","","","","","","","","","","",""
"","S2","","html-keyboard-response","354","388999","0.0-1.0-490.0","0","0","34103","","null","","","null","54","","NaN","","","","","","","","","","","","","",""
"","response","","html-keyboard-response","355","389445","0.0-1.0-491.0","0","0","34103","","445","","","68","54","","","2","54","training","adjacent","GF","7","6","L.jpg","Q.jpg","0","0","1","",""
"","feedback","","html-keyboard-response","356","390450","0.0-1.0-492.0-0.0","0","0","34103","","null","","","null","54","","","","","","","","","","","","","","","",""
"","ITI","","html-keyboard-response","357","391457","0.0-1.0-495.0","0","0","34103","","null","","","null","54","","","","","","","","","","","","","","","NaN",""
"","S1","","html-keyboard-response","358","391711","0.0-1.0-497.0","0","0","34103","","null","","","null","55","","","","","","","","","","","","","","","",""
"","ISI","","html-keyboard-response","359","393714","0.0-1.0-498.0","0","0","34103","","null","","","null","55","NaN","","","","","","","","","","","","","","",""
"","S2","","html-keyboard-response","360","393978","0.0-1.0-499.0","0","0","34103","","null","","","null","55","","NaN","","","","","","","","","","","","","",""
"","response","","html-keyboard-response","361","394602","0.0-1.0-500.0","0","0","34103","","622","","","68","55","","","2","55","training","adjacent","BA","2","1","P.jpg","N.jpg","0","0","1","",""
"","feedback","","html-keyboard-response","362","395609","0.0-1.0-501.0-0.0","0","0","34103","","null","","","null","55","","","","","","","","","","","","","","","",""
"","ITI","","html-keyboard-response","363","396620","0.0-1.0-504.0","0","0","34103","","null","","","null","55","","","","","","","","","","","","","","","NaN",""
"","S1","","html-keyboard-response","364","396885","0.0-1.0-506.0","0","0","34103","","null","","","null","56","","","","","","","","","","","","","","","",""
"","ISI","","html-keyboard-response","365","398896","0.0-1.0-507.0","0","0","34103","","null","","","null","56","NaN","","","","","","","","","","","","","","",""
"","S2","","html-keyboard-response","366","399163","0.0-1.0-508.0","0","0","34103","","null","","","null","56","","NaN","","","","","","","","","","","","","",""
"","response","","html-keyboard-response","367","399700","0.0-1.0-509.0","0","0","34103","","535","","","75","56","","","2","56","training","adjacent","AB","1","2","N.jpg","P.jpg","1","1","1","",""
"","feedback","","html-keyboard-response","368","400706","0.0-1.0-510.0-0.0","0","0","34103","","null","","","null","56","","","","","","","","","","","","","","","",""
"","ITI","","html-keyboard-response","369","401721","0.0-1.0-513.0","0","0","34103","","null","","","null","56","","","","","","","","","","","","","","","NaN",""
"","S1","","html-keyboard-response","370","401985","0.0-1.0-515.0","0","0","34103","","null","","","null","57","","","","","","","","","","","","","","","",""
"","ISI","","html-keyboard-response","371","403991","0.0-1.0-516.0","0","0","34103","","null","","","null","57","NaN","","","","","","","","","","","","","","",""
"","S2","","html-keyboard-response","372","404258","0.0-1.0-517.0","0","0","34103","","null","","","null","57","","NaN","","","","","","","","","","","","","",""
"","response","","html-keyboard-response","373","404876","0.0-1.0-518.0","0","0","34103","","616","","","75","57","","","2","57","training","adjacent","FE","6","5","Q.jpg","R.jpg","1","0","0","",""
"","feedback","","html-keyboard-response","374","405886","0.0-1.0-519.0-0.0","0","0","34103","","null","","","null","57","","","","","","","","","","","","","","","",""
"","time_out","","html-keyboard-response","375","407896","0.0-1.0-521.0-0.0","0","0","34103","","null","","","null","57","","","","","","","","","","","","","","","",""
"","ITI","","html-keyboard-response","376","408908","0.0-1.0-522.0","0","0","34103","","null","","","null","57","","","","","","","","","","","","","","","NaN",""
"","S1","","html-keyboard-response","377","409161","0.0-1.0-524.0","0","0","34103","","null","","","null","58","","","","","","","","","","","","","","","",""
"","ISI","","html-keyboard-response","378","411170","0.0-1.0-525.0","0","0","34103","","null","","","null","58","NaN","","","","","","","","","","","","","","",""
"","S2","","html-keyboard-response","379","411435","0.0-1.0-526.0","0","0","34103","","null","","","null","58","","NaN","","","","","","","","","","","","","",""
"","response","","html-keyboard-response","380","411533","0.0-1.0-527.0","0","0","34103","","96","","","75","58","","","2","58","training","adjacent","EF","5","6","R.jpg","Q.jpg","1","1","1","",""
"","feedback","","html-keyboard-response","381","412547","0.0-1.0-528.0-0.0","0","0","34103","","null","","","null","58","","","","","","","","","","","","","","","",""
"","ITI","","html-keyboard-response","382","413564","0.0-1.0-531.0","0","0","34103","","null","","","null","58","","","","","","","","","","","","","","","NaN",""
"","S1","","html-keyboard-response","383","413828","0.0-1.0-533.0","0","0","34103","","null","","","null","59","","","","","","","","","","","","","","","",""
"","ISI","","html-keyboard-response","384","415831","0.0-1.0-534.0","0","0","34103","","null","","","null","59","NaN","","","","","","","","","","","","","","",""
"","S2","","html-keyboard-response","385","416086","0.0-1.0-535.0","0","0","34103","","null","","","null","59","","NaN","","","","","","","","","","","","","",""
"","response","","html-keyboard-response","386","416368","0.0-1.0-536.0","0","0","34103","","280","","","68","59","","","2","59","training","adjacent","GF","7","6","L.jpg","Q.jpg","0","0","1","",""
"","feedback","","html-keyboard-response","387","417377","0.0-1.0-537.0-0.0","0","0","34103","","null","","","null","59","","","","","","","","","","","","","","","",""
"","ITI","","html-keyboard-response","388","418385","0.0-1.0-540.0","0","0","34103","","null","","","null","59","","","","","","","","","","","","","","","NaN",""
"","S1","","html-keyboard-response","389","418638","0.0-1.0-542.0","0","0","34103","","null","","","null","60","","","","","","","","","","","","","","","",""
"","ISI","","html-keyboard-response","390","420648","0.0-1.0-543.0","0","0","34103","","null","","","null","60","NaN","","","","","","","","","","","","","","",""
"","S2","","html-keyboard-response","391","420911","0.0-1.0-544.0","0","0","34103","","null","","","null","60","","NaN","","","","","","","","","","","","","",""
"","response","","html-keyboard-response","392","421228","0.0-1.0-545.0","0","0","34103","","315","","","75","60","","","2","60","training","adjacent","BC","2","3","P.jpg","O.jpg","1","1","1","",""
"","feedback","","html-keyboard-response","393","422244","0.0-1.0-546.0-0.0","0","0","34103","","null","","","null","60","","","","","","","","","","","","","","","",""
"","ITI","","html-keyboard-response","394","423255","0.0-1.0-549.0","0","0","34103","","null","","","null","60","","","","","","","","","","","","","","","NaN",""
"","S1","","html-keyboard-response","395","423516","0.0-1.0-551.0","0","0","34103","","null","","","null","61","","","","","","","","","","","","","","","",""
"","ISI","","html-keyboard-response","396","425533","0.0-1.0-552.0","0","0","34103","","null","","","null","61","NaN","","","","","","","","","","","","","","",""
"","S2","","html-keyboard-response","397","425796","0.0-1.0-553.0","0","0","34103","","null","","","null","61","","NaN","","","","","","","","","","","","","",""
"","response","","html-keyboard-response","398","426117","0.0-1.0-554.0","0","0","34103","","317","","","68","61","","","2","61","training","adjacent","ED","5","4","R.jpg","M.jpg","0","0","1","",""
"","feedback","","html-keyboard-response","399","427133","0.0-1.0-555.0-0.0","0","0","34103","","null","","","null","61","","","","","","","","","","","","","","","",""
"","ITI","","html-keyboard-response","400","428152","0.0-1.0-558.0","0","0","34103","","null","","","null","61","","","","","","","","","","","","","","","NaN",""
"","S1","","html-keyboard-response","401","428418","0.0-1.0-560.0","0","0","34103","","null","","","null","62","","","","","","","","","","","","","","","",""
"","ISI","","html-keyboard-response","402","430430","0.0-1.0-561.0","0","0","34103","","null","","","null","62","NaN","","","","","","","","","","","","","","",""
"","S2","","html-keyboard-response","403","430691","0.0-1.0-562.0","0","0","34103","","null","","","null","62","","NaN","","","","","","","","","","","","","",""
"","response","","html-keyboard-response","404","431406","0.0-1.0-563.0","0","0","34103","","713","","","68","62","","","2","62","training","adjacent","DC","4","3","M.jpg","O.jpg","0","0","1","",""
"","feedback","","html-keyboard-response","405","432408","0.0-1.0-564.0-0.0","0","0","34103","","null","","","null","62","","","","","","","","","","","","","","","",""
"","ITI","","html-keyboard-response","406","433418","0.0-1.0-567.0","0","0","34103","","null","","","null","62","","","","","","","","","","","","","","","NaN",""
"","S1","","html-keyboard-response","407","433683","0.0-1.0-569.0","0","0","34103","","null","","","null","63","","","","","","","","","","","","","","","",""
"","ISI","","html-keyboard-response","408","435689","0.0-1.0-570.0","0","0","34103","","null","","","null","63","NaN","","","","","","","","","","","","","","",""
"","S2","","html-keyboard-response","409","435955","0.0-1.0-571.0","0","0","34103","","null","","","null","63","","NaN","","","","","","","","","","","","","",""
"","response","","html-keyboard-response","410","436400","0.0-1.0-572.0","0","0","34103","","444","","","68","63","","","2","63","training","adjacent","DC","4","3","M.jpg","O.jpg","0","0","1","",""
"","feedback","","html-keyboard-response","411","437412","0.0-1.0-573.0-0.0","0","0","34103","","null","","","null","63","","","","","","","","","","","","","","","",""
"","ITI","","html-keyboard-response","412","438424","0.0-1.0-576.0","0","0","34103","","null","","","null","63","","","","","","","","","","","","","","","NaN",""
"","S1","","html-keyboard-response","413","438679","0.0-1.0-578.0","0","0","34103","","null","","","null","64","","","","","","","","","","","","","","","",""
"","ISI","","html-keyboard-response","414","440683","0.0-1.0-579.0","0","0","34103","","null","","","null","64","NaN","","","","","","","","","","","","","","",""
"","S2","","html-keyboard-response","415","440945","0.0-1.0-580.0","0","0","34103","","null","","","null","64","","NaN","","","","","","","","","","","","","",""
"","response","","html-keyboard-response","416","441693","0.0-1.0-581.0","0","0","34103","","745","","","68","64","","","2","64","training","adjacent","CD","3","4","O.jpg","M.jpg","0","1","0","",""
"","feedback","","html-keyboard-response","417","442707","0.0-1.0-582.0-0.0","0","0","34103","","null","","","null","64","","","","","","","","","","","","","","","",""
"","time_out","","html-keyboard-response","418","444718","0.0-1.0-584.0-0.0","0","0","34103","","null","","","null","64","","","","","","","","","","","","","","","",""
"","ITI","","html-keyboard-response","419","445732","0.0-1.0-585.0","0","0","34103","","null","","","null","64","","","","","","","","","","","","","","","NaN",""
"","S1","","html-keyboard-response","420","445985","0.0-1.0-587.0","0","0","34103","","null","","","null","65","","","","","","","","","","","","","","","",""
"","ISI","","html-keyboard-response","421","447989","0.0-1.0-588.0","0","0","34103","","null","","","null","65","NaN","","","","","","","","","","","","","","",""
"","S2","","html-keyboard-response","422","448252","0.0-1.0-589.0","0","0","34103","","null","","","null","65","","NaN","","","","","","","","","","","","","",""
"","response","","html-keyboard-response","423","448731","0.0-1.0-590.0","0","0","34103","","476","","","68","65","","","2","65","training","adjacent","FG","6","7","Q.jpg","L.jpg","0","1","0","",""
"","feedback","","html-keyboard-response","424","449749","0.0-1.0-591.0-0.0","0","0","34103","","null","","","null","65","","","","","","","","","","","","","","","",""
"","time_out","","html-keyboard-response","425","451764","0.0-1.0-593.0-0.0","0","0","34103","","null","","","null","65","","","","","","","","","","","","","","","",""
"","ITI","","html-keyboard-response","426","452774","0.0-1.0-594.0","0","0","34103","","null","","","null","65","","","","","","","","","","","","","","","NaN",""
"","S1","","html-keyboard-response","427","453040","0.0-1.0-596.0","0","0","34103","","null","","","null","66","","","","","","","","","","","","","","","",""
"","ISI","","html-keyboard-response","428","455045","0.0-1.0-597.0","0","0","34103","","null","","","null","66","NaN","","","","","","","","","","","","","","",""
"","S2","","html-keyboard-response","429","455311","0.0-1.0-598.0","0","0","34103","","null","","","null","66","","NaN","","","","","","","","","","","","","",""
"","response","","html-keyboard-response","430","455893","0.0-1.0-599.0","0","0","34103","","581","","","68","66","","","2","66","training","adjacent","BA","2","1","P.jpg","N.jpg","0","0","1","",""
"","feedback","","html-keyboard-response","431","456898","0.0-1.0-600.0-0.0","0","0","34103","","null","","","null","66","","","","","","","","","","","","","","","",""
"","ITI","","html-keyboard-response","432","457900","0.0-1.0-603.0","0","0","34103","","null","","","null","66","","","","","","","","","","","","","","","NaN",""
"","S1","","html-keyboard-response","433","458166","0.0-1.0-605.0","0","0","34103","","null","","","null","67","","","","","","","","","","","","","","","",""
"","ISI","","html-keyboard-response","434","460177","0.0-1.0-606.0","0","0","34103","","null","","","null","67","NaN","","","","","","","","","","","","","","",""
"","S2","","html-keyboard-response","435","460429","0.0-1.0-607.0","0","0","34103","","null","","","null","67","","NaN","","","","","","","","","","","","","",""
"","response","","html-keyboard-response","436","460812","0.0-1.0-608.0","0","0","34103","","381","","","75","67","","","2","67","training","adjacent","DE","4","5","M.jpg","R.jpg","1","1","1","",""
"","feedback","","html-keyboard-response","437","461815","0.0-1.0-609.0-0.0","0","0","34103","","null","","","null","67","","","","","","","","","","","","","","","",""
"","ITI","","html-keyboard-response","438","462831","0.0-1.0-612.0","0","0","34103","","null","","","null","67","","","","","","","","","","","","","","","NaN",""
"","S1","","html-keyboard-response","439","463097","0.0-1.0-614.0","0","0","34103","","null","","","null","68","","","","","","","","","","","","","","","",""
"","ISI","","html-keyboard-response","440","465113","0.0-1.0-615.0","0","0","34103","","null","","","null","68","NaN","","","","","","","","","","","","","","",""
"","S2","","html-keyboard-response","441","465377","0.0-1.0-616.0","0","0","34103","","null","","","null","68","","NaN","","","","","","","","","","","","","",""
"","response","","html-keyboard-response","442","465661","0.0-1.0-617.0","0","0","34103","","281","","","75","68","","","2","68","training","adjacent","FG","6","7","Q.jpg","L.jpg","1","1","1","",""
"","feedback","","html-keyboard-response","443","466665","0.0-1.0-618.0-0.0","0","0","34103","","null","","","null","68","","","","","","","","","","","","","","","",""
"","ITI","","html-keyboard-response","444","467680","0.0-1.0-621.0","0","0","34103","","null","","","null","68","","","","","","","","","","","","","","","NaN",""
"","S1","","html-keyboard-response","445","467942","0.0-1.0-623.0","0","0","34103","","null","","","null","69","","","","","","","","","","","","","","","",""
"","ISI","","html-keyboard-response","446","469954","0.0-1.0-624.0","0","0","34103","","null","","","null","69","NaN","","","","","","","","","","","","","","",""
"","S2","","html-keyboard-response","447","470216","0.0-1.0-625.0","0","0","34103","","null","","","null","69","","NaN","","","","","","","","","","","","","",""
"","response","","html-keyboard-response","448","470504","0.0-1.0-626.0","0","0","34103","","287","","","68","69","","","2","69","training","adjacent","FE","6","5","Q.jpg","R.jpg","0","0","1","",""
"","feedback","","html-keyboard-response","449","471515","0.0-1.0-627.0-0.0","0","0","34103","","null","","","null","69","","","","","","","","","","","","","","","",""
"","ITI","","html-keyboard-response","450","472525","0.0-1.0-630.0","0","0","34103","","null","","","null","69","","","","","","","","","","","","","","","NaN",""
"","S1","","html-keyboard-response","451","472788","0.0-1.0-632.0","0","0","34103","","null","","","null","70","","","","","","","","","","","","","","","",""
"","ISI","","html-keyboard-response","452","474793","0.0-1.0-633.0","0","0","34103","","null","","","null","70","NaN","","","","","","","","","","","","","","",""
"","S2","","html-keyboard-response","453","475057","0.0-1.0-634.0","0","0","34103","","null","","","null","70","","NaN","","","","","","","","","","","","","",""
"","response","","html-keyboard-response","454","475685","0.0-1.0-635.0","0","0","34103","","627","","","68","70","","","2","70","training","adjacent","CB","3","2","O.jpg","P.jpg","0","0","1","",""
"","feedback","","html-keyboard-response","455","476690","0.0-1.0-636.0-0.0","0","0","34103","","null","","","null","70","","","","","","","","","","","","","","","",""
"","ITI","","html-keyboard-response","456","477703","0.0-1.0-639.0","0","0","34103","","null","","","null","70","","","","","","","","","","","","","","","NaN",""
"","S1","","html-keyboard-response","457","477967","0.0-1.0-641.0","0","0","34103","","null","","","null","71","","","","","","","","","","","","","","","",""
"","ISI","","html-keyboard-response","458","479974","0.0-1.0-642.0","0","0","34103","","null","","","null","71","NaN","","","","","","","","","","","","","","",""
"","S2","","html-keyboard-response","459","480238","0.0-1.0-643.0","0","0","34103","","null","","","null","71","","NaN","","","","","","","","","","","","","",""
"","response","","html-keyboard-response","460","480542","0.0-1.0-644.0","0","0","34103","","303","","","75","71","","","2","71","training","adjacent","FG","6","7","Q.jpg","L.jpg","1","1","1","",""
"","feedback","","html-keyboard-response","461","481555","0.0-1.0-645.0-0.0","0","0","34103","","null","","","null","71","","","","","","","","","","","","","","","",""
"","ITI","","html-keyboard-response","462","482567","0.0-1.0-648.0","0","0","34103","","null","","","null","71","","","","","","","","","","","","","","","NaN",""
"","S1","","html-keyboard-response","463","482832","0.0-1.0-650.0","0","0","34103","","null","","","null","72","","","","","","","","","","","","","","","",""
"","ISI","","html-keyboard-response","464","484843","0.0-1.0-651.0","0","0","34103","","null","","","null","72","NaN","","","","","","","","","","","","","","",""
"","S2","","html-keyboard-response","465","485095","0.0-1.0-652.0","0","0","34103","","null","","","null","72","","NaN","","","","","","","","","","","","","",""
"","response","","html-keyboard-response","466","485330","0.0-1.0-653.0","0","0","34103","","232","","","75","72","","","2","72","training","adjacent","EF","5","6","R.jpg","Q.jpg","1","1","1","",""
"","feedback","","html-keyboard-response","467","486337","0.0-1.0-654.0-0.0","0","0","34103","","null","","","null","72","","","","","","","","","","","","","","","",""
"","ITI","","html-keyboard-response","468","487345","0.0-1.0-657.0","0","0","34103","","null","","","null","72","","","","","","","","","","","","","","","NaN",""
"","S1","","html-keyboard-response","469","487610","0.0-1.0-659.0","0","0","34103","","null","","","null","73","","","","","","","","","","","","","","","",""
"","ISI","","html-keyboard-response","470","489625","0.0-1.0-660.0","0","0","34103","","null","","","null","73","NaN","","","","","","","","","","","","","","",""
"","S2","","html-keyboard-response","471","489877","0.0-1.0-661.0","0","0","34103","","null","","","null","73","","NaN","","","","","","","","","","","","","",""
"","response","","html-keyboard-response","472","490235","0.0-1.0-662.0","0","0","34103","","355","","","75","73","","","2","73","training","adjacent","AB","1","2","N.jpg","P.jpg","1","1","1","",""
"","feedback","","html-keyboard-response","473","491239","0.0-1.0-663.0-0.0","0","0","34103","","null","","","null","73","","","","","","","","","","","","","","","",""
"","ITI","","html-keyboard-response","474","492247","0.0-1.0-666.0","0","0","34103","","null","","","null","73","","","","","","","","","","","","","","","NaN",""
"","S1","","html-keyboard-response","475","492512","0.0-1.0-668.0","0","0","34103","","null","","","null","74","","","","","","","","","","","","","","","",""
"","ISI","","html-keyboard-response","476","494518","0.0-1.0-669.0","0","0","34103","","null","","","null","74","NaN","","","","","","","","","","","","","","",""
"","S2","","html-keyboard-response","477","494782","0.0-1.0-670.0","0","0","34103","","null","","","null","74","","NaN","","","","","","","","","","","","","",""
"","response","","html-keyboard-response","478","495261","0.0-1.0-671.0","0","0","34103","","478","","","75","74","","","2","74","training","adjacent","FE","6","5","Q.jpg","R.jpg","1","0","0","",""
"","feedback","","html-keyboard-response","479","496274","0.0-1.0-672.0-0.0","0","0","34103","","null","","","null","74","","","","","","","","","","","","","","","",""
"","time_out","","html-keyboard-response","480","498285","0.0-1.0-674.0-0.0","0","0","34103","","null","","","null","74","","","","","","","","","","","","","","","",""
"","ITI","","html-keyboard-response","481","499298","0.0-1.0-675.0","0","0","34103","","null","","","null","74","","","","","","","","","","","","","","","NaN",""
"","S1","","html-keyboard-response","482","499565","0.0-1.0-677.0","0","0","34103","","null","","","null","75","","","","","","","","","","","","","","","",""
"","ISI","","html-keyboard-response","483","501569","0.0-1.0-678.0","0","0","34103","","null","","","null","75","NaN","","","","","","","","","","","","","","",""
"","S2","","html-keyboard-response","484","501833","0.0-1.0-679.0","0","0","34103","","null","","","null","75","","NaN","","","","","","","","","","","","","",""
"","response","","html-keyboard-response","485","502091","0.0-1.0-680.0","0","0","34103","","257","","","75","75","","","2","75","training","adjacent","BC","2","3","P.jpg","O.jpg","1","1","1","",""
"","feedback","","html-keyboard-response","486","503095","0.0-1.0-681.0-0.0","0","0","34103","","null","","","null","75","","","","","","","","","","","","","","","",""
"","ITI","","html-keyboard-response","487","504109","0.0-1.0-684.0","0","0","34103","","null","","","null","75","","","","","","","","","","","","","","","NaN",""
"","S1","","html-keyboard-response","488","504373","0.0-1.0-686.0","0","0","34103","","null","","","null","76","","","","","","","","","","","","","","","",""
"","ISI","","html-keyboard-response","489","506380","0.0-1.0-687.0","0","0","34103","","null","","","null","76","NaN","","","","","","","","","","","","","","",""
"","S2","","html-keyboard-response","490","506645","0.0-1.0-688.0","0","0","34103","","null","","","null","76","","NaN","","","","","","","","","","","","","",""
"","response","","html-keyboard-response","491","507292","0.0-1.0-689.0","0","0","34103","","644","","","68","76","","","2","76","training","adjacent","DC","4","3","M.jpg","O.jpg","0","0","1","",""
"","feedback","","html-keyboard-response","492","508295","0.0-1.0-690.0-0.0","0","0","34103","","null","","","null","76","","","","","","","","","","","","","","","",""
"","ITI","","html-keyboard-response","493","509308","0.0-1.0-693.0","0","0","34103","","null","","","null","76","","","","","","","","","","","","","","","NaN",""
"","S1","","html-keyboard-response","494","509573","0.0-1.0-695.0","0","0","34103","","null","","","null","77","","","","","","","","","","","","","","","",""
"","ISI","","html-keyboard-response","495","511590","0.0-1.0-696.0","0","0","34103","","null","","","null","77","NaN","","","","","","","","","","","","","","",""
"","S2","","html-keyboard-response","496","511858","0.0-1.0-697.0","0","0","34103","","null","","","null","77","","NaN","","","","","","","","","","","","","",""
"","response","","html-keyboard-response","497","512437","0.0-1.0-698.0","0","0","34103","","577","","","68","77","","","2","77","training","adjacent","ED","5","4","R.jpg","M.jpg","0","0","1","",""
"","feedback","","html-keyboard-response","498","513452","0.0-1.0-699.0-0.0","0","0","34103","","null","","","null","77","","","","","","","","","","","","","","","",""
"","ITI","","html-keyboard-response","499","514463","0.0-1.0-702.0","0","0","34103","","null","","","null","77","","","","","","","","","","","","","","","NaN",""
"","S1","","html-keyboard-response","500","514729","0.0-1.0-704.0","0","0","34103","","null","","","null","78","","","","","","","","","","","","","","","",""
"","ISI","","html-keyboard-response","501","516733","0.0-1.0-705.0","0","0","34103","","null","","","null","78","NaN","","","","","","","","","","","","","","",""
"","S2","","html-keyboard-response","502","516985","0.0-1.0-706.0","0","0","34103","","null","","","null","78","","NaN","","","","","","","","","","","","","",""
"","response","","html-keyboard-response","503","517246","0.0-1.0-707.0","0","0","34103","","259","","","75","78","","","2","78","training","adjacent","EF","5","6","R.jpg","Q.jpg","1","1","1","",""
"","feedback","","html-keyboard-response","504","518257","0.0-1.0-708.0-0.0","0","0","34103","","null","","","null","78","","","","","","","","","","","","","","","",""
"","ITI","","html-keyboard-response","505","519266","0.0-1.0-711.0","0","0","34103","","null","","","null","78","","","","","","","","","","","","","","","NaN",""
"","S1","","html-keyboard-response","506","519530","0.0-1.0-713.0","0","0","34103","","null","","","null","79","","","","","","","","","","","","","","","",""
"","ISI","","html-keyboard-response","507","521541","0.0-1.0-714.0","0","0","34103","","null","","","null","79","NaN","","","","","","","","","","","","","","",""
"","S2","","html-keyboard-response","508","521804","0.0-1.0-715.0","0","0","34103","","null","","","null","79","","NaN","","","","","","","","","","","","","",""
"","response","","html-keyboard-response","509","522350","0.0-1.0-716.0","0","0","34103","","544","","","75","79","","","2","79","training","adjacent","DE","4","5","M.jpg","R.jpg","1","1","1","",""
"","feedback","","html-keyboard-response","510","523361","0.0-1.0-717.0-0.0","0","0","34103","","null","","","null","79","","","","","","","","","","","","","","","",""
"","ITI","","html-keyboard-response","511","524367","0.0-1.0-720.0","0","0","34103","","null","","","null","79","","","","","","","","","","","","","","","NaN",""
"","block_over","","html-keyboard-response","512","532473","0.0-1.0-721.0-0.0","0","0","34103","","8103","","","32","79","","","","","","","","","","","","","","","",""
"","S1","","html-keyboard-response","513","532730","0.0-1.0-722.0","0","0","34103","","null","","","null","80","","","","","","","","","","","","","","","",""
"","ISI","","html-keyboard-response","514","534734","0.0-1.0-723.0","0","0","34103","","null","","","null","80","NaN","","","","","","","","","","","","","","",""
"","S2","","html-keyboard-response","515","535000","0.0-1.0-724.0","0","0","34103","","null","","","null","80","","NaN","","","","","","","","","","","","","",""
"","response","","html-keyboard-response","516","535264","0.0-1.0-725.0","0","0","34103","","261","","","68","80","","","3","80","training","adjacent","GF","7","6","L.jpg","Q.jpg","0","0","1","",""
"","feedback","","html-keyboard-response","517","536267","0.0-1.0-726.0-0.0","0","0","34103","","null","","","null","80","","","","","","","","","","","","","","","",""
"","ITI","","html-keyboard-response","518","537279","0.0-1.0-729.0","0","0","34103","","null","","","null","80","","","","","","","","","","","","","","","NaN",""
"","S1","","html-keyboard-response","519","537546","0.0-1.0-731.0","0","0","34103","","null","","","null","81","","","","","","","","","","","","","","","",""
"","ISI","","html-keyboard-response","520","539553","0.0-1.0-732.0","0","0","34103","","null","","","null","81","NaN","","","","","","","","","","","","","","",""
"","S2","","html-keyboard-response","521","539819","0.0-1.0-733.0","0","0","34103","","null","","","null","81","","NaN","","","","","","","","","","","","","",""
"","response","","html-keyboard-response","522","540552","0.0-1.0-734.0","0","0","34103","","730","","","68","81","","","3","81","training","adjacent","ED","5","4","R.jpg","M.jpg","0","0","1","",""
"","feedback","","html-keyboard-response","523","541557","0.0-1.0-735.0-0.0","0","0","34103","","null","","","null","81","","","","","","","","","","","","","","","",""
"","ITI","","html-keyboard-response","524","542568","0.0-1.0-738.0","0","0","34103","","null","","","null","81","","","","","","","","","","","","","","","NaN",""
"","S1","","html-keyboard-response","525","542834","0.0-1.0-740.0","0","0","34103","","null","","","null","82","","","","","","","","","","","","","","","",""
"","ISI","","html-keyboard-response","526","544836","0.0-1.0-741.0","0","0","34103","","null","","","null","82","NaN","","","","","","","","","","","","","","",""
"","S2","","html-keyboard-response","527","545101","0.0-1.0-742.0","0","0","34103","","null","","","null","82","","NaN","","","","","","","","","","","","","",""
"","response","","html-keyboard-response","528","545418","0.0-1.0-743.0","0","0","34103","","315","","","68","82","","","3","82","training","adjacent","ED","5","4","R.jpg","M.jpg","0","0","1","",""
"","feedback","","html-keyboard-response","529","546427","0.0-1.0-744.0-0.0","0","0","34103","","null","","","null","82","","","","","","","","","","","","","","","",""
"","ITI","","html-keyboard-response","530","547430","0.0-1.0-747.0","0","0","34103","","null","","","null","82","","","","","","","","","","","","","","","NaN",""
"","S1","","html-keyboard-response","531","547696","0.0-1.0-749.0","0","0","34103","","null","","","null","83","","","","","","","","","","","","","","","",""
"","ISI","","html-keyboard-response","532","549704","0.0-1.0-750.0","0","0","34103","","null","","","null","83","NaN","","","","","","","","","","","","","","",""
"","S2","","html-keyboard-response","533","549968","0.0-1.0-751.0","0","0","34103","","null","","","null","83","","NaN","","","","","","","","","","","","","",""
"","response","","html-keyboard-response","534","550265","0.0-1.0-752.0","0","0","34103","","295","","","68","83","","","3","83","training","adjacent","ED","5","4","R.jpg","M.jpg","0","0","1","",""
"","feedback","","html-keyboard-response","535","551276","0.0-1.0-753.0-0.0","0","0","34103","","null","","","null","83","","","","","","","","","","","","","","","",""
"","ITI","","html-keyboard-response","536","552283","0.0-1.0-756.0","0","0","34103","","null","","","null","83","","","","","","","","","","","","","","","NaN",""
"","S1","","html-keyboard-response","537","552547","0.0-1.0-758.0","0","0","34103","","null","","","null","84","","","","","","","","","","","","","","","",""
"","ISI","","html-keyboard-response","538","554563","0.0-1.0-759.0","0","0","34103","","null","","","null","84","NaN","","","","","","","","","","","","","","",""
"","S2","","html-keyboard-response","539","554831","0.0-1.0-760.0","0","0","34103","","null","","","null","84","","NaN","","","","","","","","","","","","","",""
"","response","","html-keyboard-response","540","555146","0.0-1.0-761.0","0","0","34103","","314","","","75","84","","","3","84","training","adjacent","AB","1","2","N.jpg","P.jpg","1","1","1","",""
"","feedback","","html-keyboard-response","541","556150","0.0-1.0-762.0-0.0","0","0","34103","","null","","","null","84","","","","","","","","","","","","","","","",""
"","ITI","","html-keyboard-response","542","557155","0.0-1.0-765.0","0","0","34103","","null","","","null","84","","","","","","","","","","","","","","","NaN",""
"","S1","","html-keyboard-response","543","557422","0.0-1.0-767.0","0","0","34103","","null","","","null","85","","","","","","","","","","","","","","","",""
"","ISI","","html-keyboard-response","544","559430","0.0-1.0-768.0","0","0","34103","","null","","","null","85","NaN","","","","","","","","","","","","","","",""
"","S2","","html-keyboard-response","545","559693","0.0-1.0-769.0","0","0","34103","","null","","","null","85","","NaN","","","","","","","","","","","","","",""
"","response","","html-keyboard-response","546","559952","0.0-1.0-770.0","0","0","34103","","257","","","68","85","","","3","85","training","adjacent","FE","6","5","Q.jpg","R.jpg","0","0","1","",""
"","feedback","","html-keyboard-response","547","560963","0.0-1.0-771.0-0.0","0","0","34103","","null","","","null","85","","","","","","","","","","","","","","","",""
"","ITI","","html-keyboard-response","548","561974","0.0-1.0-774.0","0","0","34103","","null","","","null","85","","","","","","","","","","","","","","","NaN",""
"","S1","","html-keyboard-response","549","562235","0.0-1.0-776.0","0","0","34103","","null","","","null","86","","","","","","","","","","","","","","","",""
"","ISI","","html-keyboard-response","550","564244","0.0-1.0-777.0","0","0","34103","","null","","","null","86","NaN","","","","","","","","","","","","","","",""
"","S2","","html-keyboard-response","551","564506","0.0-1.0-778.0","0","0","34103","","null","","","null","86","","NaN","","","","","","","","","","","","","",""
"","response","","html-keyboard-response","552","564714","0.0-1.0-779.0","0","0","34103","","206","","","68","86","","","3","86","training","adjacent","CB","3","2","O.jpg","P.jpg","0","0","1","",""
"","feedback","","html-keyboard-response","553","565720","0.0-1.0-780.0-0.0","0","0","34103","","null","","","null","86","","","","","","","","","","","","","","","",""
"","ITI","","html-keyboard-response","554","566729","0.0-1.0-783.0","0","0","34103","","null","","","null","86","","","","","","","","","","","","","","","NaN",""
"","S1","","html-keyboard-response","555","566995","0.0-1.0-785.0","0","0","34103","","null","","","null","87","","","","","","","","","","","","","","","",""
"","ISI","","html-keyboard-response","556","569007","0.0-1.0-786.0","0","0","34103","","null","","","null","87","NaN","","","","","","","","","","","","","","",""
"","S2","","html-keyboard-response","557","569274","0.0-1.0-787.0","0","0","34103","","null","","","null","87","","NaN","","","","","","","","","","","","","",""
"","response","","html-keyboard-response","558","569378","0.0-1.0-788.0","0","0","34103","","101","","","75","87","","","3","87","training","adjacent","CD","3","4","O.jpg","M.jpg","1","1","1","",""
"","feedback","","html-keyboard-response","559","570394","0.0-1.0-789.0-0.0","0","0","34103","","null","","","null","87","","","","","","","","","","","","","","","",""
"","ITI","","html-keyboard-response","560","571401","0.0-1.0-792.0","0","0","34103","","null","","","null","87","","","","","","","","","","","","","","","NaN",""
"","S1","","html-keyboard-response","561","571662","0.0-1.0-794.0","0","0","34103","","null","","","null","88","","","","","","","","","","","","","","","",""
"","ISI","","html-keyboard-response","562","573667","0.0-1.0-795.0","0","0","34103","","null","","","null","88","NaN","","","","","","","","","","","","","","",""
"","S2","","html-keyboard-response","563","573930","0.0-1.0-796.0","0","0","34103","","null","","","null","88","","NaN","","","","","","","","","","","","","",""
"","response","","html-keyboard-response","564","574200","0.0-1.0-797.0","0","0","34103","","268","","","68","88","","","3","88","training","adjacent","CB","3","2","O.jpg","P.jpg","0","0","1","",""
"","feedback","","html-keyboard-response","565","575210","0.0-1.0-798.0-0.0","0","0","34103","","null","","","null","88","","","","","","","","","","","","","","","",""
"","ITI","","html-keyboard-response","566","576226","0.0-1.0-801.0","0","0","34103","","null","","","null","88","","","","","","","","","","","","","","","NaN",""
"","S1","","html-keyboard-response","567","576490","0.0-1.0-803.0","0","0","34103","","null","","","null","89","","","","","","","","","","","","","","","",""
"","ISI","","html-keyboard-response","568","578500","0.0-1.0-804.0","0","0","34103","","null","","","null","89","NaN","","","","","","","","","","","","","","",""
"","S2","","html-keyboard-response","569","578764","0.0-1.0-805.0","0","0","34103","","null","","","null","89","","NaN","","","","","","","","","","","","","",""
"","response","","html-keyboard-response","570","579305","0.0-1.0-806.0","0","0","34103","","539","","","68","89","","","3","89","training","adjacent","DC","4","3","M.jpg","O.jpg","0","0","1","",""
"","feedback","","html-keyboard-response","571","580309","0.0-1.0-807.0-0.0","0","0","34103","","null","","","null","89","","","","","","","","","","","","","","","",""
"","ITI","","html-keyboard-response","572","581316","0.0-1.0-810.0","0","0","34103","","null","","","null","89","","","","","","","","","","","","","","","NaN",""
"","S1","","html-keyboard-response","573","581569","0.0-1.0-812.0","0","0","34103","","null","","","null","90","","","","","","","","","","","","","","","",""
"","ISI","","html-keyboard-response","574","583583","0.0-1.0-813.0","0","0","34103","","null","","","null","90","NaN","","","","","","","","","","","","","","",""
"","S2","","html-keyboard-response","575","583847","0.0-1.0-814.0","0","0","34103","","null","","","null","90","","NaN","","","","","","","","","","","","","",""
"","response","","html-keyboard-response","576","584300","0.0-1.0-815.0","0","0","34103","","450","","","75","90","","","3","90","training","adjacent","DE","4","5","M.jpg","R.jpg","1","1","1","",""
"","feedback","","html-keyboard-response","577","585303","0.0-1.0-816.0-0.0","0","0","34103","","null","","","null","90","","","","","","","","","","","","","","","",""
"","ITI","","html-keyboard-response","578","586305","0.0-1.0-819.0","0","0","34103","","null","","","null","90","","","","","","","","","","","","","","","NaN",""
"","S1","","html-keyboard-response","579","586569","0.0-1.0-821.0","0","0","34103","","null","","","null","91","","","","","","","","","","","","","","","",""
"","ISI","","html-keyboard-response","580","588577","0.0-1.0-822.0","0","0","34103","","null","","","null","91","NaN","","","","","","","","","","","","","","",""
"","S2","","html-keyboard-response","581","588844","0.0-1.0-823.0","0","0","34103","","null","","","null","91","","NaN","","","","","","","","","","","","","",""
"","response","","html-keyboard-response","582","589447","0.0-1.0-824.0","0","0","34103","","601","","","68","91","","","3","91","training","adjacent","FE","6","5","Q.jpg","R.jpg","0","0","1","",""
"","feedback","","html-keyboard-response","583","590454","0.0-1.0-825.0-0.0","0","0","34103","","null","","","null","91","","","","","","","","","","","","","","","",""
"","ITI","","html-keyboard-response","584","591462","0.0-1.0-828.0","0","0","34103","","null","","","null","91","","","","","","","","","","","","","","","NaN",""
