"success","ttype","start_time","trial_type","trial_index","time_elapsed","internal_node_id","warning","missed_checkup","PID","view_history","rt","responses","repeat_instructions","key_press","index","keypress_isi","keypress_S2","block","trial_num","phase","group_type","pair_type","S1_stim","S2_stim","S1_img","S2_img","S1_chosen","S1_higher","accuracy","keypress_iti","total_bonus_tally"
"true","full_screen","d03072023hr1745","fullscreen","0","37090","0.0-0.0","0","0","44440","","","","","","","","","","","","","","","","","","","","","",""
"","instructions","","instructions","1","142348","0.0-1.0-0.0-0.0","0","0","44440","[{""page_index"":0,""viewing_time"":9217},{""page_index"":1,""viewing_time"":62785},{""page_index"":2,""viewing_time"":28562},{""page_index"":3,""viewing_time"":4681}]","105247","","","","","","","","","","","","","","","","","","","",""
"","comprehension_check","","survey-multi-choice","2","177909","0.0-1.0-0.0-1.0","0","0","44440","","35542","{""Q0"":""True"",""Q1"":""D"",""Q2"":""Only when the screen 'MAKE A CHOICE' is shown"",""Q3"":""Green mark"",""Q4"":""either D or K""}","1","","","","","","","","","","","","","","","","","",""
"","missed_instruction_checkup","","html-keyboard-response","3","182921","0.0-1.0-0.0-2.0-0.0","0","1","44440","","5001","","","32","","","","","","","","","","","","","","","","",""
"","instructions","","instructions","4","263041","0.0-1.0-0.1-0.1","0","0","44440","[{""page_index"":0,""viewing_time"":6293},{""page_index"":1,""viewing_time"":67099},{""page_index"":2,""viewing_time"":4273},{""page_index"":3,""viewing_time"":2419}]","80086","","","","","","","","","","","","","","","","","","","",""
"","comprehension_check","","survey-multi-choice","5","301700","0.0-1.0-0.1-1.1","0","0","44440","","38639","{""Q0"":""True"",""Q1"":""D"",""Q2"":""Once the second image appears and while the screen 'MAKE A CHOICE' is shown"",""Q3"":""Green mark"",""Q4"":""either D or K""}","0","","","","","","","","","","","","","","","","","",""
"","start_exp","","html-keyboard-response","6","307193","0.0-1.0-1.0","0","0","44440","","5486","","","32","","","","","","","","","","","","","","","","",""
"","S1","","html-keyboard-response","7","307454","0.0-1.0-2.0","0","0","44440","","null","","","null","0","","","","","","","","","","","","","","","",""
"","ISI","","html-keyboard-response","8","308473","0.0-1.0-3.0","0","0","44440","","null","","","null","0","NaN","","","","","","","","","","","","","","",""
"","S2","","html-keyboard-response","9","308733","0.0-1.0-4.0","0","0","44440","","null","","","null","0","","NaN","","","","","","","","","","","","","",""
"","response","","html-keyboard-response","10","310493","0.0-1.0-5.0-0.0","0","0","44440","","null","","","null","0","","","1","0","training","adjacent","BA","2","1","O.jpg","L.jpg","NaN","0","0","",""
"","too_slow_prompt","","html-keyboard-response","11","311499","0.0-1.0-7.0-0.0","1","0","44440","","null","","","null","","","","","","","","","","","","","","","","",""
"","time_out","","html-keyboard-response","12","313505","0.0-1.0-8.0-0.0","0","0","44440","","null","","","null","0","","","","","","","","","","","","","","","",""
"","ITI","","html-keyboard-response","13","314512","0.0-1.0-9.0","0","0","44440","","null","","","null","0","","","","","","","","","","","","","","","NaN",""
"","S1","","html-keyboard-response","14","314766","0.0-1.0-11.0","0","0","44440","","null","","","null","1","","","","","","","","","","","","","","","",""
"","ISI","","html-keyboard-response","15","315771","0.0-1.0-12.0","0","0","44440","","null","","","null","1","NaN","","","","","","","","","","","","","","",""
"","S2","","html-keyboard-response","16","316030","0.0-1.0-13.0","0","0","44440","","null","","","null","1","","NaN","","","","","","","","","","","","","",""
"","response","","html-keyboard-response","17","317834","0.0-1.0-14.0-0.0","0","0","44440","","null","","","null","1","","","1","1","training","adjacent","DC","4","3","P.jpg","R.jpg","NaN","0","0","",""
"","too_slow_prompt","","html-keyboard-response","18","318839","0.0-1.0-16.0-0.0","1","0","44440","","null","","","null","","","","","","","","","","","","","","","","",""
"","time_out","","html-keyboard-response","19","320847","0.0-1.0-17.0-0.0","0","0","44440","","null","","","null","1","","","","","","","","","","","","","","","",""
"","ITI","","html-keyboard-response","20","321853","0.0-1.0-18.0","0","0","44440","","null","","","null","1","","","","","","","","","","","","","","","NaN",""
"","S1","","html-keyboard-response","21","322123","0.0-1.0-20.0","0","0","44440","","null","","","null","2","","","","","","","","","","","","","","","",""
"","ISI","","html-keyboard-response","22","323131","0.0-1.0-21.0","0","0","44440","","null","","","null","2","NaN","","","","","","","","","","","","","","",""
"","S2","","html-keyboard-response","23","323389","0.0-1.0-22.0","0","0","44440","","null","","","null","2","","NaN","","","","","","","","","","","","","",""
"","response","","html-keyboard-response","24","325148","0.0-1.0-23.0-0.0","0","0","44440","","null","","","null","2","","","1","2","training","adjacent","BC","2","3","O.jpg","R.jpg","NaN","1","0","",""
"","too_slow_prompt","","html-keyboard-response","25","326152","0.0-1.0-25.0-0.0","1","0","44440","","null","","","null","","","","","","","","","","","","","","","","",""
"","time_out","","html-keyboard-response","26","328156","0.0-1.0-26.0-0.0","0","0","44440","","null","","","null","2","","","","","","","","","","","","","","","",""
"","ITI","","html-keyboard-response","27","329182","0.0-1.0-27.0","0","0","44440","","null","","","null","2","","","","","","","","","","","","","","","NaN",""
"","S1","","html-keyboard-response","28","329475","0.0-1.0-29.0","0","0","44440","","null","","","null","3","","","","","","","","","","","","","","","",""
"","ISI","","html-keyboard-response","29","330482","0.0-1.0-30.0","0","0","44440","","null","","","null","3","NaN","","","","","","","","","","","","","","",""
"","S2","","html-keyboard-response","30","330738","0.0-1.0-31.0","0","0","44440","","null","","","null","3","","NaN","","","","","","","","","","","","","",""
"","response","","html-keyboard-response","31","332495","0.0-1.0-32.0-0.0","0","0","44440","","null","","","null","3","","","1","3","training","adjacent","AB","1","2","L.jpg","O.jpg","NaN","1","0","",""
"","too_slow_prompt","","html-keyboard-response","32","333503","0.0-1.0-34.0-0.0","1","0","44440","","null","","","null","","","","","","","","","","","","","","","","",""
"","time_out","","html-keyboard-response","33","335509","0.0-1.0-35.0-0.0","0","0","44440","","null","","","null","3","","","","","","","","","","","","","","","",""
"","ITI","","html-keyboard-response","34","336514","0.0-1.0-36.0","0","0","44440","","null","","","null","3","","","","","","","","","","","","","","","NaN",""
"","S1","","html-keyboard-response","35","336785","0.0-1.0-38.0","0","0","44440","","null","","","null","4","","","","","","","","","","","","","","","",""
"","ISI","","html-keyboard-response","36","337794","0.0-1.0-39.0","0","0","44440","","null","","","null","4","NaN","","","","","","","","","","","","","","",""
"","S2","","html-keyboard-response","37","338068","0.0-1.0-40.0","0","0","44440","","null","","","null","4","","NaN","","","","","","","","","","","","","",""
"","response","","html-keyboard-response","38","341467","0.0-1.0-41.0-0.0","0","0","44440","","null","","","null","4","","","1","4","training","adjacent","FG","6","7","M.jpg","Q.jpg","NaN","1","0","",""
"","too_slow_prompt","","html-keyboard-response","39","342781","0.0-1.0-43.0-0.0","1","0","44440","","null","","","null","","","","","","","","","","","","","","","","",""
"","time_out","","html-keyboard-response","40","345743","0.0-1.0-44.0-0.0","0","0","44440","","null","","","null","4","","","","","","","","","","","","","","","",""
"","ITI","","html-keyboard-response","41","347761","0.0-1.0-45.0","0","0","44440","","null","","","null","4","","","","","","","","","","","","","","","NaN",""
"","S1","","html-keyboard-response","42","348750","0.0-1.0-47.0","0","0","44440","","null","","","null","5","","","","","","","","","","","","","","","",""
"","ISI","","html-keyboard-response","43","350751","0.0-1.0-48.0","0","0","44440","","null","","","null","5","NaN","","","","","","","","","","","","","","",""
"","S2","","html-keyboard-response","44","351744","0.0-1.0-49.0","0","0","44440","","null","","","null","5","","NaN","","","","","","","","","","","","","",""
"","response","","html-keyboard-response","45","353747","0.0-1.0-50.0-0.0","0","0","44440","","null","","","null","5","","","1","5","training","adjacent","EF","5","6","N.jpg","M.jpg","NaN","1","0","",""
"","too_slow_prompt","","html-keyboard-response","46","355979","0.0-1.0-52.0-0.0","1","0","44440","","null","","","null","","","","","","","","","","","","","","","","",""
"","time_out","","html-keyboard-response","47","358743","0.0-1.0-53.0-0.0","0","0","44440","","null","","","null","5","","","","","","","","","","","","","","","",""
"","ITI","","html-keyboard-response","48","360792","0.0-1.0-54.0","0","0","44440","","null","","","null","5","","","","","","","","","","","","","","","NaN",""
"","S1","","html-keyboard-response","49","361759","0.0-1.0-56.0","0","0","44440","","null","","","null","6","","","","","","","","","","","","","","","",""
"","ISI","","html-keyboard-response","50","363872","0.0-1.0-57.0","0","0","44440","","null","","","null","6","NaN","","","","","","","","","","","","","","",""
"","S2","","html-keyboard-response","51","364743","0.0-1.0-58.0","0","0","44440","","null","","","null","6","","NaN","","","","","","","","","","","","","",""
"","response","","html-keyboard-response","52","366743","0.0-1.0-59.0-0.0","0","0","44440","","null","","","null","6","","","1","6","training","adjacent","GF","7","6","Q.jpg","M.jpg","NaN","0","0","",""
"","too_slow_prompt","","html-keyboard-response","53","368779","0.0-1.0-61.0-0.0","1","0","44440","","null","","","null","","","","","","","","","","","","","","","","",""
"","time_out","","html-keyboard-response","54","371756","0.0-1.0-62.0-0.0","0","0","44440","","null","","","null","6","","","","","","","","","","","","","","","",""
"","ITI","","html-keyboard-response","55","373744","0.0-1.0-63.0","0","0","44440","","null","","","null","6","","","","","","","","","","","","","","","NaN",""
"","S1","","html-keyboard-response","56","374742","0.0-1.0-65.0","0","0","44440","","null","","","null","7","","","","","","","","","","","","","","","",""
"","ISI","","html-keyboard-response","57","377119","0.0-1.0-66.0","0","0","44440","","null","","","null","7","NaN","","","","","","","","","","","","","","",""
"","S2","","html-keyboard-response","58","377744","0.0-1.0-67.0","0","0","44440","","null","","","null","7","","NaN","","","","","","","","","","","","","",""
"","response","","html-keyboard-response","59","379882","0.0-1.0-68.0-0.0","0","0","44440","","null","","","null","7","","","1","7","training","adjacent","FE","6","5","M.jpg","N.jpg","NaN","0","0","",""
"","too_slow_prompt","","html-keyboard-response","60","381766","0.0-1.0-70.0-0.0","1","0","44440","","null","","","null","","","","","","","","","","","","","","","","",""
"","time_out","","html-keyboard-response","61","384746","0.0-1.0-71.0-0.0","0","0","44440","","null","","","null","7","","","","","","","","","","","","","","","",""
"","ITI","","html-keyboard-response","62","389260","0.0-1.0-72.0","0","0","44440","","null","","","null","7","","","","","","","","","","","","","","","NaN",""
"","S1","","html-keyboard-response","63","389526","0.0-1.0-74.0","0","0","44440","","null","","","null","8","","","","","","","","","","","","","","","",""
"","ISI","","html-keyboard-response","64","390702","0.0-1.0-75.0","0","0","44440","","null","","","null","8","NaN","","","","","","","","","","","","","","",""
"","S2","","html-keyboard-response","65","391097","0.0-1.0-76.0","0","0","44440","","null","","","null","8","","NaN","","","","","","","","","","","","","",""
"","response","","html-keyboard-response","66","392854","0.0-1.0-77.0-0.0","0","0","44440","","null","","","null","8","","","1","8","training","adjacent","BA","2","1","O.jpg","L.jpg","NaN","0","0","",""
"","too_slow_prompt","","html-keyboard-response","67","393877","0.0-1.0-79.0-0.0","1","0","44440","","null","","","null","","","","","","","","","","","","","","","","",""
"","time_out","","html-keyboard-response","68","395956","0.0-1.0-80.0-0.0","0","0","44440","","null","","","null","8","","","","","","","","","","","","","","","",""
"","ITI","","html-keyboard-response","69","396960","0.0-1.0-81.0","0","0","44440","","null","","","null","8","","","","","","","","","","","","","","","NaN",""
"","S1","","html-keyboard-response","70","397219","0.0-1.0-83.0","0","0","44440","","null","","","null","9","","","","","","","","","","","","","","","",""
"","ISI","","html-keyboard-response","71","398234","0.0-1.0-84.0","0","0","44440","","null","","","null","9","NaN","","","","","","","","","","","","","","",""
"","S2","","html-keyboard-response","72","398502","0.0-1.0-85.0","0","0","44440","","null","","","null","9","","NaN","","","","","","","","","","","","","",""
"","response","","html-keyboard-response","73","400258","0.0-1.0-86.0-0.0","0","0","44440","","null","","","null","9","","","1","9","training","adjacent","DC","4","3","P.jpg","R.jpg","NaN","0","0","",""
"","too_slow_prompt","","html-keyboard-response","74","401263","0.0-1.0-88.0-0.0","1","0","44440","","null","","","null","","","","","","","","","","","","","","","","",""
"","time_out","","html-keyboard-response","75","403269","0.0-1.0-89.0-0.0","0","0","44440","","null","","","null","9","","","","","","","","","","","","","","","",""
"","ITI","","html-keyboard-response","76","404275","0.0-1.0-90.0","0","0","44440","","null","","","null","9","","","","","","","","","","","","","","","NaN",""
"","S1","","html-keyboard-response","77","404533","0.0-1.0-92.0","0","0","44440","","null","","","null","10","","","","","","","","","","","","","","","",""
"","ISI","","html-keyboard-response","78","405538","0.0-1.0-93.0","0","0","44440","","null","","","null","10","NaN","","","","","","","","","","","","","","",""
"","S2","","html-keyboard-response","79","405792","0.0-1.0-94.0","0","0","44440","","null","","","null","10","","NaN","","","","","","","","","","","","","",""
"","response","","html-keyboard-response","80","407551","0.0-1.0-95.0-0.0","0","0","44440","","null","","","null","10","","","1","10","training","adjacent","FG","6","7","M.jpg","Q.jpg","NaN","1","0","",""
"","too_slow_prompt","","html-keyboard-response","81","408606","0.0-1.0-97.0-0.0","1","0","44440","","null","","","null","","","","","","","","","","","","","","","","",""
"","time_out","","html-keyboard-response","82","410612","0.0-1.0-98.0-0.0","0","0","44440","","null","","","null","10","","","","","","","","","","","","","","","",""
"","ITI","","html-keyboard-response","83","411641","0.0-1.0-99.0","0","0","44440","","null","","","null","10","","","","","","","","","","","","","","","NaN",""
"","S1","","html-keyboard-response","84","411895","0.0-1.0-101.0","0","0","44440","","null","","","null","11","","","","","","","","","","","","","","","",""
"","ISI","","html-keyboard-response","85","412901","0.0-1.0-102.0","0","0","44440","","null","","","null","11","NaN","","","","","","","","","","","","","","",""
"","S2","","html-keyboard-response","86","413157","0.0-1.0-103.0","0","0","44440","","null","","","null","11","","NaN","","","","","","","","","","","","","",""
"","response","","html-keyboard-response","87","414447","0.0-1.0-104.0-0.0","0","0","44440","","1284","","","75","11","","","1","11","training","adjacent","FE","6","5","M.jpg","N.jpg","0","0","1","",""
"","feedback","","html-keyboard-response","88","415454","0.0-1.0-105.0-0.0","0","0","44440","","null","","","null","11","","","","","","","","","","","","","","","",""
"","ITI","","html-keyboard-response","89","416481","0.0-1.0-108.0","0","0","44440","","null","","","null","11","","","","","","","","","","","","","","","NaN",""
"","S1","","html-keyboard-response","90","416763","0.0-1.0-110.0","0","0","44440","","null","","","null","12","","","","","","","","","","","","","","","",""
"","ISI","","html-keyboard-response","91","417804","0.0-1.0-111.0","0","0","44440","","524","","","75","12","k","","","","","","","","","","","","","","",""
"","S2","","html-keyboard-response","92","418063","0.0-1.0-112.0","0","0","44440","","null","","","null","12","","NaN","","","","","","","","","","","","","",""
"","response","","html-keyboard-response","93","418616","0.0-1.0-113.0-0.0","0","0","44440","","547","","","75","12","","","1","12","training","adjacent","BA","2","1","O.jpg","L.jpg","0","0","1","",""
"","feedback","","html-keyboard-response","94","419627","0.0-1.0-114.0-0.0","0","0","44440","","null","","","null","12","","","","","","","","","","","","","","","",""
"","ITI","","html-keyboard-response","95","420637","0.0-1.0-117.0","0","0","44440","","null","","","null","12","","","","","","","","","","","","","","","NaN",""
"","S1","","html-keyboard-response","96","420909","0.0-1.0-119.0","0","0","44440","","null","","","null","13","","","","","","","","","","","","","","","",""
"","ISI","","html-keyboard-response","97","421914","0.0-1.0-120.0","0","0","44440","","null","","","null","13","NaN","","","","","","","","","","","","","","",""
"","S2","","html-keyboard-response","98","422177","0.0-1.0-121.0","0","0","44440","","null","","","null","13","","NaN","","","","","","","","","","","","","",""
"","response","","html-keyboard-response","99","422962","0.0-1.0-122.0-0.0","0","0","44440","","777","","","75","13","","","1","13","training","adjacent","DC","4","3","P.jpg","R.jpg","0","0","1","",""
"","feedback","","html-keyboard-response","100","423967","0.0-1.0-123.0-0.0","0","0","44440","","null","","","null","13","","","","","","","","","","","","","","","",""
"","ITI","","html-keyboard-response","101","424976","0.0-1.0-126.0","0","0","44440","","null","","","null","13","","","","","","","","","","","","","","","NaN",""
"","S1","","html-keyboard-response","102","425232","0.0-1.0-128.0","0","0","44440","","null","","","null","14","","","","","","","","","","","","","","","",""
"","ISI","","html-keyboard-response","103","426236","0.0-1.0-129.0","0","0","44440","","null","","","null","14","NaN","","","","","","","","","","","","","","",""
"","S2","","html-keyboard-response","104","426498","0.0-1.0-130.0","0","0","44440","","null","","","null","14","","NaN","","","","","","","","","","","","","",""
"","response","","html-keyboard-response","105","426798","0.0-1.0-131.0-0.0","0","0","44440","","295","","","68","14","","","1","14","training","adjacent","BC","2","3","O.jpg","R.jpg","1","1","1","",""
"","feedback","","html-keyboard-response","106","427803","0.0-1.0-132.0-0.0","0","0","44440","","null","","","null","14","","","","","","","","","","","","","","","",""
"","ITI","","html-keyboard-response","107","428812","0.0-1.0-135.0","0","0","44440","","795","","","75","14","","","","","","","","","","","","","","","k",""
"","S1","","html-keyboard-response","108","429067","0.0-1.0-137.0","0","0","44440","","null","","","null","15","","","","","","","","","","","","","","","",""
"","ISI","","html-keyboard-response","109","430155","0.0-1.0-138.0","0","0","44440","","584","","","75","15","k","","","","","","","","","","","","","","",""
"","S2","","html-keyboard-response","110","430353","0.0-1.0-139.0","0","0","44440","","193","","","68","15","","d","1","15","training","adjacent","FG","6","7","M.jpg","Q.jpg","1","1","1","",""
"","feedback","","html-keyboard-response","111","431359","0.0-1.0-141.0-0.0","0","0","44440","","null","","","null","15","","","","","","","","","","","","","","","",""
"","ITI","","html-keyboard-response","112","432365","0.0-1.0-144.0","0","0","44440","","null","","","null","15","","","","","","","","","","","","","","","NaN",""
"","S1","","html-keyboard-response","113","432629","0.0-1.0-146.0","0","0","44440","","null","","","null","16","","","","","","","","","","","","","","","",""
"","ISI","","html-keyboard-response","114","433633","0.0-1.0-147.0","0","0","44440","","null","","","null","16","NaN","","","","","","","","","","","","","","",""
"","S2","","html-keyboard-response","115","433891","0.0-1.0-148.0","0","0","44440","","null","","","null","16","","NaN","","","","","","","","","","","","","",""
"","response","","html-keyboard-response","116","434270","0.0-1.0-149.0-0.0","0","0","44440","","374","","","68","16","","","1","16","training","adjacent","DE","4","5","P.jpg","N.jpg","1","1","1","",""
"","feedback","","html-keyboard-response","117","435275","0.0-1.0-150.0-0.0","0","0","44440","","null","","","null","16","","","","","","","","","","","","","","","",""
"","ITI","","html-keyboard-response","118","436281","0.0-1.0-153.0","0","0","44440","","null","","","null","16","","","","","","","","","","","","","","","NaN",""
"","S1","","html-keyboard-response","119","436537","0.0-1.0-155.0","0","0","44440","","null","","","null","17","","","","","","","","","","","","","","","",""
"","ISI","","html-keyboard-response","120","437545","0.0-1.0-156.0","0","0","44440","","null","","","null","17","NaN","","","","","","","","","","","","","","",""
"","S2","","html-keyboard-response","121","437804","0.0-1.0-157.0","0","0","44440","","null","","","null","17","","NaN","","","","","","","","","","","","","",""
"","response","","html-keyboard-response","122","438547","0.0-1.0-158.0-0.0","0","0","44440","","735","","","68","17","","","1","17","training","adjacent","AB","1","2","L.jpg","O.jpg","1","1","1","",""
"","feedback","","html-keyboard-response","123","439554","0.0-1.0-159.0-0.0","0","0","44440","","null","","","null","17","","","","","","","","","","","","","","","",""
"","ITI","","html-keyboard-response","124","440561","0.0-1.0-162.0","0","0","44440","","null","","","null","17","","","","","","","","","","","","","","","NaN",""
"","S1","","html-keyboard-response","125","440817","0.0-1.0-164.0","0","0","44440","","null","","","null","18","","","","","","","","","","","","","","","",""
"","ISI","","html-keyboard-response","126","441822","0.0-1.0-165.0","0","0","44440","","433","","","75","18","k","","","","","","","","","","","","","","",""
"","S2","","html-keyboard-response","127","442078","0.0-1.0-166.0","0","0","44440","","null","","","null","18","","NaN","","","","","","","","","","","","","",""
"","response","","html-keyboard-response","128","442989","0.0-1.0-167.0-0.0","0","0","44440","","904","","","68","18","","","1","18","training","adjacent","GF","7","6","Q.jpg","M.jpg","1","0","0","",""
"","feedback","","html-keyboard-response","129","443996","0.0-1.0-168.0-0.0","0","0","44440","","null","","","null","18","","","","","","","","","","","","","","","",""
"","time_out","","html-keyboard-response","130","446024","0.0-1.0-170.0-0.0","0","0","44440","","null","","","null","18","","","","","","","","","","","","","","","",""
"","ITI","","html-keyboard-response","131","447030","0.0-1.0-171.0","0","0","44440","","null","","","null","18","","","","","","","","","","","","","","","NaN",""
"","S1","","html-keyboard-response","132","447283","0.0-1.0-173.0","0","0","44440","","null","","","null","19","","","","","","","","","","","","","","","",""
"","ISI","","html-keyboard-response","133","448289","0.0-1.0-174.0","0","0","44440","","null","","","null","19","NaN","","","","","","","","","","","","","","",""
"","S2","","html-keyboard-response","134","448549","0.0-1.0-175.0","0","0","44440","","null","","","null","19","","NaN","","","","","","","","","","","","","",""
"","response","","html-keyboard-response","135","448970","0.0-1.0-176.0-0.0","0","0","44440","","413","","","75","19","","","1","19","training","adjacent","GF","7","6","Q.jpg","M.jpg","0","0","1","",""
"","feedback","","html-keyboard-response","136","449980","0.0-1.0-177.0-0.0","0","0","44440","","null","","","null","19","","","","","","","","","","","","","","","",""
"","ITI","","html-keyboard-response","137","450988","0.0-1.0-180.0","0","0","44440","","null","","","null","19","","","","","","","","","","","","","","","NaN",""
"","S1","","html-keyboard-response","138","451246","0.0-1.0-182.0","0","0","44440","","null","","","null","20","","","","","","","","","","","","","","","",""
"","ISI","","html-keyboard-response","139","452252","0.0-1.0-183.0","0","0","44440","","417","","","68","20","d","","","","","","","","","","","","","","",""
"","S2","","html-keyboard-response","140","452515","0.0-1.0-184.0","0","0","44440","","null","","","null","20","","NaN","","","","","","","","","","","","","",""
"","response","","html-keyboard-response","141","453091","0.0-1.0-185.0-0.0","0","0","44440","","561","","","68","20","","","1","20","training","adjacent","BC","2","3","O.jpg","R.jpg","1","1","1","",""
"","feedback","","html-keyboard-response","142","454128","0.0-1.0-186.0-0.0","0","0","44440","","null","","","null","20","","","","","","","","","","","","","","","",""
"","ITI","","html-keyboard-response","143","455137","0.0-1.0-189.0","0","0","44440","","null","","","null","20","","","","","","","","","","","","","","","NaN",""
"","S1","","html-keyboard-response","144","455452","0.0-1.0-191.0","0","0","44440","","null","","","null","21","","","","","","","","","","","","","","","",""
"","ISI","","html-keyboard-response","145","456460","0.0-1.0-192.0","0","0","44440","","557","","","75","21","k","","","","","","","","","","","","","","",""
"","S2","","html-keyboard-response","146","456740","0.0-1.0-193.0","0","0","44440","","null","","","null","21","","NaN","","","","","","","","","","","","","",""
"","response","","html-keyboard-response","147","457445","0.0-1.0-194.0-0.0","0","0","44440","","699","","","68","21","","","1","21","training","adjacent","FE","6","5","M.jpg","N.jpg","1","0","0","",""
"","feedback","","html-keyboard-response","148","458491","0.0-1.0-195.0-0.0","0","0","44440","","null","","","null","21","","","","","","","","","","","","","","","",""
"","time_out","","html-keyboard-response","149","460501","0.0-1.0-197.0-0.0","0","0","44440","","null","","","null","21","","","","","","","","","","","","","","","",""
"","ITI","","html-keyboard-response","150","461540","0.0-1.0-198.0","0","0","44440","","null","","","null","21","","","","","","","","","","","","","","","NaN",""
"","S1","","html-keyboard-response","151","461796","0.0-1.0-200.0","0","0","44440","","null","","","null","22","","","","","","","","","","","","","","","",""
"","ISI","","html-keyboard-response","152","462872","0.0-1.0-201.0","0","0","44440","","null","","","null","22","NaN","","","","","","","","","","","","","","",""
"","S2","","html-keyboard-response","153","463128","0.0-1.0-202.0","0","0","44440","","null","","","null","22","","NaN","","","","","","","","","","","","","",""
"","response","","html-keyboard-response","154","464992","0.0-1.0-203.0-0.0","0","0","44440","","null","","","null","22","","","1","22","training","adjacent","CD","3","4","R.jpg","P.jpg","NaN","1","0","",""
"","too_slow_prompt","","html-keyboard-response","155","466000","0.0-1.0-205.0-0.0","1","0","44440","","null","","","null","","","","","","","","","","","","","","","","",""
"","time_out","","html-keyboard-response","156","468009","0.0-1.0-206.0-0.0","0","0","44440","","null","","","null","22","","","","","","","","","","","","","","","",""
"","ITI","","html-keyboard-response","157","469016","0.0-1.0-207.0","0","0","44440","","null","","","null","22","","","","","","","","","","","","","","","NaN",""
"","S1","","html-keyboard-response","158","469287","0.0-1.0-209.0","0","0","44440","","null","","","null","23","","","","","","","","","","","","","","","",""
"","ISI","","html-keyboard-response","159","470293","0.0-1.0-210.0","0","0","44440","","84","","","68","23","d","","","","","","","","","","","","","","",""
"","S2","","html-keyboard-response","160","470531","0.0-1.0-211.0","0","0","44440","","232","","","68","23","","d","1","23","training","adjacent","FG","6","7","M.jpg","Q.jpg","1","1","1","",""
"","feedback","","html-keyboard-response","161","471582","0.0-1.0-213.0-0.0","0","0","44440","","null","","","null","23","","","","","","","","","","","","","","","",""
"","ITI","","html-keyboard-response","162","472590","0.0-1.0-216.0","0","0","44440","","null","","","null","23","","","","","","","","","","","","","","","NaN",""
"","S1","","html-keyboard-response","163","472847","0.0-1.0-218.0","0","0","44440","","null","","","null","24","","","","","","","","","","","","","","","",""
"","ISI","","html-keyboard-response","164","473853","0.0-1.0-219.0","0","0","44440","","511","","","68","24","d","","","","","","","","","","","","","","",""
"","S2","","html-keyboard-response","165","474012","0.0-1.0-220.0","0","0","44440","","154","","","68","24","","d","1","24","training","adjacent","DE","4","5","P.jpg","N.jpg","1","1","1","",""
"","feedback","","html-keyboard-response","166","475017","0.0-1.0-222.0-0.0","0","0","44440","","null","","","null","24","","","","","","","","","","","","","","","",""
"","ITI","","html-keyboard-response","167","476034","0.0-1.0-225.0","0","0","44440","","null","","","null","24","","","","","","","","","","","","","","","NaN",""
"","S1","","html-keyboard-response","168","476298","0.0-1.0-227.0","0","0","44440","","null","","","null","25","","","","","","","","","","","","","","","",""
"","ISI","","html-keyboard-response","169","477305","0.0-1.0-228.0","0","0","44440","","null","","","null","25","NaN","","","","","","","","","","","","","","",""
"","S2","","html-keyboard-response","170","477576","0.0-1.0-229.0","0","0","44440","","null","","","null","25","","NaN","","","","","","","","","","","","","",""
"","response","","html-keyboard-response","171","478810","0.0-1.0-230.0-0.0","0","0","44440","","1107","","","75","25","","","1","25","training","adjacent","EF","5","6","N.jpg","M.jpg","0","1","0","",""
"","feedback","","html-keyboard-response","172","479819","0.0-1.0-231.0-0.0","0","0","44440","","null","","","null","25","","","","","","","","","","","","","","","",""
"","time_out","","html-keyboard-response","173","481828","0.0-1.0-233.0-0.0","0","0","44440","","null","","","null","25","","","","","","","","","","","","","","","",""
"","ITI","","html-keyboard-response","174","482838","0.0-1.0-234.0","0","0","44440","","null","","","null","25","","","","","","","","","","","","","","","NaN",""
"","S1","","html-keyboard-response","175","483092","0.0-1.0-236.0","0","0","44440","","null","","","null","26","","","","","","","","","","","","","","","",""
"","ISI","","html-keyboard-response","176","484123","0.0-1.0-237.0","0","0","44440","","757","","","20","26","capslock","","","","","","","","","","","","","","",""
"","S2","","html-keyboard-response","177","484384","0.0-1.0-238.0","0","0","44440","","null","","","null","26","","NaN","","","","","","","","","","","","","",""
"","response","","html-keyboard-response","178","484712","0.0-1.0-239.0-0.0","0","0","44440","","317","","","75","26","","","1","26","training","adjacent","CB","3","2","R.jpg","O.jpg","0","0","1","",""
"","feedback","","html-keyboard-response","179","485720","0.0-1.0-240.0-0.0","0","0","44440","","null","","","null","26","","","","","","","","","","","","","","","",""
"","ITI","","html-keyboard-response","180","486886","0.0-1.0-243.0","0","0","44440","","null","","","null","26","","","","","","","","","","","","","","","NaN",""
"","S1","","html-keyboard-response","181","487148","0.0-1.0-245.0","0","0","44440","","null","","","null","27","","","","","","","","","","","","","","","",""
"","ISI","","html-keyboard-response","182","488168","0.0-1.0-246.0","0","0","44440","","715","","","75","27","k","","","","","","","","","","","","","","",""
"","S2","","html-keyboard-response","183","488399","0.0-1.0-247.0","0","0","44440","","227","","","75","27","","k","1","27","training","adjacent","CD","3","4","R.jpg","P.jpg","0","1","0","",""
"","feedback","","html-keyboard-response","184","489405","0.0-1.0-249.0-0.0","0","0","44440","","null","","","null","27","","","","","","","","","","","","","","","",""
"","time_out","","html-keyboard-response","185","491533","0.0-1.0-251.0-0.0","0","0","44440","","null","","","null","27","","","","","","","","","","","","","","","",""
"","ITI","","html-keyboard-response","186","492537","0.0-1.0-252.0","0","0","44440","","65","","","75","27","","","","","","","","","","","","","","","k",""
"","S1","","html-keyboard-response","187","492810","0.0-1.0-254.0","0","0","44440","","null","","","null","28","","","","","","","","","","","","","","","",""
"","ISI","","html-keyboard-response","188","493819","0.0-1.0-255.0","0","0","44440","","349","","","75","28","k","","","","","","","","","","","","","","",""
"","S2","","html-keyboard-response","189","494123","0.0-1.0-256.0","0","0","44440","","null","","","null","28","","NaN","","","","","","","","","","","","","",""
"","response","","html-keyboard-response","190","494270","0.0-1.0-257.0-0.0","0","0","44440","","132","","","68","28","","","1","28","training","adjacent","CD","3","4","R.jpg","P.jpg","1","1","1","",""
"","feedback","","html-keyboard-response","191","495275","0.0-1.0-258.0-0.0","0","0","44440","","null","","","null","28","","","","","","","","","","","","","","","",""
"","ITI","","html-keyboard-response","192","496283","0.0-1.0-261.0","0","0","44440","","43","","","68","28","","","","","","","","","","","","","","","d",""
"","S1","","html-keyboard-response","193","496548","0.0-1.0-263.0","0","0","44440","","null","","","null","29","","","","","","","","","","","","","","","",""
"","ISI","","html-keyboard-response","194","497640","0.0-1.0-264.0","0","0","44440","","460","","","68","29","d","","","","","","","","","","","","","","",""
"","S2","","html-keyboard-response","195","497899","0.0-1.0-265.0","0","0","44440","","null","","","null","29","","NaN","","","","","","","","","","","","","",""
"","response","","html-keyboard-response","196","498052","0.0-1.0-266.0-0.0","0","0","44440","","148","","","75","29","","","1","29","training","adjacent","GF","7","6","Q.jpg","M.jpg","0","0","1","",""
"","feedback","","html-keyboard-response","197","499063","0.0-1.0-267.0-0.0","0","0","44440","","null","","","null","29","","","","","","","","","","","","","","","",""
"","ITI","","html-keyboard-response","198","500072","0.0-1.0-270.0","0","0","44440","","831","","","68","29","","","","","","","","","","","","","","","d",""
"","S1","","html-keyboard-response","199","500326","0.0-1.0-272.0","0","0","44440","","null","","","null","30","","","","","","","","","","","","","","","",""
"","ISI","","html-keyboard-response","200","501331","0.0-1.0-273.0","0","0","44440","","326","","","20","30","capslock","","","","","","","","","","","","","","",""
"","S2","","html-keyboard-response","201","501539","0.0-1.0-274.0","0","0","44440","","203","","","75","30","","k","1","30","training","adjacent","ED","5","4","N.jpg","P.jpg","0","0","1","",""
"","feedback","","html-keyboard-response","202","502552","0.0-1.0-276.0-0.0","0","0","44440","","null","","","null","30","","","","","","","","","","","","","","","",""
"","ITI","","html-keyboard-response","203","503562","0.0-1.0-279.0","0","0","44440","","756","","","20","30","","","","","","","","","","","","","","","capslock",""
"","S1","","html-keyboard-response","204","503817","0.0-1.0-281.0","0","0","44440","","null","","","null","31","","","","","","","","","","","","","","","",""
"","ISI","","html-keyboard-response","205","504820","0.0-1.0-282.0","0","0","44440","","390","","","20","31","capslock","","","","","","","","","","","","","","",""
"","S2","","html-keyboard-response","206","505014","0.0-1.0-283.0","0","0","44440","","188","","","68","31","","d","1","31","training","adjacent","DE","4","5","P.jpg","N.jpg","1","1","1","",""
"","feedback","","html-keyboard-response","207","506023","0.0-1.0-285.0-0.0","0","0","44440","","null","","","null","31","","","","","","","","","","","","","","","",""
"","ITI","","html-keyboard-response","208","507032","0.0-1.0-288.0","0","0","44440","","444","","","20","31","","","","","","","","","","","","","","","capslock",""
"","S1","","html-keyboard-response","209","507302","0.0-1.0-290.0","0","0","44440","","null","","","null","32","","","","","","","","","","","","","","","",""
"","ISI","","html-keyboard-response","210","508316","0.0-1.0-291.0","0","0","44440","","254","","","75","32","k","","","","","","","","","","","","","","",""
"","S2","","html-keyboard-response","211","508333","0.0-1.0-292.0","0","0","44440","","11","","","68","32","","d","1","32","training","adjacent","ED","5","4","N.jpg","P.jpg","1","0","0","",""
"","feedback","","html-keyboard-response","212","509339","0.0-1.0-294.0-0.0","0","0","44440","","null","","","null","32","","","","","","","","","","","","","","","",""
"","time_out","","html-keyboard-response","213","511348","0.0-1.0-296.0-0.0","0","0","44440","","null","","","null","32","","","","","","","","","","","","","","","",""
"","ITI","","html-keyboard-response","214","512354","0.0-1.0-297.0","0","0","44440","","null","","","null","32","","","","","","","","","","","","","","","NaN",""
"","S1","","html-keyboard-response","215","512609","0.0-1.0-299.0","0","0","44440","","null","","","null","33","","","","","","","","","","","","","","","",""
"","ISI","","html-keyboard-response","216","513632","0.0-1.0-300.0","0","0","44440","","238","","","75","33","k","","","","","","","","","","","","","","",""
"","S2","","html-keyboard-response","217","513887","0.0-1.0-301.0","0","0","44440","","null","","","null","33","","NaN","","","","","","","","","","","","","",""
"","response","","html-keyboard-response","218","514282","0.0-1.0-302.0-0.0","0","0","44440","","387","","","68","33","","","1","33","training","adjacent","DC","4","3","P.jpg","R.jpg","1","0","0","",""
"","feedback","","html-keyboard-response","219","515296","0.0-1.0-303.0-0.0","0","0","44440","","null","","","null","33","","","","","","","","","","","","","","","",""
"","time_out","","html-keyboard-response","220","517310","0.0-1.0-305.0-0.0","0","0","44440","","null","","","null","33","","","","","","","","","","","","","","","",""
"","ITI","","html-keyboard-response","221","518317","0.0-1.0-306.0","0","0","44440","","null","","","null","33","","","","","","","","","","","","","","","NaN",""
"","S1","","html-keyboard-response","222","518573","0.0-1.0-308.0","0","0","44440","","null","","","null","34","","","","","","","","","","","","","","","",""
"","ISI","","html-keyboard-response","223","519587","0.0-1.0-309.0","0","0","44440","","464","","","75","34","k","","","","","","","","","","","","","","",""
"","S2","","html-keyboard-response","224","519861","0.0-1.0-310.0","0","0","44440","","null","","","null","34","","NaN","","","","","","","","","","","","","",""
"","response","","html-keyboard-response","225","519915","0.0-1.0-311.0-0.0","0","0","44440","","49","","","68","34","","","1","34","training","adjacent","ED","5","4","N.jpg","P.jpg","1","0","0","",""
"","feedback","","html-keyboard-response","226","520922","0.0-1.0-312.0-0.0","0","0","44440","","null","","","null","34","","","","","","","","","","","","","","","",""
"","time_out","","html-keyboard-response","227","522940","0.0-1.0-314.0-0.0","0","0","44440","","null","","","null","34","","","","","","","","","","","","","","","",""
"","ITI","","html-keyboard-response","228","523946","0.0-1.0-315.0","0","0","44440","","null","","","null","34","","","","","","","","","","","","","","","NaN",""
"","S1","","html-keyboard-response","229","524207","0.0-1.0-317.0","0","0","44440","","null","","","null","35","","","","","","","","","","","","","","","",""
"","ISI","","html-keyboard-response","230","525236","0.0-1.0-318.0","0","0","44440","","null","","","null","35","NaN","","","","","","","","","","","","","","",""
"","S2","","html-keyboard-response","231","525499","0.0-1.0-319.0","0","0","44440","","null","","","null","35","","NaN","","","","","","","","","","","","","",""
"","response","","html-keyboard-response","232","526087","0.0-1.0-320.0-0.0","0","0","44440","","578","","","68","35","","","1","35","training","adjacent","EF","5","6","N.jpg","M.jpg","1","1","1","",""
"","feedback","","html-keyboard-response","233","527099","0.0-1.0-321.0-0.0","0","0","44440","","null","","","null","35","","","","","","","","","","","","","","","",""
"","ITI","","html-keyboard-response","234","528141","0.0-1.0-324.0","0","0","44440","","null","","","null","35","","","","","","","","","","","","","","","NaN",""
"","S1","","html-keyboard-response","235","528402","0.0-1.0-326.0","0","0","44440","","null","","","null","36","","","","","","","","","","","","","","","",""
"","ISI","","html-keyboard-response","236","529423","0.0-1.0-327.0","0","0","44440","","389","","","75","36","k","","","","","","","","","","","","","","",""
"","S2","","html-keyboard-response","237","529678","0.0-1.0-328.0","0","0","44440","","null","","","null","36","","NaN","","","","","","","","","","","","","",""
"","response","","html-keyboard-response","238","529931","0.0-1.0-329.0-0.0","0","0","44440","","248","","","75","36","","","1","36","training","adjacent","AB","1","2","L.jpg","O.jpg","0","1","0","",""
"","feedback","","html-keyboard-response","239","530936","0.0-1.0-330.0-0.0","0","0","44440","","null","","","null","36","","","","","","","","","","","","","","","",""
"","time_out","","html-keyboard-response","240","533110","0.0-1.0-332.0-0.0","0","0","44440","","null","","","null","36","","","","","","","","","","","","","","","",""
"","ITI","","html-keyboard-response","241","534124","0.0-1.0-333.0","0","0","44440","","null","","","null","36","","","","","","","","","","","","","","","NaN",""
"","S1","","html-keyboard-response","242","534395","0.0-1.0-335.0","0","0","44440","","null","","","null","37","","","","","","","","","","","","","","","",""
"","ISI","","html-keyboard-response","243","535401","0.0-1.0-336.0","0","0","44440","","null","","","null","37","NaN","","","","","","","","","","","","","","",""
"","S2","","html-keyboard-response","244","535662","0.0-1.0-337.0","0","0","44440","","null","","","null","37","","NaN","","","","","","","","","","","","","",""
"","response","","html-keyboard-response","245","537421","0.0-1.0-338.0-0.0","0","0","44440","","null","","","null","37","","","1","37","training","adjacent","FE","6","5","M.jpg","N.jpg","NaN","0","0","",""
"","too_slow_prompt","","html-keyboard-response","246","538466","0.0-1.0-340.0-0.0","1","0","44440","","null","","","null","","","","","","","","","","","","","","","","",""
"","time_out","","html-keyboard-response","247","540536","0.0-1.0-341.0-0.0","0","0","44440","","null","","","null","37","","","","","","","","","","","","","","","",""
"","ITI","","html-keyboard-response","248","541545","0.0-1.0-342.0","0","0","44440","","924","","","68","37","","","","","","","","","","","","","","","d",""
"","S1","","html-keyboard-response","249","541808","0.0-1.0-344.0","0","0","44440","","null","","","null","38","","","","","","","","","","","","","","","",""
"","ISI","","html-keyboard-response","250","542814","0.0-1.0-345.0","0","0","44440","","508","","","75","38","k","","","","","","","","","","","","","","",""
"","S2","","html-keyboard-response","251","543033","0.0-1.0-346.0","0","0","44440","","213","","","68","38","","d","1","38","training","adjacent","BA","2","1","O.jpg","L.jpg","1","0","0","",""
"","feedback","","html-keyboard-response","252","544039","0.0-1.0-348.0-0.0","0","0","44440","","null","","","null","38","","","","","","","","","","","","","","","",""
"","time_out","","html-keyboard-response","253","546741","0.0-1.0-350.0-0.0","0","0","44440","","null","","","null","38","","","","","","","","","","","","","","","",""
"","ITI","","html-keyboard-response","254","548767","0.0-1.0-351.0","0","0","44440","","null","","","null","38","","","","","","","","","","","","","","","NaN",""
"","S1","","html-keyboard-response","255","549849","0.0-1.0-353.0","0","0","44440","","null","","","null","39","","","","","","","","","","","","","","","",""
"","ISI","","html-keyboard-response","256","552049","0.0-1.0-354.0","0","0","44440","","null","","","null","39","NaN","","","","","","","","","","","","","","",""
"","S2","","html-keyboard-response","257","552743","0.0-1.0-355.0","0","0","44440","","null","","","null","39","","NaN","","","","","","","","","","","","","",""
"","response","","html-keyboard-response","258","554748","0.0-1.0-356.0-0.0","0","0","44440","","null","","","null","39","","","1","39","training","adjacent","AB","1","2","L.jpg","O.jpg","NaN","1","0","",""
"","too_slow_prompt","","html-keyboard-response","259","556743","0.0-1.0-358.0-0.0","1","0","44440","","null","","","null","","","","","","","","","","","","","","","","",""
"","time_out","","html-keyboard-response","260","559744","0.0-1.0-359.0-0.0","0","0","44440","","null","","","null","39","","","","","","","","","","","","","","","",""
"","ITI","","html-keyboard-response","261","560761","0.0-1.0-360.0","0","0","44440","","null","","","null","39","","","","","","","","","","","","","","","NaN",""
"","S1","","html-keyboard-response","262","561015","0.0-1.0-362.0","0","0","44440","","null","","","null","40","","","","","","","","","","","","","","","",""
"","ISI","","html-keyboard-response","263","562067","0.0-1.0-363.0","0","0","44440","","null","","","null","40","NaN","","","","","","","","","","","","","","",""
"","S2","","html-keyboard-response","264","562324","0.0-1.0-364.0","0","0","44440","","null","","","null","40","","NaN","","","","","","","","","","","","","",""
"","response","","html-keyboard-response","265","564060","0.0-1.0-365.0-0.0","0","0","44440","","1729","","","75","40","","","1","40","training","adjacent","ED","5","4","N.jpg","P.jpg","0","0","1","",""
"","feedback","","html-keyboard-response","266","565074","0.0-1.0-366.0-0.0","0","0","44440","","null","","","null","40","","","","","","","","","","","","","","","",""
"","ITI","","html-keyboard-response","267","566084","0.0-1.0-369.0","0","0","44440","","578","","","75","40","","","","","","","","","","","","","","","k",""
"","S1","","html-keyboard-response","268","566348","0.0-1.0-371.0","0","0","44440","","null","","","null","41","","","","","","","","","","","","","","","",""
"","ISI","","html-keyboard-response","269","567356","0.0-1.0-372.0","0","0","44440","","342","","","68","41","d","","","","","","","","","","","","","","",""
"","S2","","html-keyboard-response","270","567492","0.0-1.0-373.0","0","0","44440","","131","","","75","41","","k","1","41","training","adjacent","EF","5","6","N.jpg","M.jpg","0","1","0","",""
"","feedback","","html-keyboard-response","271","568650","0.0-1.0-375.0-0.0","0","0","44440","","null","","","null","41","","","","","","","","","","","","","","","",""
"","time_out","","html-keyboard-response","272","570657","0.0-1.0-377.0-0.0","0","0","44440","","null","","","null","41","","","","","","","","","","","","","","","",""
"","ITI","","html-keyboard-response","273","571665","0.0-1.0-378.0","0","0","44440","","148","","","68","41","","","","","","","","","","","","","","","d",""
"","S1","","html-keyboard-response","274","571971","0.0-1.0-380.0","0","0","44440","","null","","","null","42","","","","","","","","","","","","","","","",""
"","ISI","","html-keyboard-response","275","572977","0.0-1.0-381.0","0","0","44440","","599","","","68","42","d","","","","","","","","","","","","","","",""
"","S2","","html-keyboard-response","276","573266","0.0-1.0-382.0","0","0","44440","","null","","","null","42","","NaN","","","","","","","","","","","","","",""
"","response","","html-keyboard-response","277","573712","0.0-1.0-383.0-0.0","0","0","44440","","441","","","75","42","","","1","42","training","adjacent","BC","2","3","O.jpg","R.jpg","0","1","0","",""
"","feedback","","html-keyboard-response","278","574718","0.0-1.0-384.0-0.0","0","0","44440","","null","","","null","42","","","","","","","","","","","","","","","",""
"","time_out","","html-keyboard-response","279","576722","0.0-1.0-386.0-0.0","0","0","44440","","null","","","null","42","","","","","","","","","","","","","","","",""
"","ITI","","html-keyboard-response","280","577729","0.0-1.0-387.0","0","0","44440","","866","","","68","42","","","","","","","","","","","","","","","d",""
"","S1","","html-keyboard-response","281","577989","0.0-1.0-389.0","0","0","44440","","null","","","null","43","","","","","","","","","","","","","","","",""
"","ISI","","html-keyboard-response","282","578997","0.0-1.0-390.0","0","0","44440","","null","","","null","43","NaN","","","","","","","","","","","","","","",""
"","S2","","html-keyboard-response","283","579536","0.0-1.0-391.0","0","0","44440","","null","","","null","43","","NaN","","","","","","","","","","","","","",""
"","response","","html-keyboard-response","284","581291","0.0-1.0-392.0-0.0","0","0","44440","","null","","","null","43","","","1","43","training","adjacent","CB","3","2","R.jpg","O.jpg","NaN","0","0","",""
"","too_slow_prompt","","html-keyboard-response","285","582334","0.0-1.0-394.0-0.0","1","0","44440","","null","","","null","","","","","","","","","","","","","","","","",""
"","time_out","","html-keyboard-response","286","584342","0.0-1.0-395.0-0.0","0","0","44440","","null","","","null","43","","","","","","","","","","","","","","","",""
"","ITI","","html-keyboard-response","287","585347","0.0-1.0-396.0","0","0","44440","","113","","","75","43","","","","","","","","","","","","","","","k",""
"","S1","","html-keyboard-response","288","585602","0.0-1.0-398.0","0","0","44440","","null","","","null","44","","","","","","","","","","","","","","","",""
"","ISI","","html-keyboard-response","289","586612","0.0-1.0-399.0","0","0","44440","","7","","","75","44","k","","","","","","","","","","","","","","",""
"","S2","","html-keyboard-response","290","586689","0.0-1.0-400.0","0","0","44440","","74","","","68","44","","d","1","44","training","adjacent","CD","3","4","R.jpg","P.jpg","1","1","1","",""
"","feedback","","html-keyboard-response","291","587695","0.0-1.0-402.0-0.0","0","0","44440","","null","","","null","44","","","","","","","","","","","","","","","",""
"","ITI","","html-keyboard-response","292","588704","0.0-1.0-405.0","0","0","44440","","null","","","null","44","","","","","","","","","","","","","","","NaN",""
"","S1","","html-keyboard-response","293","588971","0.0-1.0-407.0","0","0","44440","","null","","","null","45","","","","","","","","","","","","","","","",""
"","ISI","","html-keyboard-response","294","589985","0.0-1.0-408.0","0","0","44440","","191","","","68","45","d","","","","","","","","","","","","","","",""
"","S2","","html-keyboard-response","295","590246","0.0-1.0-409.0","0","0","44440","","null","","","null","45","","NaN","","","","","","","","","","","","","",""
"","response","","html-keyboard-response","296","592741","0.0-1.0-410.0-0.0","0","0","44440","","null","","","null","45","","","1","45","training","adjacent","DE","4","5","P.jpg","N.jpg","NaN","1","0","",""
"","too_slow_prompt","","html-keyboard-response","297","594743","0.0-1.0-412.0-0.0","1","0","44440","","null","","","null","","","","","","","","","","","","","","","","",""
"","time_out","","html-keyboard-response","298","597865","0.0-1.0-413.0-0.0","0","0","44440","","null","","","null","45","","","","","","","","","","","","","","","",""
"","ITI","","html-keyboard-response","299","599908","0.0-1.0-414.0","0","0","44440","","null","","","null","45","","","","","","","","","","","","","","","NaN",""
"","S1","","html-keyboard-response","300","601439","0.0-1.0-416.0","0","0","44440","","null","","","null","46","","","","","","","","","","","","","","","",""
"","ISI","","html-keyboard-response","301","602451","0.0-1.0-417.0","0","0","44440","","840","","","68","46","d","","","","","","","","","","","","","","",""
"","S2","","html-keyboard-response","302","602709","0.0-1.0-418.0","0","0","44440","","null","","","null","46","","NaN","","","","","","","","","","","","","",""
"","response","","html-keyboard-response","303","603273","0.0-1.0-419.0-0.0","0","0","44440","","557","","","68","46","","","1","46","training","adjacent","CB","3","2","R.jpg","O.jpg","1","0","0","",""
"","feedback","","html-keyboard-response","304","604286","0.0-1.0-420.0-0.0","0","0","44440","","null","","","null","46","","","","","","","","","","","","","","","",""
"","time_out","","html-keyboard-response","305","606296","0.0-1.0-422.0-0.0","0","0","44440","","null","","","null","46","","","","","","","","","","","","","","","",""
"","ITI","","html-keyboard-response","306","607302","0.0-1.0-423.0","0","0","44440","","36","","","75","46","","","","","","","","","","","","","","","k",""
"","S1","","html-keyboard-response","307","607564","0.0-1.0-425.0","0","0","44440","","null","","","null","47","","","","","","","","","","","","","","","",""
"","ISI","","html-keyboard-response","308","608575","0.0-1.0-426.0","0","0","44440","","424","","","75","47","k","","","","","","","","","","","","","","",""
"","S2","","html-keyboard-response","309","608835","0.0-1.0-427.0","0","0","44440","","null","","","null","47","","NaN","","","","","","","","","","","","","",""
"","response","","html-keyboard-response","310","610741","0.0-1.0-428.0-0.0","0","0","44440","","null","","","null","47","","","1","47","training","adjacent","CB","3","2","R.jpg","O.jpg","NaN","0","0","",""
"","too_slow_prompt","","html-keyboard-response","311","612838","0.0-1.0-430.0-0.0","1","0","44440","","null","","","null","","","","","","","","","","","","","","","","",""
"","time_out","","html-keyboard-response","312","614844","0.0-1.0-431.0-0.0","0","0","44440","","null","","","null","47","","","","","","","","","","","","","","","",""
"","ITI","","html-keyboard-response","313","615851","0.0-1.0-432.0","0","0","44440","","784","","","68","47","","","","","","","","","","","","","","","d",""
"","block_over","","html-keyboard-response","314","635243","0.0-1.0-433.0-0.0","0","0","44440","","19371","","","32","47","","","","","","","","","","","","","","","",""
"","S1","","html-keyboard-response","315","635504","0.0-1.0-434.0","0","0","44440","","null","","","null","48","","","","","","","","","","","","","","","",""
"","ISI","","html-keyboard-response","316","636533","0.0-1.0-435.0","0","0","44440","","null","","","null","48","NaN","","","","","","","","","","","","","","",""
"","S2","","html-keyboard-response","317","636791","0.0-1.0-436.0","0","0","44440","","null","","","null","48","","NaN","","","","","","","","","","","","","",""
"","response","","html-keyboard-response","318","637013","0.0-1.0-437.0-0.0","0","0","44440","","217","","","68","48","","","2","48","training","adjacent","CB","3","2","R.jpg","O.jpg","1","0","0","",""
"","feedback","","html-keyboard-response","319","638036","0.0-1.0-438.0-0.0","0","0","44440","","null","","","null","48","","","","","","","","","","","","","","","",""
"","time_out","","html-keyboard-response","320","640047","0.0-1.0-440.0-0.0","0","0","44440","","null","","","null","48","","","","","","","","","","","","","","","",""
"","ITI","","html-keyboard-response","321","641056","0.0-1.0-441.0","0","0","44440","","null","","","null","48","","","","","","","","","","","","","","","NaN",""
"","S1","","html-keyboard-response","322","641317","0.0-1.0-443.0","0","0","44440","","null","","","null","49","","","","","","","","","","","","","","","",""
"","ISI","","html-keyboard-response","323","642328","0.0-1.0-444.0","0","0","44440","","441","","","68","49","d","","","","","","","","","","","","","","",""
"","S2","","html-keyboard-response","324","642625","0.0-1.0-445.0","0","0","44440","","null","","","null","49","","NaN","","","","","","","","","","","","","",""
"","response","","html-keyboard-response","325","642717","0.0-1.0-446.0-0.0","0","0","44440","","84","","","75","49","","","2","49","training","adjacent","AB","1","2","L.jpg","O.jpg","0","1","0","",""
"","feedback","","html-keyboard-response","326","643729","0.0-1.0-447.0-0.0","0","0","44440","","null","","","null","49","","","","","","","","","","","","","","","",""
"","time_out","","html-keyboard-response","327","645737","0.0-1.0-449.0-0.0","0","0","44440","","null","","","null","49","","","","","","","","","","","","","","","",""
"","ITI","","html-keyboard-response","328","646811","0.0-1.0-450.0","0","0","44440","","83","","","75","49","","","","","","","","","","","","","","","k",""
"","S1","","html-keyboard-response","329","647067","0.0-1.0-452.0","0","0","44440","","null","","","null","50","","","","","","","","","","","","","","","",""
"","ISI","","html-keyboard-response","330","648075","0.0-1.0-453.0","0","0","44440","","423","","","68","50","d","","","","","","","","","","","","","","",""
"","S2","","html-keyboard-response","331","648135","0.0-1.0-454.0","0","0","44440","","51","","","68","50","","d","2","50","training","adjacent","BA","2","1","O.jpg","L.jpg","1","0","0","",""
"","feedback","","html-keyboard-response","332","649154","0.0-1.0-456.0-0.0","0","0","44440","","null","","","null","50","","","","","","","","","","","","","","","",""
"","time_out","","html-keyboard-response","333","651179","0.0-1.0-458.0-0.0","0","0","44440","","null","","","null","50","","","","","","","","","","","","","","","",""
"","ITI","","html-keyboard-response","334","652186","0.0-1.0-459.0","0","0","44440","","null","","","null","50","","","","","","","","","","","","","","","NaN",""
"","S1","","html-keyboard-response","335","652448","0.0-1.0-461.0","0","0","44440","","null","","","null","51","","","","","","","","","","","","","","","",""
"","ISI","","html-keyboard-response","336","653452","0.0-1.0-462.0","0","0","44440","","null","","","null","51","NaN","","","","","","","","","","","","","","",""
"","S2","","html-keyboard-response","337","653710","0.0-1.0-463.0","0","0","44440","","null","","","null","51","","NaN","","","","","","","","","","","","","",""
"","response","","html-keyboard-response","338","654228","0.0-1.0-464.0-0.0","0","0","44440","","507","","","75","51","","","2","51","training","adjacent","EF","5","6","N.jpg","M.jpg","0","1","0","",""
"","feedback","","html-keyboard-response","339","655248","0.0-1.0-465.0-0.0","0","0","44440","","null","","","null","51","","","","","","","","","","","","","","","",""
"","time_out","","html-keyboard-response","340","657256","0.0-1.0-467.0-0.0","0","0","44440","","null","","","null","51","","","","","","","","","","","","","","","",""
"","ITI","","html-keyboard-response","341","658352","0.0-1.0-468.0","0","0","44440","","null","","","null","51","","","","","","","","","","","","","","","NaN",""
"","S1","","html-keyboard-response","342","658609","0.0-1.0-470.0","0","0","44440","","null","","","null","52","","","","","","","","","","","","","","","",""
"","ISI","","html-keyboard-response","343","659639","0.0-1.0-471.0","0","0","44440","","null","","","null","52","NaN","","","","","","","","","","","","","","",""
"","S2","","html-keyboard-response","344","659895","0.0-1.0-472.0","0","0","44440","","null","","","null","52","","NaN","","","","","","","","","","","","","",""
"","response","","html-keyboard-response","345","661651","0.0-1.0-473.0-0.0","0","0","44440","","null","","","null","52","","","2","52","training","adjacent","BA","2","1","O.jpg","L.jpg","NaN","0","0","",""
"","too_slow_prompt","","html-keyboard-response","346","662691","0.0-1.0-475.0-0.0","1","0","44440","","null","","","null","","","","","","","","","","","","","","","","",""
"","time_out","","html-keyboard-response","347","664700","0.0-1.0-476.0-0.0","0","0","44440","","null","","","null","52","","","","","","","","","","","","","","","",""
"","ITI","","html-keyboard-response","348","665705","0.0-1.0-477.0","0","0","44440","","null","","","null","52","","","","","","","","","","","","","","","NaN",""
"","S1","","html-keyboard-response","349","665960","0.0-1.0-479.0","0","0","44440","","null","","","null","53","","","","","","","","","","","","","","","",""
"","ISI","","html-keyboard-response","350","666970","0.0-1.0-480.0","0","0","44440","","null","","","null","53","NaN","","","","","","","","","","","","","","",""
"","S2","","html-keyboard-response","351","667228","0.0-1.0-481.0","0","0","44440","","null","","","null","53","","NaN","","","","","","","","","","","","","",""
"","response","","html-keyboard-response","352","669024","0.0-1.0-482.0-0.0","0","0","44440","","1792","","","75","53","","","2","53","training","adjacent","BC","2","3","O.jpg","R.jpg","0","1","0","",""
"","feedback","","html-keyboard-response","353","670030","0.0-1.0-483.0-0.0","0","0","44440","","null","","","null","53","","","","","","","","","","","","","","","",""
"","time_out","","html-keyboard-response","354","672126","0.0-1.0-485.0-0.0","0","0","44440","","null","","","null","53","","","","","","","","","","","","","","","",""
"","ITI","","html-keyboard-response","355","673142","0.0-1.0-486.0","0","0","44440","","null","","","null","53","","","","","","","","","","","","","","","NaN",""
"","S1","","html-keyboard-response","356","673399","0.0-1.0-488.0","0","0","44440","","null","","","null","54","","","","","","","","","","","","","","","",""
"","ISI","","html-keyboard-response","357","674412","0.0-1.0-489.0","0","0","44440","","null","","","null","54","NaN","","","","","","","","","","","","","","",""
"","S2","","html-keyboard-response","358","674677","0.0-1.0-490.0","0","0","44440","","null","","","null","54","","NaN","","","","","","","","","","","","","",""
"","response","","html-keyboard-response","359","676261","0.0-1.0-491.0-0.0","0","0","44440","","1577","","","75","54","","","2","54","training","adjacent","GF","7","6","Q.jpg","M.jpg","0","0","1","",""
"","feedback","","html-keyboard-response","360","677271","0.0-1.0-492.0-0.0","0","0","44440","","null","","","null","54","","","","","","","","","","","","","","","",""
"","ITI","","html-keyboard-response","361","678279","0.0-1.0-495.0","0","0","44440","","null","","","null","54","","","","","","","","","","","","","","","NaN",""
"","S1","","html-keyboard-response","362","678540","0.0-1.0-497.0","0","0","44440","","null","","","null","55","","","","","","","","","","","","","","","",""
"","ISI","","html-keyboard-response","363","679547","0.0-1.0-498.0","0","0","44440","","null","","","null","55","NaN","","","","","","","","","","","","","","",""
"","S2","","html-keyboard-response","364","679804","0.0-1.0-499.0","0","0","44440","","null","","","null","55","","NaN","","","","","","","","","","","","","",""
"","response","","html-keyboard-response","365","679845","0.0-1.0-500.0-0.0","0","0","44440","","35","","","68","55","","","2","55","training","adjacent","CD","3","4","R.jpg","P.jpg","1","1","1","",""
"","feedback","","html-keyboard-response","366","680851","0.0-1.0-501.0-0.0","0","0","44440","","null","","","null","55","","","","","","","","","","","","","","","",""
"","ITI","","html-keyboard-response","367","681862","0.0-1.0-504.0","0","0","44440","","null","","","null","55","","","","","","","","","","","","","","","NaN",""
"","S1","","html-keyboard-response","368","682120","0.0-1.0-506.0","0","0","44440","","null","","","null","56","","","","","","","","","","","","","","","",""
"","ISI","","html-keyboard-response","369","683124","0.0-1.0-507.0","0","0","44440","","691","","","75","56","k","","","","","","","","","","","","","","",""
"","S2","","html-keyboard-response","370","683381","0.0-1.0-508.0","0","0","44440","","null","","","null","56","","NaN","","","","","","","","","","","","","",""
"","response","","html-keyboard-response","371","683902","0.0-1.0-509.0-0.0","0","0","44440","","516","","","75","56","","","2","56","training","adjacent","CB","3","2","R.jpg","O.jpg","0","0","1","",""
"","feedback","","html-keyboard-response","372","684910","0.0-1.0-510.0-0.0","0","0","44440","","null","","","null","56","","","","","","","","","","","","","","","",""
"","ITI","","html-keyboard-response","373","685917","0.0-1.0-513.0","0","0","44440","","null","","","null","56","","","","","","","","","","","","","","","NaN",""
"","S1","","html-keyboard-response","374","686174","0.0-1.0-515.0","0","0","44440","","null","","","null","57","","","","","","","","","","","","","","","",""
"","ISI","","html-keyboard-response","375","687180","0.0-1.0-516.0","0","0","44440","","null","","","null","57","NaN","","","","","","","","","","","","","","",""
"","S2","","html-keyboard-response","376","687359","0.0-1.0-517.0","0","0","44440","","173","","","68","57","","d","2","57","training","adjacent","FE","6","5","M.jpg","N.jpg","1","0","0","",""
"","feedback","","html-keyboard-response","377","688363","0.0-1.0-519.0-0.0","0","0","44440","","null","","","null","57","","","","","","","","","","","","","","","",""
"","time_out","","html-keyboard-response","378","690368","0.0-1.0-521.0-0.0","0","0","44440","","null","","","null","57","","","","","","","","","","","","","","","",""
"","ITI","","html-keyboard-response","379","691380","0.0-1.0-522.0","0","0","44440","","null","","","null","57","","","","","","","","","","","","","","","NaN",""
"","S1","","html-keyboard-response","380","691637","0.0-1.0-524.0","0","0","44440","","null","","","null","58","","","","","","","","","","","","","","","",""
"","ISI","","html-keyboard-response","381","692643","0.0-1.0-525.0","0","0","44440","","765","","","68","58","d","","","","","","","","","","","","","","",""
"","S2","","html-keyboard-response","382","692912","0.0-1.0-526.0","0","0","44440","","null","","","null","58","","NaN","","","","","","","","","","","","","",""
"","response","","html-keyboard-response","383","693422","0.0-1.0-527.0-0.0","0","0","44440","","496","","","75","58","","","2","58","training","adjacent","ED","5","4","N.jpg","P.jpg","0","0","1","",""
"","feedback","","html-keyboard-response","384","694433","0.0-1.0-528.0-0.0","0","0","44440","","null","","","null","58","","","","","","","","","","","","","","","",""
"","ITI","","html-keyboard-response","385","695516","0.0-1.0-531.0","0","0","44440","","null","","","null","58","","","","","","","","","","","","","","","NaN",""
"","S1","","html-keyboard-response","386","695773","0.0-1.0-533.0","0","0","44440","","null","","","null","59","","","","","","","","","","","","","","","",""
"","ISI","","html-keyboard-response","387","696778","0.0-1.0-534.0","0","0","44440","","487","","","75","59","k","","","","","","","","","","","","","","",""
"","S2","","html-keyboard-response","388","697037","0.0-1.0-535.0","0","0","44440","","null","","","null","59","","NaN","","","","","","","","","","","","","",""
"","response","","html-keyboard-response","389","697548","0.0-1.0-536.0-0.0","0","0","44440","","505","","","68","59","","","2","59","training","adjacent","DE","4","5","P.jpg","N.jpg","1","1","1","",""
"","feedback","","html-keyboard-response","390","698564","0.0-1.0-537.0-0.0","0","0","44440","","null","","","null","59","","","","","","","","","","","","","","","",""
"","ITI","","html-keyboard-response","391","699569","0.0-1.0-540.0","0","0","44440","","null","","","null","59","","","","","","","","","","","","","","","NaN",""
"","S1","","html-keyboard-response","392","699826","0.0-1.0-542.0","0","0","44440","","null","","","null","60","","","","","","","","","","","","","","","",""
"","ISI","","html-keyboard-response","393","700832","0.0-1.0-543.0","0","0","44440","","771","","","75","60","k","","","","","","","","","","","","","","",""
"","S2","","html-keyboard-response","394","701120","0.0-1.0-544.0","0","0","44440","","null","","","null","60","","NaN","","","","","","","","","","","","","",""
"","response","","html-keyboard-response","395","701705","0.0-1.0-545.0-0.0","0","0","44440","","577","","","75","60","","","2","60","training","adjacent","DC","4","3","P.jpg","R.jpg","0","0","1","",""
"","feedback","","html-keyboard-response","396","702721","0.0-1.0-546.0-0.0","0","0","44440","","null","","","null","60","","","","","","","","","","","","","","","",""
"","ITI","","html-keyboard-response","397","703743","0.0-1.0-549.0","0","0","44440","","null","","","null","60","","","","","","","","","","","","","","","NaN",""
"","S1","","html-keyboard-response","398","704005","0.0-1.0-551.0","0","0","44440","","null","","","null","61","","","","","","","","","","","","","","","",""
"","ISI","","html-keyboard-response","399","705024","0.0-1.0-552.0","0","0","44440","","null","","","null","61","NaN","","","","","","","","","","","","","","",""
"","S2","","html-keyboard-response","400","705295","0.0-1.0-553.0","0","0","44440","","null","","","null","61","","NaN","","","","","","","","","","","","","",""
"","response","","html-keyboard-response","401","705753","0.0-1.0-554.0-0.0","0","0","44440","","450","","","75","61","","","2","61","training","adjacent","FE","6","5","M.jpg","N.jpg","0","0","1","",""
"","feedback","","html-keyboard-response","402","706761","0.0-1.0-555.0-0.0","0","0","44440","","null","","","null","61","","","","","","","","","","","","","","","",""
"","ITI","","html-keyboard-response","403","707766","0.0-1.0-558.0","0","0","44440","","null","","","null","61","","","","","","","","","","","","","","","NaN",""
"","S1","","html-keyboard-response","404","708023","0.0-1.0-560.0","0","0","44440","","null","","","null","62","","","","","","","","","","","","","","","",""
"","ISI","","html-keyboard-response","405","709026","0.0-1.0-561.0","0","0","44440","","444","","","75","62","k","","","","","","","","","","","","","","",""
"","S2","","html-keyboard-response","406","709261","0.0-1.0-562.0","0","0","44440","","230","","","68","62","","d","2","62","training","adjacent","DE","4","5","P.jpg","N.jpg","1","1","1","",""
"","feedback","","html-keyboard-response","407","710303","0.0-1.0-564.0-0.0","0","0","44440","","null","","","null","62","","","","","","","","","","","","","","","",""
"","ITI","","html-keyboard-response","408","711310","0.0-1.0-567.0","0","0","44440","","null","","","null","62","","","","","","","","","","","","","","","NaN",""
"","S1","","html-keyboard-response","409","711565","0.0-1.0-569.0","0","0","44440","","null","","","null","63","","","","","","","","","","","","","","","",""
"","ISI","","html-keyboard-response","410","712596","0.0-1.0-570.0","0","0","44440","","550","","","75","63","k","","","","","","","","","","","","","","",""
"","S2","","html-keyboard-response","411","712862","0.0-1.0-571.0","0","0","44440","","null","","","null","63","","NaN","","","","","","","","","","","","","",""
"","response","","html-keyboard-response","412","713103","0.0-1.0-572.0-0.0","0","0","44440","","236","","","75","63","","","2","63","training","adjacent","FG","6","7","M.jpg","Q.jpg","0","1","0","",""
"","feedback","","html-keyboard-response","413","714109","0.0-1.0-573.0-0.0","0","0","44440","","null","","","null","63","","","","","","","","","","","","","","","",""
"","time_out","","html-keyboard-response","414","716120","0.0-1.0-575.0-0.0","0","0","44440","","null","","","null","63","","","","","","","","","","","","","","","",""
"","ITI","","html-keyboard-response","415","717125","0.0-1.0-576.0","0","0","44440","","656","","","68","63","","","","","","","","","","","","","","","d",""
"","S1","","html-keyboard-response","416","717387","0.0-1.0-578.0","0","0","44440","","null","","","null","64","","","","","","","","","","","","","","","",""
"","ISI","","html-keyboard-response","417","718395","0.0-1.0-579.0","0","0","44440","","349","","","68","64","d","","","","","","","","","","","","","","",""
"","S2","","html-keyboard-response","418","718655","0.0-1.0-580.0","0","0","44440","","null","","","null","64","","NaN","","","","","","","","","","","","","",""
"","response","","html-keyboard-response","419","718891","0.0-1.0-581.0-0.0","0","0","44440","","231","","","75","64","","","2","64","training","adjacent","CB","3","2","R.jpg","O.jpg","0","0","1","",""
"","feedback","","html-keyboard-response","420","719899","0.0-1.0-582.0-0.0","0","0","44440","","null","","","null","64","","","","","","","","","","","","","","","",""
"","ITI","","html-keyboard-response","421","720906","0.0-1.0-585.0","0","0","44440","","null","","","null","64","","","","","","","","","","","","","","","NaN",""
"","S1","","html-keyboard-response","422","721159","0.0-1.0-587.0","0","0","44440","","null","","","null","65","","","","","","","","","","","","","","","",""
"","ISI","","html-keyboard-response","423","722168","0.0-1.0-588.0","0","0","44440","","428","","","68","65","d","","","","","","","","","","","","","","",""
"","S2","","html-keyboard-response","424","722426","0.0-1.0-589.0","0","0","44440","","null","","","null","65","","NaN","","","","","","","","","","","","","",""
"","response","","html-keyboard-response","425","722495","0.0-1.0-590.0-0.0","0","0","44440","","61","","","68","65","","","2","65","training","adjacent","BA","2","1","O.jpg","L.jpg","1","0","0","",""
"","feedback","","html-keyboard-response","426","723509","0.0-1.0-591.0-0.0","0","0","44440","","null","","","null","65","","","","","","","","","","","","","","","",""
"","time_out","","html-keyboard-response","427","725519","0.0-1.0-593.0-0.0","0","0","44440","","null","","","null","65","","","","","","","","","","","","","","","",""
"","ITI","","html-keyboard-response","428","726533","0.0-1.0-594.0","0","0","44440","","null","","","null","65","","","","","","","","","","","","","","","NaN",""
"","S1","","html-keyboard-response","429","726791","0.0-1.0-596.0","0","0","44440","","null","","","null","66","","","","","","","","","","","","","","","",""
"","ISI","","html-keyboard-response","430","727798","0.0-1.0-597.0","0","0","44440","","null","","","null","66","NaN","","","","","","","","","","","","","","",""
"","S2","","html-keyboard-response","431","728060","0.0-1.0-598.0","0","0","44440","","null","","","null","66","","NaN","","","","","","","","","","","","","",""
"","response","","html-keyboard-response","432","728250","0.0-1.0-599.0-0.0","0","0","44440","","180","","","75","66","","","2","66","training","adjacent","GF","7","6","Q.jpg","M.jpg","0","0","1","",""
"","feedback","","html-keyboard-response","433","729258","0.0-1.0-600.0-0.0","0","0","44440","","null","","","null","66","","","","","","","","","","","","","","","",""
"","ITI","","html-keyboard-response","434","730269","0.0-1.0-603.0","0","0","44440","","null","","","null","66","","","","","","","","","","","","","","","NaN",""
"","S1","","html-keyboard-response","435","730525","0.0-1.0-605.0","0","0","44440","","null","","","null","67","","","","","","","","","","","","","","","",""
"","ISI","","html-keyboard-response","436","731579","0.0-1.0-606.0","0","0","44440","","411","","","75","67","k","","","","","","","","","","","","","","",""
"","S2","","html-keyboard-response","437","731755","0.0-1.0-607.0","0","0","44440","","169","","","75","67","","k","2","67","training","adjacent","BA","2","1","O.jpg","L.jpg","0","0","1","",""
"","feedback","","html-keyboard-response","438","732761","0.0-1.0-609.0-0.0","0","0","44440","","null","","","null","67","","","","","","","","","","","","","","","",""
"","ITI","","html-keyboard-response","439","733771","0.0-1.0-612.0","0","0","44440","","null","","","null","67","","","","","","","","","","","","","","","NaN",""
"","S1","","html-keyboard-response","440","734027","0.0-1.0-614.0","0","0","44440","","null","","","null","68","","","","","","","","","","","","","","","",""
"","ISI","","html-keyboard-response","441","735039","0.0-1.0-615.0","0","0","44440","","540","","","68","68","d","","","","","","","","","","","","","","",""
"","S2","","html-keyboard-response","442","735261","0.0-1.0-616.0","0","0","44440","","212","","","75","68","","k","2","68","training","adjacent","CD","3","4","R.jpg","P.jpg","0","1","0","",""
"","feedback","","html-keyboard-response","443","736269","0.0-1.0-618.0-0.0","0","0","44440","","null","","","null","68","","","","","","","","","","","","","","","",""
"","time_out","","html-keyboard-response","444","738275","0.0-1.0-620.0-0.0","0","0","44440","","null","","","null","68","","","","","","","","","","","","","","","",""
"","ITI","","html-keyboard-response","445","739281","0.0-1.0-621.0","0","0","44440","","null","","","null","68","","","","","","","","","","","","","","","NaN",""
"","S1","","html-keyboard-response","446","739570","0.0-1.0-623.0","0","0","44440","","null","","","null","69","","","","","","","","","","","","","","","",""
"","ISI","","html-keyboard-response","447","740579","0.0-1.0-624.0","0","0","44440","","123","","","68","69","d","","","","","","","","","","","","","","",""
"","S2","","html-keyboard-response","448","740844","0.0-1.0-625.0","0","0","44440","","null","","","null","69","","NaN","","","","","","","","","","","","","",""
"","response","","html-keyboard-response","449","741855","0.0-1.0-626.0-0.0","0","0","44440","","997","","","75","69","","","2","69","training","adjacent","EF","5","6","N.jpg","M.jpg","0","1","0","",""
"","feedback","","html-keyboard-response","450","742881","0.0-1.0-627.0-0.0","0","0","44440","","null","","","null","69","","","","","","","","","","","","","","","",""
"","time_out","","html-keyboard-response","451","744894","0.0-1.0-629.0-0.0","0","0","44440","","null","","","null","69","","","","","","","","","","","","","","","",""
"","ITI","","html-keyboard-response","452","745906","0.0-1.0-630.0","0","0","44440","","null","","","null","69","","","","","","","","","","","","","","","NaN",""
"","S1","","html-keyboard-response","453","746162","0.0-1.0-632.0","0","0","44440","","null","","","null","70","","","","","","","","","","","","","","","",""
"","ISI","","html-keyboard-response","454","747218","0.0-1.0-633.0","0","0","44440","","477","","","68","70","d","","","","","","","","","","","","","","",""
"","S2","","html-keyboard-response","455","747475","0.0-1.0-634.0","0","0","44440","","null","","","null","70","","NaN","","","","","","","","","","","","","",""
"","response","","html-keyboard-response","456","747849","0.0-1.0-635.0-0.0","0","0","44440","","364","","","75","70","","","2","70","training","adjacent","GF","7","6","Q.jpg","M.jpg","0","0","1","",""
"","feedback","","html-keyboard-response","457","748856","0.0-1.0-636.0-0.0","0","0","44440","","null","","","null","70","","","","","","","","","","","","","","","",""
"","ITI","","html-keyboard-response","458","749863","0.0-1.0-639.0","0","0","44440","","913","","","68","70","","","","","","","","","","","","","","","d",""
"","S1","","html-keyboard-response","459","750118","0.0-1.0-641.0","0","0","44440","","null","","","null","71","","","","","","","","","","","","","","","",""
"","ISI","","html-keyboard-response","460","751124","0.0-1.0-642.0","0","0","44440","","391","","","75","71","k","","","","","","","","","","","","","","",""
"","S2","","html-keyboard-response","461","751388","0.0-1.0-643.0","0","0","44440","","null","","","null","71","","NaN","","","","","","","","","","","","","",""
"","response","","html-keyboard-response","462","751782","0.0-1.0-644.0-0.0","0","0","44440","","388","","","75","71","","","2","71","training","adjacent","BC","2","3","O.jpg","R.jpg","0","1","0","",""
"","feedback","","html-keyboard-response","463","752790","0.0-1.0-645.0-0.0","0","0","44440","","null","","","null","71","","","","","","","","","","","","","","","",""
"","time_out","","html-keyboard-response","464","754799","0.0-1.0-647.0-0.0","0","0","44440","","null","","","null","71","","","","","","","","","","","","","","","",""
"","ITI","","html-keyboard-response","465","755809","0.0-1.0-648.0","0","0","44440","","945","","","68","71","","","","","","","","","","","","","","","d",""
"","S1","","html-keyboard-response","466","756063","0.0-1.0-650.0","0","0","44440","","null","","","null","72","","","","","","","","","","","","","","","",""
"","ISI","","html-keyboard-response","467","757074","0.0-1.0-651.0","0","0","44440","","555","","","68","72","d","","","","","","","","","","","","","","",""
"","S2","","html-keyboard-response","468","757170","0.0-1.0-652.0","0","0","44440","","86","","","68","72","","d","2","72","training","adjacent","AB","1","2","L.jpg","O.jpg","1","1","1","",""
"","feedback","","html-keyboard-response","469","758178","0.0-1.0-654.0-0.0","0","0","44440","","null","","","null","72","","","","","","","","","","","","","","","",""
"","ITI","","html-keyboard-response","470","759182","0.0-1.0-657.0","0","0","44440","","405","","","75","72","","","","","","","","","","","","","","","k",""
"","S1","","html-keyboard-response","471","759437","0.0-1.0-659.0","0","0","44440","","null","","","null","73","","","","","","","","","","","","","","","",""
"","ISI","","html-keyboard-response","472","760443","0.0-1.0-660.0","0","0","44440","","222","","","75","73","k","","","","","","","","","","","","","","",""
"","S2","","html-keyboard-response","473","760700","0.0-1.0-661.0","0","0","44440","","null","","","null","73","","NaN","","","","","","","","","","","","","",""
"","response","","html-keyboard-response","474","760705","0.0-1.0-662.0-0.0","0","0","44440","","1","","","68","73","","","2","73","training","adjacent","BC","2","3","O.jpg","R.jpg","1","1","1","",""
"","feedback","","html-keyboard-response","475","761712","0.0-1.0-663.0-0.0","0","0","44440","","null","","","null","73","","","","","","","","","","","","","","","",""
"","ITI","","html-keyboard-response","476","762724","0.0-1.0-666.0","0","0","44440","","805","","","68","73","","","","","","","","","","","","","","","d",""
"","S1","","html-keyboard-response","477","762980","0.0-1.0-668.0","0","0","44440","","null","","","null","74","","","","","","","","","","","","","","","",""
"","ISI","","html-keyboard-response","478","763986","0.0-1.0-669.0","0","0","44440","","127","","","68","74","d","","","","","","","","","","","","","","",""
"","S2","","html-keyboard-response","479","764106","0.0-1.0-670.0","0","0","44440","","110","","","75","74","","k","2","74","training","adjacent","AB","1","2","L.jpg","O.jpg","0","1","0","",""
"","feedback","","html-keyboard-response","480","765116","0.0-1.0-672.0-0.0","0","0","44440","","null","","","null","74","","","","","","","","","","","","","","","",""
"","time_out","","html-keyboard-response","481","767124","0.0-1.0-674.0-0.0","0","0","44440","","null","","","null","74","","","","","","","","","","","","","","","",""
"","ITI","","html-keyboard-response","482","768129","0.0-1.0-675.0","0","0","44440","","564","","","68","74","","","","","","","","","","","","","","","d",""
"","S1","","html-keyboard-response","483","768383","0.0-1.0-677.0","0","0","44440","","null","","","null","75","","","","","","","","","","","","","","","",""
"","ISI","","html-keyboard-response","484","769393","0.0-1.0-678.0","0","0","44440","","449","","","75","75","k","","","","","","","","","","","","","","",""
"","S2","","html-keyboard-response","485","769660","0.0-1.0-679.0","0","0","44440","","null","","","null","75","","NaN","","","","","","","","","","","","","",""
"","response","","html-keyboard-response","486","770704","0.0-1.0-680.0-0.0","0","0","44440","","1038","","","68","75","","","2","75","training","adjacent","DC","4","3","P.jpg","R.jpg","1","0","0","",""
"","feedback","","html-keyboard-response","487","771707","0.0-1.0-681.0-0.0","0","0","44440","","null","","","null","75","","","","","","","","","","","","","","","",""
"","time_out","","html-keyboard-response","488","773717","0.0-1.0-683.0-0.0","0","0","44440","","null","","","null","75","","","","","","","","","","","","","","","",""
"","ITI","","html-keyboard-response","489","774728","0.0-1.0-684.0","0","0","44440","","null","","","null","75","","","","","","","","","","","","","","","NaN",""
"","S1","","html-keyboard-response","490","774985","0.0-1.0-686.0","0","0","44440","","null","","","null","76","","","","","","","","","","","","","","","",""
"","ISI","","html-keyboard-response","491","775991","0.0-1.0-687.0","0","0","44440","","null","","","null","76","NaN","","","","","","","","","","","","","","",""
"","S2","","html-keyboard-response","492","776254","0.0-1.0-688.0","0","0","44440","","null","","","null","76","","NaN","","","","","","","","","","","","","",""
"","response","","html-keyboard-response","493","777014","0.0-1.0-689.0-0.0","0","0","44440","","749","","","75","76","","","2","76","training","adjacent","CB","3","2","R.jpg","O.jpg","0","0","1","",""
"","feedback","","html-keyboard-response","494","778045","0.0-1.0-690.0-0.0","0","0","44440","","null","","","null","76","","","","","","","","","","","","","","","",""
"","ITI","","html-keyboard-response","495","779074","0.0-1.0-693.0","0","0","44440","","null","","","null","76","","","","","","","","","","","","","","","NaN",""
"","S1","","html-keyboard-response","496","779328","0.0-1.0-695.0","0","0","44440","","null","","","null","77","","","","","","","","","","","","","","","",""
"","ISI","","html-keyboard-response","497","780365","0.0-1.0-696.0","0","0","44440","","null","","","null","77","NaN","","","","","","","","","","","","","","",""
"","S2","","html-keyboard-response","498","780645","0.0-1.0-697.0","0","0","44440","","null","","","null","77","","NaN","","","","","","","","","","","","","",""
"","response","","html-keyboard-response","499","782402","0.0-1.0-698.0-0.0","0","0","44440","","null","","","null","77","","","2","77","training","adjacent","DC","4","3","P.jpg","R.jpg","NaN","0","0","",""
"","too_slow_prompt","","html-keyboard-response","500","783415","0.0-1.0-700.0-0.0","1","0","44440","","null","","","null","","","","","","","","","","","","","","","","",""
"","time_out","","html-keyboard-response","501","785426","0.0-1.0-701.0-0.0","0","0","44440","","null","","","null","77","","","","","","","","","","","","","","","",""
"","ITI","","html-keyboard-response","502","786433","0.0-1.0-702.0","0","0","44440","","null","","","null","77","","","","","","","","","","","","","","","NaN",""
"","S1","","html-keyboard-response","503","786696","0.0-1.0-704.0","0","0","44440","","null","","","null","78","","","","","","","","","","","","","","","",""
"","ISI","","html-keyboard-response","504","787712","0.0-1.0-705.0","0","0","44440","","null","","","null","78","NaN","","","","","","","","","","","","","","",""
"","S2","","html-keyboard-response","505","787975","0.0-1.0-706.0","0","0","44440","","null","","","null","78","","NaN","","","","","","","","","","","","","",""
"","response","","html-keyboard-response","506","788952","0.0-1.0-707.0-0.0","0","0","44440","","972","","","75","78","","","2","78","training","adjacent","FG","6","7","M.jpg","Q.jpg","0","1","0","",""
"","feedback","","html-keyboard-response","507","789960","0.0-1.0-708.0-0.0","0","0","44440","","null","","","null","78","","","","","","","","","","","","","","","",""
"","time_out","","html-keyboard-response","508","791967","0.0-1.0-710.0-0.0","0","0","44440","","null","","","null","78","","","","","","","","","","","","","","","",""
"","ITI","","html-keyboard-response","509","792978","0.0-1.0-711.0","0","0","44440","","null","","","null","78","","","","","","","","","","","","","","","NaN",""
"","S1","","html-keyboard-response","510","793248","0.0-1.0-713.0","0","0","44440","","null","","","null","79","","","","","","","","","","","","","","","",""
"","ISI","","html-keyboard-response","511","794257","0.0-1.0-714.0","0","0","44440","","null","","","null","79","NaN","","","","","","","","","","","","","","",""
"","S2","","html-keyboard-response","512","794516","0.0-1.0-715.0","0","0","44440","","null","","","null","79","","NaN","","","","","","","","","","","","","",""
"","response","","html-keyboard-response","513","795062","0.0-1.0-716.0-0.0","0","0","44440","","539","","","68","79","","","2","79","training","adjacent","DE","4","5","P.jpg","N.jpg","1","1","1","",""
"","feedback","","html-keyboard-response","514","796074","0.0-1.0-717.0-0.0","0","0","44440","","null","","","null","79","","","","","","","","","","","","","","","",""
"","ITI","","html-keyboard-response","515","797080","0.0-1.0-720.0","0","0","44440","","null","","","null","79","","","","","","","","","","","","","","","NaN",""
"","S1","","html-keyboard-response","516","797337","0.0-1.0-722.0","0","0","44440","","null","","","null","80","","","","","","","","","","","","","","","",""
"","ISI","","html-keyboard-response","517","798348","0.0-1.0-723.0","0","0","44440","","null","","","null","80","NaN","","","","","","","","","","","","","","",""
"","S2","","html-keyboard-response","518","798653","0.0-1.0-724.0","0","0","44440","","null","","","null","80","","NaN","","","","","","","","","","","","","",""
"","response","","html-keyboard-response","519","799546","0.0-1.0-725.0-0.0","0","0","44440","","887","","","75","80","","","2","80","training","adjacent","ED","5","4","N.jpg","P.jpg","0","0","1","",""
"","feedback","","html-keyboard-response","520","800553","0.0-1.0-726.0-0.0","0","0","44440","","null","","","null","80","","","","","","","","","","","","","","","",""
"","ITI","","html-keyboard-response","521","801566","0.0-1.0-729.0","0","0","44440","","null","","","null","80","","","","","","","","","","","","","","","NaN",""
"","S1","","html-keyboard-response","522","801858","0.0-1.0-731.0","0","0","44440","","null","","","null","81","","","","","","","","","","","","","","","",""
"","ISI","","html-keyboard-response","523","802867","0.0-1.0-732.0","0","0","44440","","null","","","null","81","NaN","","","","","","","","","","","","","","",""
"","S2","","html-keyboard-response","524","803125","0.0-1.0-733.0","0","0","44440","","null","","","null","81","","NaN","","","","","","","","","","","","","",""
"","response","","html-keyboard-response","525","804196","0.0-1.0-734.0-0.0","0","0","44440","","1062","","","75","81","","","2","81","training","adjacent","AB","1","2","L.jpg","O.jpg","0","1","0","",""
"","feedback","","html-keyboard-response","526","805217","0.0-1.0-735.0-0.0","0","0","44440","","null","","","null","81","","","","","","","","","","","","","","","",""
"","time_out","","html-keyboard-response","527","807232","0.0-1.0-737.0-0.0","0","0","44440","","null","","","null","81","","","","","","","","","","","","","","","",""
"","ITI","","html-keyboard-response","528","808239","0.0-1.0-738.0","0","0","44440","","null","","","null","81","","","","","","","","","","","","","","","NaN",""
"","S1","","html-keyboard-response","529","808501","0.0-1.0-740.0","0","0","44440","","null","","","null","82","","","","","","","","","","","","","","","",""
"","ISI","","html-keyboard-response","530","809520","0.0-1.0-741.0","0","0","44440","","null","","","null","82","NaN","","","","","","","","","","","","","","",""
"","S2","","html-keyboard-response","531","809775","0.0-1.0-742.0","0","0","44440","","null","","","null","82","","NaN","","","","","","","","","","","","","",""
"","response","","html-keyboard-response","532","810232","0.0-1.0-743.0-0.0","0","0","44440","","450","","","68","82","","","2","82","training","adjacent","CD","3","4","R.jpg","P.jpg","1","1","1","",""
"","feedback","","html-keyboard-response","533","811238","0.0-1.0-744.0-0.0","0","0","44440","","null","","","null","82","","","","","","","","","","","","","","","",""
"","ITI","","html-keyboard-response","534","812258","0.0-1.0-747.0","0","0","44440","","null","","","null","82","","","","","","","","","","","","","","","NaN",""
"","S1","","html-keyboard-response","535","812550","0.0-1.0-749.0","0","0","44440","","null","","","null","83","","","","","","","","","","","","","","","",""
"","ISI","","html-keyboard-response","536","813571","0.0-1.0-750.0","0","0","44440","","null","","","null","83","NaN","","","","","","","","","","","","","","",""
"","S2","","html-keyboard-response","537","813830","0.0-1.0-751.0","0","0","44440","","null","","","null","83","","NaN","","","","","","","","","","","","","",""
"","response","","html-keyboard-response","538","814211","0.0-1.0-752.0-0.0","0","0","44440","","371","","","75","83","","","2","83","training","adjacent","ED","5","4","N.jpg","P.jpg","0","0","1","",""
"","feedback","","html-keyboard-response","539","815218","0.0-1.0-753.0-0.0","0","0","44440","","null","","","null","83","","","","","","","","","","","","","","","",""
"","ITI","","html-keyboard-response","540","816221","0.0-1.0-756.0","0","0","44440","","null","","","null","83","","","","","","","","","","","","","","","NaN",""
"","S1","","html-keyboard-response","541","816479","0.0-1.0-758.0","0","0","44440","","null","","","null","84","","","","","","","","","","","","","","","",""
"","ISI","","html-keyboard-response","542","817490","0.0-1.0-759.0","0","0","44440","","null","","","null","84","NaN","","","","","","","","","","","","","","",""
"","S2","","html-keyboard-response","543","817499","0.0-1.0-760.0","0","0","44440","","1","","","68","84","","d","2","84","training","adjacent","FG","6","7","M.jpg","Q.jpg","1","1","1","",""
"","feedback","","html-keyboard-response","544","818527","0.0-1.0-762.0-0.0","0","0","44440","","null","","","null","84","","","","","","","","","","","","","","","",""
"","ITI","","html-keyboard-response","545","819534","0.0-1.0-765.0","0","0","44440","","null","","","null","84","","","","","","","","","","","","","","","NaN",""
"","S1","","html-keyboard-response","546","819789","0.0-1.0-767.0","0","0","44440","","null","","","null","85","","","","","","","","","","","","","","","",""
"","ISI","","html-keyboard-response","547","820808","0.0-1.0-768.0","0","0","44440","","null","","","null","85","NaN","","","","","","","","","","","","","","",""
"","S2","","html-keyboard-response","548","821065","0.0-1.0-769.0","0","0","44440","","null","","","null","85","","NaN","","","","","","","","","","","","","",""
"","response","","html-keyboard-response","549","821355","0.0-1.0-770.0-0.0","0","0","44440","","283","","","68","85","","","2","85","training","adjacent","CD","3","4","R.jpg","P.jpg","1","1","1","",""
"","feedback","","html-keyboard-response","550","822360","0.0-1.0-771.0-0.0","0","0","44440","","null","","","null","85","","","","","","","","","","","","","","","",""
"","ITI","","html-keyboard-response","551","823366","0.0-1.0-774.0","0","0","44440","","null","","","null","85","","","","","","","","","","","","","","","NaN",""
"","S1","","html-keyboard-response","552","823621","0.0-1.0-776.0","0","0","44440","","null","","","null","86","","","","","","","","","","","","","","","",""
"","ISI","","html-keyboard-response","553","824625","0.0-1.0-777.0","0","0","44440","","null","","","null","86","NaN","","","","","","","","","","","","","","",""
"","S2","","html-keyboard-response","554","824885","0.0-1.0-778.0","0","0","44440","","null","","","null","86","","NaN","","","","","","","","","","","","","",""
"","response","","html-keyboard-response","555","825302","0.0-1.0-779.0-0.0","0","0","44440","","405","","","75","86","","","2","86","training","adjacent","DE","4","5","P.jpg","N.jpg","0","1","0","",""
"","feedback","","html-keyboard-response","556","826306","0.0-1.0-780.0-0.0","0","0","44440","","null","","","null","86","","","","","","","","","","","","","","","",""
"","time_out","","html-keyboard-response","557","828329","0.0-1.0-782.0-0.0","0","0","44440","","null","","","null","86","","","","","","","","","","","","","","","",""
"","ITI","","html-keyboard-response","558","829341","0.0-1.0-783.0","0","0","44440","","null","","","null","86","","","","","","","","","","","","","","","NaN",""
"","S1","","html-keyboard-response","559","829599","0.0-1.0-785.0","0","0","44440","","null","","","null","87","","","","","","","","","","","","","","","",""
"","ISI","","html-keyboard-response","560","830652","0.0-1.0-786.0","0","0","44440","","523","","","68","87","d","","","","","","","","","","","","","","",""
"","S2","","html-keyboard-response","561","830943","0.0-1.0-787.0","0","0","44440","","null","","","null","87","","NaN","","","","","","","","","","","","","",""
"","response","","html-keyboard-response","562","831352","0.0-1.0-788.0-0.0","0","0","44440","","403","","","68","87","","","2","87","training","adjacent","BC","2","3","O.jpg","R.jpg","1","1","1","",""
"","feedback","","html-keyboard-response","563","832362","0.0-1.0-789.0-0.0","0","0","44440","","null","","","null","87","","","","","","","","","","","","","","","",""
"","ITI","","html-keyboard-response","564","833369","0.0-1.0-792.0","0","0","44440","","null","","","null","87","","","","","","","","","","","","","","","NaN",""
"","S1","","html-keyboard-response","565","833624","0.0-1.0-794.0","0","0","44440","","null","","","null","88","","","","","","","","","","","","","","","",""
"","ISI","","html-keyboard-response","566","834641","0.0-1.0-795.0","0","0","44440","","null","","","null","88","NaN","","","","","","","","","","","","","","",""
"","S2","","html-keyboard-response","567","834899","0.0-1.0-796.0","0","0","44440","","null","","","null","88","","NaN","","","","","","","","","","","","","",""
"","response","","html-keyboard-response","568","835333","0.0-1.0-797.0-0.0","0","0","44440","","429","","","75","88","","","2","88","training","adjacent","ED","5","4","N.jpg","P.jpg","0","0","1","",""
"","feedback","","html-keyboard-response","569","836342","0.0-1.0-798.0-0.0","0","0","44440","","null","","","null","88","","","","","","","","","","","","","","","",""
"","ITI","","html-keyboard-response","570","837350","0.0-1.0-801.0","0","0","44440","","null","","","null","88","","","","","","","","","","","","","","","NaN",""
"","S1","","html-keyboard-response","571","837606","0.0-1.0-803.0","0","0","44440","","null","","","null","89","","","","","","","","","","","","","","","",""
"","ISI","","html-keyboard-response","572","838645","0.0-1.0-804.0","0","0","44440","","731","","","68","89","d","","","","","","","","","","","","","","",""
"","S2","","html-keyboard-response","573","838916","0.0-1.0-805.0","0","0","44440","","null","","","null","89","","NaN","","","","","","","","","","","","","",""
"","response","","html-keyboard-response","574","839410","0.0-1.0-806.0-0.0","0","0","44440","","484","","","75","89","","","2","89","training","adjacent","FG","6","7","M.jpg","Q.jpg","0","1","0","",""
"","feedback","","html-keyboard-response","575","840421","0.0-1.0-807.0-0.0","0","0","44440","","null","","","null","89","","","","","","","","","","","","","","","",""
"","time_out","","html-keyboard-response","576","842453","0.0-1.0-809.0-0.0","0","0","44440","","null","","","null","89","","","","","","","","","","","","","","","",""
"","ITI","","html-keyboard-response","577","843517","0.0-1.0-810.0","0","0","44440","","null","","","null","89","","","","","","","","","","","","","","","NaN",""
"","S1","","html-keyboard-response","578","843772","0.0-1.0-812.0","0","0","44440","","null","","","null","90","","","","","","","","","","","","","","","",""
"","ISI","","html-keyboard-response","579","844788","0.0-1.0-813.0","0","0","44440","","408","","","68","90","d","","","","","","","","","","","","","","",""
"","S2","","html-keyboard-response","580","845063","0.0-1.0-814.0","0","0","44440","","null","","","null","90","","NaN","","","","","","","","","","","","","",""
"","response","","html-keyboard-response","581","845255","0.0-1.0-815.0-0.0","0","0","44440","","186","","","68","90","","","2","90","training","adjacent","FE","6","5","M.jpg","N.jpg","1","0","0","",""
