"success","ttype","start_time","trial_type","trial_index","time_elapsed","internal_node_id","warning","missed_checkup","PID","view_history","rt","responses","repeat_instructions","key_press","index","keypress_isi","keypress_S2","block","trial_num","phase","group_type","pair_type","S1_stim","S2_stim","S1_img","S2_img","S1_chosen","S1_higher","accuracy","keypress_iti","total_bonus_tally"
"true","full_screen","d08012022hr1745","fullscreen","0","32496","0.0-0.0","0","0","77686","","","","","","","","","","","","","","","","","","","","","",""
"","instructions","","instructions","1","103049","0.0-1.0-0.0-0.0","0","0","77686","[{""page_index"":0,""viewing_time"":8474},{""page_index"":1,""viewing_time"":18351},{""page_index"":2,""viewing_time"":41099},{""page_index"":3,""viewing_time"":2619}]","70544","","","","","","","","","","","","","","","","","","","",""
"","comprehension_check","","survey-multi-choice","2","141099","0.0-1.0-0.0-1.0","0","0","77686","","38032","{""Q0"":""True"",""Q1"":""D"",""Q2"":""When you see the prompt 'MAKE A CHOICE' after the second image was presented"",""Q3"":""Green mark"",""Q4"":""either D or K""}","0","","","","","","","","","","","","","","","","","",""
"","start_exp","","html-keyboard-response","3","143234","0.0-1.0-1.0","0","0","77686","","2120","","","32","","","","","","","","","","","","","","","","",""
"","S1","","html-keyboard-response","4","143498","0.0-1.0-2.0","0","0","77686","","null","","","null","0","","","","","","","","","","","","","","","",""
"","ISI","","html-keyboard-response","5","145509","0.0-1.0-3.0","0","0","77686","","88","","","32","0","space","","","","","","","","","","","","","","",""
"","S2","","html-keyboard-response","6","145771","0.0-1.0-4.0","0","0","77686","","null","","","null","0","","NaN","","","","","","","","","","","","","",""
"","response","","html-keyboard-response","7","146893","0.0-1.0-5.0","0","0","77686","","1111","","","68","0","","","1","0","training","adjacent","ED","5","4","M.jpg","N.jpg","1","0","0","",""
"","feedback","","html-keyboard-response","8","147903","0.0-1.0-6.0-0.0","0","0","77686","","null","","","null","0","","","","","","","","","","","","","","","",""
"","time_out","","html-keyboard-response","9","149913","0.0-1.0-8.0-0.0","0","0","77686","","null","","","null","0","","","","","","","","","","","","","","","",""
"","ITI","","html-keyboard-response","10","150922","0.0-1.0-9.0","0","0","77686","","null","","","null","0","","","","","","","","","","","","","","","NaN",""
"","S1","","html-keyboard-response","11","151184","0.0-1.0-11.0","0","0","77686","","null","","","null","1","","","","","","","","","","","","","","","",""
"","ISI","","html-keyboard-response","12","153195","0.0-1.0-12.0","0","0","77686","","null","","","null","1","NaN","","","","","","","","","","","","","","",""
"","S2","","html-keyboard-response","13","153456","0.0-1.0-13.0","0","0","77686","","null","","","null","1","","NaN","","","","","","","","","","","","","",""
"","response","","html-keyboard-response","14","154105","0.0-1.0-14.0","0","0","77686","","639","","","75","1","","","1","1","training","adjacent","DC","4","3","N.jpg","Q.jpg","0","0","1","",""
"","feedback","","html-keyboard-response","15","155114","0.0-1.0-15.0-0.0","0","0","77686","","null","","","null","1","","","","","","","","","","","","","","","",""
"","ITI","","html-keyboard-response","16","156123","0.0-1.0-18.0","0","0","77686","","null","","","null","1","","","","","","","","","","","","","","","NaN",""
"","S1","","html-keyboard-response","17","156383","0.0-1.0-20.0","0","0","77686","","null","","","null","2","","","","","","","","","","","","","","","",""
"","ISI","","html-keyboard-response","18","158391","0.0-1.0-21.0","0","0","77686","","null","","","null","2","NaN","","","","","","","","","","","","","","",""
"","S2","","html-keyboard-response","19","158651","0.0-1.0-22.0","0","0","77686","","null","","","null","2","","NaN","","","","","","","","","","","","","",""
"","response","","html-keyboard-response","20","159314","0.0-1.0-23.0","0","0","77686","","655","","","75","2","","","1","2","training","adjacent","CB","3","2","Q.jpg","O.jpg","0","0","1","",""
"","feedback","","html-keyboard-response","21","160325","0.0-1.0-24.0-0.0","0","0","77686","","null","","","null","2","","","","","","","","","","","","","","","",""
"","ITI","","html-keyboard-response","22","161340","0.0-1.0-27.0","0","0","77686","","null","","","null","2","","","","","","","","","","","","","","","NaN",""
"","S1","","html-keyboard-response","23","161602","0.0-1.0-29.0","0","0","77686","","null","","","null","3","","","","","","","","","","","","","","","",""
"","ISI","","html-keyboard-response","24","163613","0.0-1.0-30.0","0","0","77686","","null","","","null","3","NaN","","","","","","","","","","","","","","",""
"","S2","","html-keyboard-response","25","163874","0.0-1.0-31.0","0","0","77686","","null","","","null","3","","NaN","","","","","","","","","","","","","",""
"","response","","html-keyboard-response","26","164033","0.0-1.0-32.0","0","0","77686","","151","","","68","3","","","1","3","training","adjacent","FE","6","5","R.jpg","M.jpg","1","0","0","",""
"","feedback","","html-keyboard-response","27","165042","0.0-1.0-33.0-0.0","0","0","77686","","null","","","null","3","","","","","","","","","","","","","","","",""
"","time_out","","html-keyboard-response","28","167056","0.0-1.0-35.0-0.0","0","0","77686","","null","","","null","3","","","","","","","","","","","","","","","",""
"","ITI","","html-keyboard-response","29","168064","0.0-1.0-36.0","0","0","77686","","null","","","null","3","","","","","","","","","","","","","","","NaN",""
"","S1","","html-keyboard-response","30","168324","0.0-1.0-38.0","0","0","77686","","null","","","null","4","","","","","","","","","","","","","","","",""
"","ISI","","html-keyboard-response","31","170335","0.0-1.0-39.0","0","0","77686","","null","","","null","4","NaN","","","","","","","","","","","","","","",""
"","S2","","html-keyboard-response","32","170595","0.0-1.0-40.0","0","0","77686","","null","","","null","4","","NaN","","","","","","","","","","","","","",""
"","response","","html-keyboard-response","33","171519","0.0-1.0-41.0","0","0","77686","","914","","","75","4","","","1","4","training","adjacent","DC","4","3","N.jpg","Q.jpg","0","0","1","",""
"","feedback","","html-keyboard-response","34","172529","0.0-1.0-42.0-0.0","0","0","77686","","null","","","null","4","","","","","","","","","","","","","","","",""
"","ITI","","html-keyboard-response","35","173537","0.0-1.0-45.0","0","0","77686","","null","","","null","4","","","","","","","","","","","","","","","NaN",""
"","S1","","html-keyboard-response","36","173797","0.0-1.0-47.0","0","0","77686","","null","","","null","5","","","","","","","","","","","","","","","",""
"","ISI","","html-keyboard-response","37","175805","0.0-1.0-48.0","0","0","77686","","null","","","null","5","NaN","","","","","","","","","","","","","","",""
"","S2","","html-keyboard-response","38","176064","0.0-1.0-49.0","0","0","77686","","null","","","null","5","","NaN","","","","","","","","","","","","","",""
"","response","","html-keyboard-response","39","176984","0.0-1.0-50.0","0","0","77686","","909","","","75","5","","","1","5","training","adjacent","EF","5","6","M.jpg","R.jpg","0","1","0","",""
"","feedback","","html-keyboard-response","40","177993","0.0-1.0-51.0-0.0","0","0","77686","","null","","","null","5","","","","","","","","","","","","","","","",""
"","time_out","","html-keyboard-response","41","180003","0.0-1.0-53.0-0.0","0","0","77686","","null","","","null","5","","","","","","","","","","","","","","","",""
"","ITI","","html-keyboard-response","42","181012","0.0-1.0-54.0","0","0","77686","","null","","","null","5","","","","","","","","","","","","","","","NaN",""
"","S1","","html-keyboard-response","43","181276","0.0-1.0-56.0","0","0","77686","","null","","","null","6","","","","","","","","","","","","","","","",""
"","ISI","","html-keyboard-response","44","183284","0.0-1.0-57.0","0","0","77686","","null","","","null","6","NaN","","","","","","","","","","","","","","",""
"","S2","","html-keyboard-response","45","183542","0.0-1.0-58.0","0","0","77686","","null","","","null","6","","NaN","","","","","","","","","","","","","",""
"","response","","html-keyboard-response","46","183921","0.0-1.0-59.0","0","0","77686","","369","","","68","6","","","1","6","training","adjacent","DE","4","5","N.jpg","M.jpg","1","1","1","",""
"","feedback","","html-keyboard-response","47","184930","0.0-1.0-60.0-0.0","0","0","77686","","null","","","null","6","","","","","","","","","","","","","","","",""
"","ITI","","html-keyboard-response","48","185939","0.0-1.0-63.0","0","0","77686","","null","","","null","6","","","","","","","","","","","","","","","NaN",""
"","S1","","html-keyboard-response","49","186201","0.0-1.0-65.0","0","0","77686","","null","","","null","7","","","","","","","","","","","","","","","",""
"","ISI","","html-keyboard-response","50","188211","0.0-1.0-66.0","0","0","77686","","null","","","null","7","NaN","","","","","","","","","","","","","","",""
"","S2","","html-keyboard-response","51","188470","0.0-1.0-67.0","0","0","77686","","null","","","null","7","","NaN","","","","","","","","","","","","","",""
"","response","","html-keyboard-response","52","189228","0.0-1.0-68.0","0","0","77686","","745","","","75","7","","","1","7","training","adjacent","CD","3","4","Q.jpg","N.jpg","0","1","0","",""
"","feedback","","html-keyboard-response","53","190239","0.0-1.0-69.0-0.0","0","0","77686","","null","","","null","7","","","","","","","","","","","","","","","",""
"","time_out","","html-keyboard-response","54","192248","0.0-1.0-71.0-0.0","0","0","77686","","null","","","null","7","","","","","","","","","","","","","","","",""
"","ITI","","html-keyboard-response","55","193257","0.0-1.0-72.0","0","0","77686","","null","","","null","7","","","","","","","","","","","","","","","NaN",""
"","S1","","html-keyboard-response","56","193520","0.0-1.0-74.0","0","0","77686","","null","","","null","8","","","","","","","","","","","","","","","",""
"","ISI","","html-keyboard-response","57","195529","0.0-1.0-75.0","0","0","77686","","null","","","null","8","NaN","","","","","","","","","","","","","","",""
"","S2","","html-keyboard-response","58","195788","0.0-1.0-76.0","0","0","77686","","null","","","null","8","","NaN","","","","","","","","","","","","","",""
"","response","","html-keyboard-response","59","196253","0.0-1.0-77.0","0","0","77686","","458","","","75","8","","","1","8","training","adjacent","CD","3","4","Q.jpg","N.jpg","0","1","0","",""
"","feedback","","html-keyboard-response","60","197264","0.0-1.0-78.0-0.0","0","0","77686","","null","","","null","8","","","","","","","","","","","","","","","",""
"","time_out","","html-keyboard-response","61","199271","0.0-1.0-80.0-0.0","0","0","77686","","null","","","null","8","","","","","","","","","","","","","","","",""
"","ITI","","html-keyboard-response","62","200281","0.0-1.0-81.0","0","0","77686","","null","","","null","8","","","","","","","","","","","","","","","NaN",""
"","S1","","html-keyboard-response","63","200543","0.0-1.0-83.0","0","0","77686","","null","","","null","9","","","","","","","","","","","","","","","",""
"","ISI","","html-keyboard-response","64","202551","0.0-1.0-84.0","0","0","77686","","null","","","null","9","NaN","","","","","","","","","","","","","","",""
"","S2","","html-keyboard-response","65","202812","0.0-1.0-85.0","0","0","77686","","null","","","null","9","","NaN","","","","","","","","","","","","","",""
"","response","","html-keyboard-response","66","203623","0.0-1.0-86.0","0","0","77686","","800","","","75","9","","","1","9","training","adjacent","FG","6","7","R.jpg","P.jpg","0","1","0","",""
"","feedback","","html-keyboard-response","67","204633","0.0-1.0-87.0-0.0","0","0","77686","","null","","","null","9","","","","","","","","","","","","","","","",""
"","time_out","","html-keyboard-response","68","206640","0.0-1.0-89.0-0.0","0","0","77686","","null","","","null","9","","","","","","","","","","","","","","","",""
"","ITI","","html-keyboard-response","69","207647","0.0-1.0-90.0","0","0","77686","","null","","","null","9","","","","","","","","","","","","","","","NaN",""
"","S1","","html-keyboard-response","70","207909","0.0-1.0-92.0","0","0","77686","","null","","","null","10","","","","","","","","","","","","","","","",""
"","ISI","","html-keyboard-response","71","209918","0.0-1.0-93.0","0","0","77686","","null","","","null","10","NaN","","","","","","","","","","","","","","",""
"","S2","","html-keyboard-response","72","210180","0.0-1.0-94.0","0","0","77686","","null","","","null","10","","NaN","","","","","","","","","","","","","",""
"","response","","html-keyboard-response","73","210643","0.0-1.0-95.0","0","0","77686","","456","","","68","10","","","1","10","training","adjacent","GF","7","6","P.jpg","R.jpg","1","0","0","",""
"","feedback","","html-keyboard-response","74","211651","0.0-1.0-96.0-0.0","0","0","77686","","null","","","null","10","","","","","","","","","","","","","","","",""
"","time_out","","html-keyboard-response","75","213659","0.0-1.0-98.0-0.0","0","0","77686","","null","","","null","10","","","","","","","","","","","","","","","",""
"","ITI","","html-keyboard-response","76","214672","0.0-1.0-99.0","0","0","77686","","null","","","null","10","","","","","","","","","","","","","","","NaN",""
"","S1","","html-keyboard-response","77","214936","0.0-1.0-101.0","0","0","77686","","null","","","null","11","","","","","","","","","","","","","","","",""
"","ISI","","html-keyboard-response","78","216943","0.0-1.0-102.0","0","0","77686","","null","","","null","11","NaN","","","","","","","","","","","","","","",""
"","S2","","html-keyboard-response","79","217202","0.0-1.0-103.0","0","0","77686","","null","","","null","11","","NaN","","","","","","","","","","","","","",""
"","response","","html-keyboard-response","80","218009","0.0-1.0-104.0","0","0","77686","","797","","","75","11","","","1","11","training","adjacent","FG","6","7","R.jpg","P.jpg","0","1","0","",""
"","feedback","","html-keyboard-response","81","219018","0.0-1.0-105.0-0.0","0","0","77686","","null","","","null","11","","","","","","","","","","","","","","","",""
"","time_out","","html-keyboard-response","82","221030","0.0-1.0-107.0-0.0","0","0","77686","","null","","","null","11","","","","","","","","","","","","","","","",""
"","ITI","","html-keyboard-response","83","222037","0.0-1.0-108.0","0","0","77686","","null","","","null","11","","","","","","","","","","","","","","","NaN",""
"","S1","","html-keyboard-response","84","222301","0.0-1.0-110.0","0","0","77686","","null","","","null","12","","","","","","","","","","","","","","","",""
"","ISI","","html-keyboard-response","85","224310","0.0-1.0-111.0","0","0","77686","","null","","","null","12","NaN","","","","","","","","","","","","","","",""
"","S2","","html-keyboard-response","86","224568","0.0-1.0-112.0","0","0","77686","","null","","","null","12","","NaN","","","","","","","","","","","","","",""
"","response","","html-keyboard-response","87","225021","0.0-1.0-113.0","0","0","77686","","443","","","75","12","","","1","12","training","adjacent","AB","1","2","L.jpg","O.jpg","0","1","0","",""
"","feedback","","html-keyboard-response","88","226029","0.0-1.0-114.0-0.0","0","0","77686","","null","","","null","12","","","","","","","","","","","","","","","",""
"","time_out","","html-keyboard-response","89","228038","0.0-1.0-116.0-0.0","0","0","77686","","null","","","null","12","","","","","","","","","","","","","","","",""
"","ITI","","html-keyboard-response","90","229046","0.0-1.0-117.0","0","0","77686","","null","","","null","12","","","","","","","","","","","","","","","NaN",""
"","S1","","html-keyboard-response","91","229306","0.0-1.0-119.0","0","0","77686","","null","","","null","13","","","","","","","","","","","","","","","",""
"","ISI","","html-keyboard-response","92","231316","0.0-1.0-120.0","0","0","77686","","null","","","null","13","NaN","","","","","","","","","","","","","","",""
"","S2","","html-keyboard-response","93","231576","0.0-1.0-121.0","0","0","77686","","null","","","null","13","","NaN","","","","","","","","","","","","","",""
"","response","","html-keyboard-response","94","232167","0.0-1.0-122.0","0","0","77686","","581","","","75","13","","","1","13","training","adjacent","BC","2","3","O.jpg","Q.jpg","0","1","0","",""
"","feedback","","html-keyboard-response","95","233175","0.0-1.0-123.0-0.0","0","0","77686","","null","","","null","13","","","","","","","","","","","","","","","",""
"","time_out","","html-keyboard-response","96","235185","0.0-1.0-125.0-0.0","0","0","77686","","null","","","null","13","","","","","","","","","","","","","","","",""
"","ITI","","html-keyboard-response","97","236193","0.0-1.0-126.0","0","0","77686","","null","","","null","13","","","","","","","","","","","","","","","NaN",""
"","S1","","html-keyboard-response","98","236452","0.0-1.0-128.0","0","0","77686","","null","","","null","14","","","","","","","","","","","","","","","",""
"","ISI","","html-keyboard-response","99","238462","0.0-1.0-129.0","0","0","77686","","null","","","null","14","NaN","","","","","","","","","","","","","","",""
"","S2","","html-keyboard-response","100","238721","0.0-1.0-130.0","0","0","77686","","null","","","null","14","","NaN","","","","","","","","","","","","","",""
"","response","","html-keyboard-response","101","239468","0.0-1.0-131.0","0","0","77686","","737","","","68","14","","","1","14","training","adjacent","AB","1","2","L.jpg","O.jpg","1","1","1","",""
"","feedback","","html-keyboard-response","102","240477","0.0-1.0-132.0-0.0","0","0","77686","","null","","","null","14","","","","","","","","","","","","","","","",""
"","ITI","","html-keyboard-response","103","241486","0.0-1.0-135.0","0","0","77686","","null","","","null","14","","","","","","","","","","","","","","","NaN",""
"","S1","","html-keyboard-response","104","241745","0.0-1.0-137.0","0","0","77686","","null","","","null","15","","","","","","","","","","","","","","","",""
"","ISI","","html-keyboard-response","105","243755","0.0-1.0-138.0","0","0","77686","","null","","","null","15","NaN","","","","","","","","","","","","","","",""
"","S2","","html-keyboard-response","106","244015","0.0-1.0-139.0","0","0","77686","","null","","","null","15","","NaN","","","","","","","","","","","","","",""
"","response","","html-keyboard-response","107","244742","0.0-1.0-140.0","0","0","77686","","715","","","75","15","","","1","15","training","adjacent","FG","6","7","R.jpg","P.jpg","0","1","0","",""
"","feedback","","html-keyboard-response","108","245750","0.0-1.0-141.0-0.0","0","0","77686","","null","","","null","15","","","","","","","","","","","","","","","",""
"","time_out","","html-keyboard-response","109","247756","0.0-1.0-143.0-0.0","0","0","77686","","null","","","null","15","","","","","","","","","","","","","","","",""
"","ITI","","html-keyboard-response","110","248766","0.0-1.0-144.0","0","0","77686","","null","","","null","15","","","","","","","","","","","","","","","NaN",""
"","S1","","html-keyboard-response","111","249026","0.0-1.0-146.0","0","0","77686","","null","","","null","16","","","","","","","","","","","","","","","",""
"","ISI","","html-keyboard-response","112","251040","0.0-1.0-147.0","0","0","77686","","null","","","null","16","NaN","","","","","","","","","","","","","","",""
"","S2","","html-keyboard-response","113","251300","0.0-1.0-148.0","0","0","77686","","null","","","null","16","","NaN","","","","","","","","","","","","","",""
"","response","","html-keyboard-response","114","252155","0.0-1.0-149.0","0","0","77686","","847","","","68","16","","","1","16","training","adjacent","GF","7","6","P.jpg","R.jpg","1","0","0","",""
"","feedback","","html-keyboard-response","115","253166","0.0-1.0-150.0-0.0","0","0","77686","","null","","","null","16","","","","","","","","","","","","","","","",""
"","time_out","","html-keyboard-response","116","255175","0.0-1.0-152.0-0.0","0","0","77686","","null","","","null","16","","","","","","","","","","","","","","","",""
"","ITI","","html-keyboard-response","117","256184","0.0-1.0-153.0","0","0","77686","","null","","","null","16","","","","","","","","","","","","","","","NaN",""
"","S1","","html-keyboard-response","118","256443","0.0-1.0-155.0","0","0","77686","","null","","","null","17","","","","","","","","","","","","","","","",""
"","ISI","","html-keyboard-response","119","258452","0.0-1.0-156.0","0","0","77686","","null","","","null","17","NaN","","","","","","","","","","","","","","",""
"","S2","","html-keyboard-response","120","258712","0.0-1.0-157.0","0","0","77686","","null","","","null","17","","NaN","","","","","","","","","","","","","",""
"","response","","html-keyboard-response","121","259172","0.0-1.0-158.0","0","0","77686","","452","","","68","17","","","1","17","training","adjacent","FG","6","7","R.jpg","P.jpg","1","1","1","",""
"","feedback","","html-keyboard-response","122","260181","0.0-1.0-159.0-0.0","0","0","77686","","null","","","null","17","","","","","","","","","","","","","","","",""
"","ITI","","html-keyboard-response","123","261188","0.0-1.0-162.0","0","0","77686","","null","","","null","17","","","","","","","","","","","","","","","NaN",""
"","S1","","html-keyboard-response","124","261447","0.0-1.0-164.0","0","0","77686","","null","","","null","18","","","","","","","","","","","","","","","",""
"","ISI","","html-keyboard-response","125","263456","0.0-1.0-165.0","0","0","77686","","null","","","null","18","NaN","","","","","","","","","","","","","","",""
"","S2","","html-keyboard-response","126","263714","0.0-1.0-166.0","0","0","77686","","null","","","null","18","","NaN","","","","","","","","","","","","","",""
"","response","","html-keyboard-response","127","264813","0.0-1.0-167.0","0","0","77686","","1091","","","75","18","","","1","18","training","adjacent","DC","4","3","N.jpg","Q.jpg","0","0","1","",""
"","feedback","","html-keyboard-response","128","265821","0.0-1.0-168.0-0.0","0","0","77686","","null","","","null","18","","","","","","","","","","","","","","","",""
"","ITI","","html-keyboard-response","129","266837","0.0-1.0-171.0","0","0","77686","","null","","","null","18","","","","","","","","","","","","","","","NaN",""
"","S1","","html-keyboard-response","130","267097","0.0-1.0-173.0","0","0","77686","","null","","","null","19","","","","","","","","","","","","","","","",""
"","ISI","","html-keyboard-response","131","269106","0.0-1.0-174.0","0","0","77686","","null","","","null","19","NaN","","","","","","","","","","","","","","",""
"","S2","","html-keyboard-response","132","269367","0.0-1.0-175.0","0","0","77686","","null","","","null","19","","NaN","","","","","","","","","","","","","",""
"","response","","html-keyboard-response","133","270047","0.0-1.0-176.0","0","0","77686","","671","","","68","19","","","1","19","training","adjacent","DE","4","5","N.jpg","M.jpg","1","1","1","",""
"","feedback","","html-keyboard-response","134","271055","0.0-1.0-177.0-0.0","0","0","77686","","null","","","null","19","","","","","","","","","","","","","","","",""
"","ITI","","html-keyboard-response","135","272065","0.0-1.0-180.0","0","0","77686","","null","","","null","19","","","","","","","","","","","","","","","NaN",""
"","S1","","html-keyboard-response","136","272325","0.0-1.0-182.0","0","0","77686","","null","","","null","20","","","","","","","","","","","","","","","",""
"","ISI","","html-keyboard-response","137","274336","0.0-1.0-183.0","0","0","77686","","null","","","null","20","NaN","","","","","","","","","","","","","","",""
"","S2","","html-keyboard-response","138","274596","0.0-1.0-184.0","0","0","77686","","null","","","null","20","","NaN","","","","","","","","","","","","","",""
"","response","","html-keyboard-response","139","275484","0.0-1.0-185.0","0","0","77686","","879","","","68","20","","","1","20","training","adjacent","CB","3","2","Q.jpg","O.jpg","1","0","0","",""
"","feedback","","html-keyboard-response","140","276496","0.0-1.0-186.0-0.0","0","0","77686","","null","","","null","20","","","","","","","","","","","","","","","",""
"","time_out","","html-keyboard-response","141","278504","0.0-1.0-188.0-0.0","0","0","77686","","null","","","null","20","","","","","","","","","","","","","","","",""
"","ITI","","html-keyboard-response","142","279518","0.0-1.0-189.0","0","0","77686","","null","","","null","20","","","","","","","","","","","","","","","NaN",""
"","S1","","html-keyboard-response","143","279775","0.0-1.0-191.0","0","0","77686","","null","","","null","21","","","","","","","","","","","","","","","",""
"","ISI","","html-keyboard-response","144","281783","0.0-1.0-192.0","0","0","77686","","null","","","null","21","NaN","","","","","","","","","","","","","","",""
"","S2","","html-keyboard-response","145","282042","0.0-1.0-193.0","0","0","77686","","null","","","null","21","","NaN","","","","","","","","","","","","","",""
"","response","","html-keyboard-response","146","282812","0.0-1.0-194.0","0","0","77686","","761","","","75","21","","","1","21","training","adjacent","EF","5","6","M.jpg","R.jpg","0","1","0","",""
"","feedback","","html-keyboard-response","147","283822","0.0-1.0-195.0-0.0","0","0","77686","","null","","","null","21","","","","","","","","","","","","","","","",""
"","time_out","","html-keyboard-response","148","285832","0.0-1.0-197.0-0.0","0","0","77686","","null","","","null","21","","","","","","","","","","","","","","","",""
"","ITI","","html-keyboard-response","149","286843","0.0-1.0-198.0","0","0","77686","","null","","","null","21","","","","","","","","","","","","","","","NaN",""
"","S1","","html-keyboard-response","150","287106","0.0-1.0-200.0","0","0","77686","","null","","","null","22","","","","","","","","","","","","","","","",""
"","ISI","","html-keyboard-response","151","289116","0.0-1.0-201.0","0","0","77686","","null","","","null","22","NaN","","","","","","","","","","","","","","",""
"","S2","","html-keyboard-response","152","289374","0.0-1.0-202.0","0","0","77686","","null","","","null","22","","NaN","","","","","","","","","","","","","",""
"","response","","html-keyboard-response","153","290129","0.0-1.0-203.0","0","0","77686","","742","","","75","22","","","1","22","training","adjacent","DC","4","3","N.jpg","Q.jpg","0","0","1","",""
"","feedback","","html-keyboard-response","154","291139","0.0-1.0-204.0-0.0","0","0","77686","","null","","","null","22","","","","","","","","","","","","","","","",""
"","ITI","","html-keyboard-response","155","292146","0.0-1.0-207.0","0","0","77686","","null","","","null","22","","","","","","","","","","","","","","","NaN",""
"","S1","","html-keyboard-response","156","292405","0.0-1.0-209.0","0","0","77686","","null","","","null","23","","","","","","","","","","","","","","","",""
"","ISI","","html-keyboard-response","157","294416","0.0-1.0-210.0","0","0","77686","","null","","","null","23","NaN","","","","","","","","","","","","","","",""
"","S2","","html-keyboard-response","158","294676","0.0-1.0-211.0","0","0","77686","","null","","","null","23","","NaN","","","","","","","","","","","","","",""
"","response","","html-keyboard-response","159","295644","0.0-1.0-212.0","0","0","77686","","955","","","68","23","","","1","23","training","adjacent","BA","2","1","O.jpg","L.jpg","1","0","0","",""
"","feedback","","html-keyboard-response","160","296655","0.0-1.0-213.0-0.0","0","0","77686","","null","","","null","23","","","","","","","","","","","","","","","",""
"","time_out","","html-keyboard-response","161","298663","0.0-1.0-215.0-0.0","0","0","77686","","null","","","null","23","","","","","","","","","","","","","","","",""
"","ITI","","html-keyboard-response","162","299675","0.0-1.0-216.0","0","0","77686","","null","","","null","23","","","","","","","","","","","","","","","NaN",""
"","S1","","html-keyboard-response","163","299938","0.0-1.0-218.0","0","0","77686","","null","","","null","24","","","","","","","","","","","","","","","",""
"","ISI","","html-keyboard-response","164","301946","0.0-1.0-219.0","0","0","77686","","null","","","null","24","NaN","","","","","","","","","","","","","","",""
"","S2","","html-keyboard-response","165","302207","0.0-1.0-220.0","0","0","77686","","null","","","null","24","","NaN","","","","","","","","","","","","","",""
"","response","","html-keyboard-response","166","302654","0.0-1.0-221.0","0","0","77686","","437","","","75","24","","","1","24","training","adjacent","ED","5","4","M.jpg","N.jpg","0","0","1","",""
"","feedback","","html-keyboard-response","167","303664","0.0-1.0-222.0-0.0","0","0","77686","","null","","","null","24","","","","","","","","","","","","","","","",""
"","ITI","","html-keyboard-response","168","304672","0.0-1.0-225.0","0","0","77686","","null","","","null","24","","","","","","","","","","","","","","","NaN",""
"","S1","","html-keyboard-response","169","304934","0.0-1.0-227.0","0","0","77686","","null","","","null","25","","","","","","","","","","","","","","","",""
"","ISI","","html-keyboard-response","170","306941","0.0-1.0-228.0","0","0","77686","","null","","","null","25","NaN","","","","","","","","","","","","","","",""
"","S2","","html-keyboard-response","171","307200","0.0-1.0-229.0","0","0","77686","","null","","","null","25","","NaN","","","","","","","","","","","","","",""
"","response","","html-keyboard-response","172","308020","0.0-1.0-230.0","0","0","77686","","813","","","75","25","","","1","25","training","adjacent","FE","6","5","R.jpg","M.jpg","0","0","1","",""
"","feedback","","html-keyboard-response","173","309030","0.0-1.0-231.0-0.0","0","0","77686","","null","","","null","25","","","","","","","","","","","","","","","",""
"","ITI","","html-keyboard-response","174","310038","0.0-1.0-234.0","0","0","77686","","null","","","null","25","","","","","","","","","","","","","","","NaN",""
"","S1","","html-keyboard-response","175","310295","0.0-1.0-236.0","0","0","77686","","null","","","null","26","","","","","","","","","","","","","","","",""
"","ISI","","html-keyboard-response","176","312305","0.0-1.0-237.0","0","0","77686","","null","","","null","26","NaN","","","","","","","","","","","","","","",""
"","S2","","html-keyboard-response","177","312563","0.0-1.0-238.0","0","0","77686","","null","","","null","26","","NaN","","","","","","","","","","","","","",""
"","response","","html-keyboard-response","178","313310","0.0-1.0-239.0","0","0","77686","","740","","","75","26","","","1","26","training","adjacent","EF","5","6","M.jpg","R.jpg","0","1","0","",""
"","feedback","","html-keyboard-response","179","314320","0.0-1.0-240.0-0.0","0","0","77686","","null","","","null","26","","","","","","","","","","","","","","","",""
"","time_out","","html-keyboard-response","180","316335","0.0-1.0-242.0-0.0","0","0","77686","","null","","","null","26","","","","","","","","","","","","","","","",""
"","ITI","","html-keyboard-response","181","317342","0.0-1.0-243.0","0","0","77686","","null","","","null","26","","","","","","","","","","","","","","","NaN",""
"","S1","","html-keyboard-response","182","317602","0.0-1.0-245.0","0","0","77686","","null","","","null","27","","","","","","","","","","","","","","","",""
"","ISI","","html-keyboard-response","183","319609","0.0-1.0-246.0","0","0","77686","","null","","","null","27","NaN","","","","","","","","","","","","","","",""
"","S2","","html-keyboard-response","184","319871","0.0-1.0-247.0","0","0","77686","","null","","","null","27","","NaN","","","","","","","","","","","","","",""
"","response","","html-keyboard-response","185","320324","0.0-1.0-248.0","0","0","77686","","444","","","68","27","","","1","27","training","adjacent","AB","1","2","L.jpg","O.jpg","1","1","1","",""
"","feedback","","html-keyboard-response","186","321336","0.0-1.0-249.0-0.0","0","0","77686","","null","","","null","27","","","","","","","","","","","","","","","",""
"","ITI","","html-keyboard-response","187","322344","0.0-1.0-252.0","0","0","77686","","null","","","null","27","","","","","","","","","","","","","","","NaN",""
"","S1","","html-keyboard-response","188","322602","0.0-1.0-254.0","0","0","77686","","null","","","null","28","","","","","","","","","","","","","","","",""
"","ISI","","html-keyboard-response","189","324612","0.0-1.0-255.0","0","0","77686","","null","","","null","28","NaN","","","","","","","","","","","","","","",""
"","S2","","html-keyboard-response","190","324872","0.0-1.0-256.0","0","0","77686","","null","","","null","28","","NaN","","","","","","","","","","","","","",""
"","response","","html-keyboard-response","191","325957","0.0-1.0-257.0","0","0","77686","","1075","","","75","28","","","1","28","training","adjacent","BC","2","3","O.jpg","Q.jpg","0","1","0","",""
"","feedback","","html-keyboard-response","192","326967","0.0-1.0-258.0-0.0","0","0","77686","","null","","","null","28","","","","","","","","","","","","","","","",""
"","time_out","","html-keyboard-response","193","328977","0.0-1.0-260.0-0.0","0","0","77686","","null","","","null","28","","","","","","","","","","","","","","","",""
"","ITI","","html-keyboard-response","194","329988","0.0-1.0-261.0","0","0","77686","","null","","","null","28","","","","","","","","","","","","","","","NaN",""
"","S1","","html-keyboard-response","195","330248","0.0-1.0-263.0","0","0","77686","","null","","","null","29","","","","","","","","","","","","","","","",""
"","ISI","","html-keyboard-response","196","332256","0.0-1.0-264.0","0","0","77686","","null","","","null","29","NaN","","","","","","","","","","","","","","",""
"","S2","","html-keyboard-response","197","332513","0.0-1.0-265.0","0","0","77686","","null","","","null","29","","NaN","","","","","","","","","","","","","",""
"","response","","html-keyboard-response","198","332855","0.0-1.0-266.0","0","0","77686","","333","","","68","29","","","1","29","training","adjacent","ED","5","4","M.jpg","N.jpg","1","0","0","",""
"","feedback","","html-keyboard-response","199","333866","0.0-1.0-267.0-0.0","0","0","77686","","null","","","null","29","","","","","","","","","","","","","","","",""
"","time_out","","html-keyboard-response","200","335875","0.0-1.0-269.0-0.0","0","0","77686","","null","","","null","29","","","","","","","","","","","","","","","",""
"","ITI","","html-keyboard-response","201","336886","0.0-1.0-270.0","0","0","77686","","null","","","null","29","","","","","","","","","","","","","","","NaN",""
"","S1","","html-keyboard-response","202","337144","0.0-1.0-272.0","0","0","77686","","null","","","null","30","","","","","","","","","","","","","","","",""
"","ISI","","html-keyboard-response","203","339151","0.0-1.0-273.0","0","0","77686","","null","","","null","30","NaN","","","","","","","","","","","","","","",""
"","S2","","html-keyboard-response","204","339411","0.0-1.0-274.0","0","0","77686","","null","","","null","30","","NaN","","","","","","","","","","","","","",""
"","response","","html-keyboard-response","205","340257","0.0-1.0-275.0","0","0","77686","","837","","","68","30","","","1","30","training","adjacent","AB","1","2","L.jpg","O.jpg","1","1","1","",""
"","feedback","","html-keyboard-response","206","341266","0.0-1.0-276.0-0.0","0","0","77686","","null","","","null","30","","","","","","","","","","","","","","","",""
"","ITI","","html-keyboard-response","207","342277","0.0-1.0-279.0","0","0","77686","","null","","","null","30","","","","","","","","","","","","","","","NaN",""
"","S1","","html-keyboard-response","208","342537","0.0-1.0-281.0","0","0","77686","","null","","","null","31","","","","","","","","","","","","","","","",""
"","ISI","","html-keyboard-response","209","344544","0.0-1.0-282.0","0","0","77686","","null","","","null","31","NaN","","","","","","","","","","","","","","",""
"","S2","","html-keyboard-response","210","344803","0.0-1.0-283.0","0","0","77686","","null","","","null","31","","NaN","","","","","","","","","","","","","",""
"","response","","html-keyboard-response","211","345373","0.0-1.0-284.0","0","0","77686","","563","","","75","31","","","1","31","training","adjacent","BC","2","3","O.jpg","Q.jpg","0","1","0","",""
"","feedback","","html-keyboard-response","212","346384","0.0-1.0-285.0-0.0","0","0","77686","","null","","","null","31","","","","","","","","","","","","","","","",""
"","time_out","","html-keyboard-response","213","348391","0.0-1.0-287.0-0.0","0","0","77686","","null","","","null","31","","","","","","","","","","","","","","","",""
"","ITI","","html-keyboard-response","214","349399","0.0-1.0-288.0","0","0","77686","","null","","","null","31","","","","","","","","","","","","","","","NaN",""
"","S1","","html-keyboard-response","215","349659","0.0-1.0-290.0","0","0","77686","","null","","","null","32","","","","","","","","","","","","","","","",""
"","ISI","","html-keyboard-response","216","351669","0.0-1.0-291.0","0","0","77686","","null","","","null","32","NaN","","","","","","","","","","","","","","",""
"","S2","","html-keyboard-response","217","351933","0.0-1.0-292.0","0","0","77686","","null","","","null","32","","NaN","","","","","","","","","","","","","",""
"","response","","html-keyboard-response","218","352738","0.0-1.0-293.0","0","0","77686","","794","","","68","32","","","1","32","training","adjacent","CD","3","4","Q.jpg","N.jpg","1","1","1","",""
"","feedback","","html-keyboard-response","219","353748","0.0-1.0-294.0-0.0","0","0","77686","","null","","","null","32","","","","","","","","","","","","","","","",""
"","ITI","","html-keyboard-response","220","354756","0.0-1.0-297.0","0","0","77686","","null","","","null","32","","","","","","","","","","","","","","","NaN",""
"","S1","","html-keyboard-response","221","355018","0.0-1.0-299.0","0","0","77686","","null","","","null","33","","","","","","","","","","","","","","","",""
"","ISI","","html-keyboard-response","222","357027","0.0-1.0-300.0","0","0","77686","","null","","","null","33","NaN","","","","","","","","","","","","","","",""
"","S2","","html-keyboard-response","223","357291","0.0-1.0-301.0","0","0","77686","","null","","","null","33","","NaN","","","","","","","","","","","","","",""
"","response","","html-keyboard-response","224","357402","0.0-1.0-302.0","0","0","77686","","101","","","68","33","","","1","33","training","adjacent","CB","3","2","Q.jpg","O.jpg","1","0","0","",""
"","feedback","","html-keyboard-response","225","358411","0.0-1.0-303.0-0.0","0","0","77686","","null","","","null","33","","","","","","","","","","","","","","","",""
"","time_out","","html-keyboard-response","226","360422","0.0-1.0-305.0-0.0","0","0","77686","","null","","","null","33","","","","","","","","","","","","","","","",""
"","ITI","","html-keyboard-response","227","361430","0.0-1.0-306.0","0","0","77686","","null","","","null","33","","","","","","","","","","","","","","","NaN",""
"","S1","","html-keyboard-response","228","361690","0.0-1.0-308.0","0","0","77686","","null","","","null","34","","","","","","","","","","","","","","","",""
"","ISI","","html-keyboard-response","229","363700","0.0-1.0-309.0","0","0","77686","","null","","","null","34","NaN","","","","","","","","","","","","","","",""
"","S2","","html-keyboard-response","230","363958","0.0-1.0-310.0","0","0","77686","","null","","","null","34","","NaN","","","","","","","","","","","","","",""
"","response","","html-keyboard-response","231","364084","0.0-1.0-311.0","0","0","77686","","116","","","68","34","","","1","34","training","adjacent","GF","7","6","P.jpg","R.jpg","1","0","0","",""
"","feedback","","html-keyboard-response","232","365092","0.0-1.0-312.0-0.0","0","0","77686","","null","","","null","34","","","","","","","","","","","","","","","",""
"","time_out","","html-keyboard-response","233","367100","0.0-1.0-314.0-0.0","0","0","77686","","null","","","null","34","","","","","","","","","","","","","","","",""
"","ITI","","html-keyboard-response","234","368110","0.0-1.0-315.0","0","0","77686","","null","","","null","34","","","","","","","","","","","","","","","NaN",""
"","S1","","html-keyboard-response","235","368371","0.0-1.0-317.0","0","0","77686","","null","","","null","35","","","","","","","","","","","","","","","",""
"","ISI","","html-keyboard-response","236","370380","0.0-1.0-318.0","0","0","77686","","null","","","null","35","NaN","","","","","","","","","","","","","","",""
"","S2","","html-keyboard-response","237","370640","0.0-1.0-319.0","0","0","77686","","null","","","null","35","","NaN","","","","","","","","","","","","","",""
"","response","","html-keyboard-response","238","370979","0.0-1.0-320.0","0","0","77686","","330","","","75","35","","","1","35","training","adjacent","BC","2","3","O.jpg","Q.jpg","0","1","0","",""
"","feedback","","html-keyboard-response","239","371987","0.0-1.0-321.0-0.0","0","0","77686","","null","","","null","35","","","","","","","","","","","","","","","",""
"","time_out","","html-keyboard-response","240","373994","0.0-1.0-323.0-0.0","0","0","77686","","null","","","null","35","","","","","","","","","","","","","","","",""
"","ITI","","html-keyboard-response","241","375004","0.0-1.0-324.0","0","0","77686","","null","","","null","35","","","","","","","","","","","","","","","NaN",""
"","S1","","html-keyboard-response","242","375266","0.0-1.0-326.0","0","0","77686","","null","","","null","36","","","","","","","","","","","","","","","",""
"","ISI","","html-keyboard-response","243","377275","0.0-1.0-327.0","0","0","77686","","null","","","null","36","NaN","","","","","","","","","","","","","","",""
"","S2","","html-keyboard-response","244","377535","0.0-1.0-328.0","0","0","77686","","null","","","null","36","","NaN","","","","","","","","","","","","","",""
"","response","","html-keyboard-response","245","377893","0.0-1.0-329.0","0","0","77686","","345","","","75","36","","","1","36","training","adjacent","EF","5","6","M.jpg","R.jpg","0","1","0","",""
"","feedback","","html-keyboard-response","246","378905","0.0-1.0-330.0-0.0","0","0","77686","","null","","","null","36","","","","","","","","","","","","","","","",""
"","time_out","","html-keyboard-response","247","380913","0.0-1.0-332.0-0.0","0","0","77686","","null","","","null","36","","","","","","","","","","","","","","","",""
"","ITI","","html-keyboard-response","248","381924","0.0-1.0-333.0","0","0","77686","","null","","","null","36","","","","","","","","","","","","","","","NaN",""
"","S1","","html-keyboard-response","249","382187","0.0-1.0-335.0","0","0","77686","","null","","","null","37","","","","","","","","","","","","","","","",""
"","ISI","","html-keyboard-response","250","384195","0.0-1.0-336.0","0","0","77686","","null","","","null","37","NaN","","","","","","","","","","","","","","",""
"","S2","","html-keyboard-response","251","384457","0.0-1.0-337.0","0","0","77686","","null","","","null","37","","NaN","","","","","","","","","","","","","",""
"","response","","html-keyboard-response","252","385060","0.0-1.0-338.0","0","0","77686","","594","","","75","37","","","1","37","training","adjacent","DE","4","5","N.jpg","M.jpg","0","1","0","",""
"","feedback","","html-keyboard-response","253","386072","0.0-1.0-339.0-0.0","0","0","77686","","null","","","null","37","","","","","","","","","","","","","","","",""
"","time_out","","html-keyboard-response","254","388080","0.0-1.0-341.0-0.0","0","0","77686","","null","","","null","37","","","","","","","","","","","","","","","",""
"","ITI","","html-keyboard-response","255","389090","0.0-1.0-342.0","0","0","77686","","null","","","null","37","","","","","","","","","","","","","","","NaN",""
"","S1","","html-keyboard-response","256","389349","0.0-1.0-344.0","0","0","77686","","null","","","null","38","","","","","","","","","","","","","","","",""
"","ISI","","html-keyboard-response","257","391358","0.0-1.0-345.0","0","0","77686","","null","","","null","38","NaN","","","","","","","","","","","","","","",""
"","S2","","html-keyboard-response","258","391619","0.0-1.0-346.0","0","0","77686","","null","","","null","38","","NaN","","","","","","","","","","","","","",""
"","response","","html-keyboard-response","259","392619","0.0-1.0-347.0","0","0","77686","","992","","","68","38","","","1","38","training","adjacent","CD","3","4","Q.jpg","N.jpg","1","1","1","",""
"","feedback","","html-keyboard-response","260","393628","0.0-1.0-348.0-0.0","0","0","77686","","null","","","null","38","","","","","","","","","","","","","","","",""
"","ITI","","html-keyboard-response","261","394641","0.0-1.0-351.0","0","0","77686","","null","","","null","38","","","","","","","","","","","","","","","NaN",""
"","S1","","html-keyboard-response","262","394899","0.0-1.0-353.0","0","0","77686","","null","","","null","39","","","","","","","","","","","","","","","",""
"","ISI","","html-keyboard-response","263","396910","0.0-1.0-354.0","0","0","77686","","null","","","null","39","NaN","","","","","","","","","","","","","","",""
"","S2","","html-keyboard-response","264","397168","0.0-1.0-355.0","0","0","77686","","null","","","null","39","","NaN","","","","","","","","","","","","","",""
"","response","","html-keyboard-response","265","398259","0.0-1.0-356.0","0","0","77686","","1081","","","68","39","","","1","39","training","adjacent","BA","2","1","O.jpg","L.jpg","1","0","0","",""
"","feedback","","html-keyboard-response","266","399271","0.0-1.0-357.0-0.0","0","0","77686","","null","","","null","39","","","","","","","","","","","","","","","",""
"","time_out","","html-keyboard-response","267","401280","0.0-1.0-359.0-0.0","0","0","77686","","null","","","null","39","","","","","","","","","","","","","","","",""
"","ITI","","html-keyboard-response","268","402290","0.0-1.0-360.0","0","0","77686","","null","","","null","39","","","","","","","","","","","","","","","NaN",""
"","S1","","html-keyboard-response","269","402549","0.0-1.0-362.0","0","0","77686","","null","","","null","40","","","","","","","","","","","","","","","",""
"","ISI","","html-keyboard-response","270","404557","0.0-1.0-363.0","0","0","77686","","null","","","null","40","NaN","","","","","","","","","","","","","","",""
"","S2","","html-keyboard-response","271","404819","0.0-1.0-364.0","0","0","77686","","null","","","null","40","","NaN","","","","","","","","","","","","","",""
"","response","","html-keyboard-response","272","405866","0.0-1.0-365.0","0","0","77686","","1037","","","75","40","","","1","40","training","adjacent","DE","4","5","N.jpg","M.jpg","0","1","0","",""
"","feedback","","html-keyboard-response","273","406876","0.0-1.0-366.0-0.0","0","0","77686","","null","","","null","40","","","","","","","","","","","","","","","",""
"","time_out","","html-keyboard-response","274","408885","0.0-1.0-368.0-0.0","0","0","77686","","null","","","null","40","","","","","","","","","","","","","","","",""
"","ITI","","html-keyboard-response","275","409898","0.0-1.0-369.0","0","0","77686","","null","","","null","40","","","","","","","","","","","","","","","NaN",""
"","S1","","html-keyboard-response","276","410159","0.0-1.0-371.0","0","0","77686","","null","","","null","41","","","","","","","","","","","","","","","",""
"","ISI","","html-keyboard-response","277","412167","0.0-1.0-372.0","0","0","77686","","null","","","null","41","NaN","","","","","","","","","","","","","","",""
"","S2","","html-keyboard-response","278","412428","0.0-1.0-373.0","0","0","77686","","null","","","null","41","","NaN","","","","","","","","","","","","","",""
"","response","","html-keyboard-response","279","412962","0.0-1.0-374.0","0","0","77686","","524","","","68","41","","","1","41","training","adjacent","FE","6","5","R.jpg","M.jpg","1","0","0","",""
"","feedback","","html-keyboard-response","280","413976","0.0-1.0-375.0-0.0","0","0","77686","","null","","","null","41","","","","","","","","","","","","","","","",""
"","time_out","","html-keyboard-response","281","415987","0.0-1.0-377.0-0.0","0","0","77686","","null","","","null","41","","","","","","","","","","","","","","","",""
"","ITI","","html-keyboard-response","282","416996","0.0-1.0-378.0","0","0","77686","","null","","","null","41","","","","","","","","","","","","","","","NaN",""
"","S1","","html-keyboard-response","283","417257","0.0-1.0-380.0","0","0","77686","","null","","","null","42","","","","","","","","","","","","","","","",""
"","ISI","","html-keyboard-response","284","419266","0.0-1.0-381.0","0","0","77686","","null","","","null","42","NaN","","","","","","","","","","","","","","",""
"","S2","","html-keyboard-response","285","419525","0.0-1.0-382.0","0","0","77686","","null","","","null","42","","NaN","","","","","","","","","","","","","",""
"","response","","html-keyboard-response","286","420045","0.0-1.0-383.0","0","0","77686","","512","","","75","42","","","1","42","training","adjacent","BA","2","1","O.jpg","L.jpg","0","0","1","",""
"","feedback","","html-keyboard-response","287","421054","0.0-1.0-384.0-0.0","0","0","77686","","null","","","null","42","","","","","","","","","","","","","","","",""
"","ITI","","html-keyboard-response","288","422063","0.0-1.0-387.0","0","0","77686","","null","","","null","42","","","","","","","","","","","","","","","NaN",""
"","S1","","html-keyboard-response","289","422323","0.0-1.0-389.0","0","0","77686","","null","","","null","43","","","","","","","","","","","","","","","",""
"","ISI","","html-keyboard-response","290","424336","0.0-1.0-390.0","0","0","77686","","null","","","null","43","NaN","","","","","","","","","","","","","","",""
"","S2","","html-keyboard-response","291","424595","0.0-1.0-391.0","0","0","77686","","null","","","null","43","","NaN","","","","","","","","","","","","","",""
"","response","","html-keyboard-response","292","424809","0.0-1.0-392.0","0","0","77686","","204","","","75","43","","","1","43","training","adjacent","BA","2","1","O.jpg","L.jpg","0","0","1","",""
"","feedback","","html-keyboard-response","293","425820","0.0-1.0-393.0-0.0","0","0","77686","","null","","","null","43","","","","","","","","","","","","","","","",""
"","ITI","","html-keyboard-response","294","426828","0.0-1.0-396.0","0","0","77686","","null","","","null","43","","","","","","","","","","","","","","","NaN",""
"","S1","","html-keyboard-response","295","427089","0.0-1.0-398.0","0","0","77686","","null","","","null","44","","","","","","","","","","","","","","","",""
"","ISI","","html-keyboard-response","296","429100","0.0-1.0-399.0","0","0","77686","","null","","","null","44","NaN","","","","","","","","","","","","","","",""
"","S2","","html-keyboard-response","297","429362","0.0-1.0-400.0","0","0","77686","","null","","","null","44","","NaN","","","","","","","","","","","","","",""
"","response","","html-keyboard-response","298","429727","0.0-1.0-401.0","0","0","77686","","357","","","68","44","","","1","44","training","adjacent","FE","6","5","R.jpg","M.jpg","1","0","0","",""
"","feedback","","html-keyboard-response","299","430742","0.0-1.0-402.0-0.0","0","0","77686","","null","","","null","44","","","","","","","","","","","","","","","",""
"","time_out","","html-keyboard-response","300","432749","0.0-1.0-404.0-0.0","0","0","77686","","null","","","null","44","","","","","","","","","","","","","","","",""
"","ITI","","html-keyboard-response","301","433757","0.0-1.0-405.0","0","0","77686","","null","","","null","44","","","","","","","","","","","","","","","NaN",""
"","S1","","html-keyboard-response","302","434019","0.0-1.0-407.0","0","0","77686","","null","","","null","45","","","","","","","","","","","","","","","",""
"","ISI","","html-keyboard-response","303","436029","0.0-1.0-408.0","0","0","77686","","null","","","null","45","NaN","","","","","","","","","","","","","","",""
"","S2","","html-keyboard-response","304","436289","0.0-1.0-409.0","0","0","77686","","null","","","null","45","","NaN","","","","","","","","","","","","","",""
"","response","","html-keyboard-response","305","436901","0.0-1.0-410.0","0","0","77686","","603","","","75","45","","","1","45","training","adjacent","CB","3","2","Q.jpg","O.jpg","0","0","1","",""
"","feedback","","html-keyboard-response","306","437909","0.0-1.0-411.0-0.0","0","0","77686","","null","","","null","45","","","","","","","","","","","","","","","",""
"","ITI","","html-keyboard-response","307","438919","0.0-1.0-414.0","0","0","77686","","null","","","null","45","","","","","","","","","","","","","","","NaN",""
"","S1","","html-keyboard-response","308","439179","0.0-1.0-416.0","0","0","77686","","null","","","null","46","","","","","","","","","","","","","","","",""
"","ISI","","html-keyboard-response","309","441188","0.0-1.0-417.0","0","0","77686","","null","","","null","46","NaN","","","","","","","","","","","","","","",""
"","S2","","html-keyboard-response","310","441448","0.0-1.0-418.0","0","0","77686","","null","","","null","46","","NaN","","","","","","","","","","","","","",""
"","response","","html-keyboard-response","311","443459","0.0-1.0-419.0","0","0","77686","","null","","","null","46","","","1","46","training","adjacent","ED","5","4","M.jpg","N.jpg","NaN","0","0","",""
"","too_slow_prompt","","html-keyboard-response","312","444467","0.0-1.0-421.0-0.0","1","0","77686","","null","","","null","","","","","","","","","","","","","","","","",""
"","time_out","","html-keyboard-response","313","446478","0.0-1.0-422.0-0.0","0","0","77686","","null","","","null","46","","","","","","","","","","","","","","","",""
"","ITI","","html-keyboard-response","314","447489","0.0-1.0-423.0","0","0","77686","","null","","","null","46","","","","","","","","","","","","","","","NaN",""
"","S1","","html-keyboard-response","315","447749","0.0-1.0-425.0","0","0","77686","","null","","","null","47","","","","","","","","","","","","","","","",""
"","ISI","","html-keyboard-response","316","449758","0.0-1.0-426.0","0","0","77686","","null","","","null","47","NaN","","","","","","","","","","","","","","",""
"","S2","","html-keyboard-response","317","450018","0.0-1.0-427.0","0","0","77686","","null","","","null","47","","NaN","","","","","","","","","","","","","",""
"","response","","html-keyboard-response","318","450198","0.0-1.0-428.0","0","0","77686","","168","","","68","47","","","1","47","training","adjacent","GF","7","6","P.jpg","R.jpg","1","0","0","",""
"","feedback","","html-keyboard-response","319","451208","0.0-1.0-429.0-0.0","0","0","77686","","null","","","null","47","","","","","","","","","","","","","","","",""
"","time_out","","html-keyboard-response","320","453220","0.0-1.0-431.0-0.0","0","0","77686","","null","","","null","47","","","","","","","","","","","","","","","",""
"","ITI","","html-keyboard-response","321","454228","0.0-1.0-432.0","0","0","77686","","null","","","null","47","","","","","","","","","","","","","","","NaN",""
"","block_over","","html-keyboard-response","322","492441","0.0-1.0-433.0-0.0","0","0","77686","","38200","","","32","47","","","","","","","","","","","","","","","",""
"","S1","","html-keyboard-response","323","492703","0.0-1.0-434.0","0","0","77686","","null","","","null","48","","","","","","","","","","","","","","","",""
"","ISI","","html-keyboard-response","324","494712","0.0-1.0-435.0","0","0","77686","","null","","","null","48","NaN","","","","","","","","","","","","","","",""
"","S2","","html-keyboard-response","325","494974","0.0-1.0-436.0","0","0","77686","","null","","","null","48","","NaN","","","","","","","","","","","","","",""
"","response","","html-keyboard-response","326","495364","0.0-1.0-437.0","0","0","77686","","379","","","75","48","","","2","48","training","adjacent","BA","2","1","O.jpg","L.jpg","0","0","1","",""
"","feedback","","html-keyboard-response","327","496375","0.0-1.0-438.0-0.0","0","0","77686","","null","","","null","48","","","","","","","","","","","","","","","",""
"","ITI","","html-keyboard-response","328","497384","0.0-1.0-441.0","0","0","77686","","null","","","null","48","","","","","","","","","","","","","","","NaN",""
"","S1","","html-keyboard-response","329","497646","0.0-1.0-443.0","0","0","77686","","null","","","null","49","","","","","","","","","","","","","","","",""
"","ISI","","html-keyboard-response","330","499654","0.0-1.0-444.0","0","0","77686","","null","","","null","49","NaN","","","","","","","","","","","","","","",""
"","S2","","html-keyboard-response","331","499917","0.0-1.0-445.0","0","0","77686","","null","","","null","49","","NaN","","","","","","","","","","","","","",""
"","response","","html-keyboard-response","332","500421","0.0-1.0-446.0","0","0","77686","","497","","","68","49","","","2","49","training","adjacent","FG","6","7","R.jpg","P.jpg","1","1","1","",""
"","feedback","","html-keyboard-response","333","501435","0.0-1.0-447.0-0.0","0","0","77686","","null","","","null","49","","","","","","","","","","","","","","","",""
"","ITI","","html-keyboard-response","334","502443","0.0-1.0-450.0","0","0","77686","","null","","","null","49","","","","","","","","","","","","","","","NaN",""
"","S1","","html-keyboard-response","335","502705","0.0-1.0-452.0","0","0","77686","","null","","","null","50","","","","","","","","","","","","","","","",""
"","ISI","","html-keyboard-response","336","504715","0.0-1.0-453.0","0","0","77686","","null","","","null","50","NaN","","","","","","","","","","","","","","",""
"","S2","","html-keyboard-response","337","504977","0.0-1.0-454.0","0","0","77686","","null","","","null","50","","NaN","","","","","","","","","","","","","",""
"","response","","html-keyboard-response","338","505361","0.0-1.0-455.0","0","0","77686","","376","","","75","50","","","2","50","training","adjacent","BA","2","1","O.jpg","L.jpg","0","0","1","",""
"","feedback","","html-keyboard-response","339","506371","0.0-1.0-456.0-0.0","0","0","77686","","null","","","null","50","","","","","","","","","","","","","","","",""
"","ITI","","html-keyboard-response","340","507382","0.0-1.0-459.0","0","0","77686","","null","","","null","50","","","","","","","","","","","","","","","NaN",""
"","S1","","html-keyboard-response","341","507644","0.0-1.0-461.0","0","0","77686","","null","","","null","51","","","","","","","","","","","","","","","",""
"","ISI","","html-keyboard-response","342","509653","0.0-1.0-462.0","0","0","77686","","null","","","null","51","NaN","","","","","","","","","","","","","","",""
"","S2","","html-keyboard-response","343","509913","0.0-1.0-463.0","0","0","77686","","null","","","null","51","","NaN","","","","","","","","","","","","","",""
"","response","","html-keyboard-response","344","510263","0.0-1.0-464.0","0","0","77686","","339","","","75","51","","","2","51","training","adjacent","CB","3","2","Q.jpg","O.jpg","0","0","1","",""
"","feedback","","html-keyboard-response","345","511273","0.0-1.0-465.0-0.0","0","0","77686","","null","","","null","51","","","","","","","","","","","","","","","",""
"","ITI","","html-keyboard-response","346","512285","0.0-1.0-468.0","0","0","77686","","null","","","null","51","","","","","","","","","","","","","","","NaN",""
"","S1","","html-keyboard-response","347","512546","0.0-1.0-470.0","0","0","77686","","null","","","null","52","","","","","","","","","","","","","","","",""
"","ISI","","html-keyboard-response","348","514555","0.0-1.0-471.0","0","0","77686","","null","","","null","52","NaN","","","","","","","","","","","","","","",""
"","S2","","html-keyboard-response","349","514813","0.0-1.0-472.0","0","0","77686","","null","","","null","52","","NaN","","","","","","","","","","","","","",""
"","response","","html-keyboard-response","350","515163","0.0-1.0-473.0","0","0","77686","","343","","","68","52","","","2","52","training","adjacent","FE","6","5","R.jpg","M.jpg","1","0","0","",""
"","feedback","","html-keyboard-response","351","516172","0.0-1.0-474.0-0.0","0","0","77686","","null","","","null","52","","","","","","","","","","","","","","","",""
"","time_out","","html-keyboard-response","352","518181","0.0-1.0-476.0-0.0","0","0","77686","","null","","","null","52","","","","","","","","","","","","","","","",""
"","ITI","","html-keyboard-response","353","519189","0.0-1.0-477.0","0","0","77686","","null","","","null","52","","","","","","","","","","","","","","","NaN",""
"","S1","","html-keyboard-response","354","519448","0.0-1.0-479.0","0","0","77686","","null","","","null","53","","","","","","","","","","","","","","","",""
"","ISI","","html-keyboard-response","355","521455","0.0-1.0-480.0","0","0","77686","","null","","","null","53","NaN","","","","","","","","","","","","","","",""
"","S2","","html-keyboard-response","356","521715","0.0-1.0-481.0","0","0","77686","","null","","","null","53","","NaN","","","","","","","","","","","","","",""
"","response","","html-keyboard-response","357","521901","0.0-1.0-482.0","0","0","77686","","175","","","68","53","","","2","53","training","adjacent","AB","1","2","L.jpg","O.jpg","1","1","1","",""
"","feedback","","html-keyboard-response","358","522910","0.0-1.0-483.0-0.0","0","0","77686","","null","","","null","53","","","","","","","","","","","","","","","",""
"","ITI","","html-keyboard-response","359","523918","0.0-1.0-486.0","0","0","77686","","null","","","null","53","","","","","","","","","","","","","","","NaN",""
"","S1","","html-keyboard-response","360","524178","0.0-1.0-488.0","0","0","77686","","null","","","null","54","","","","","","","","","","","","","","","",""
"","ISI","","html-keyboard-response","361","526188","0.0-1.0-489.0","0","0","77686","","null","","","null","54","NaN","","","","","","","","","","","","","","",""
"","S2","","html-keyboard-response","362","526449","0.0-1.0-490.0","0","0","77686","","null","","","null","54","","NaN","","","","","","","","","","","","","",""
"","response","","html-keyboard-response","363","526859","0.0-1.0-491.0","0","0","77686","","402","","","68","54","","","2","54","training","adjacent","ED","5","4","M.jpg","N.jpg","1","0","0","",""
"","feedback","","html-keyboard-response","364","527868","0.0-1.0-492.0-0.0","0","0","77686","","null","","","null","54","","","","","","","","","","","","","","","",""
"","time_out","","html-keyboard-response","365","529879","0.0-1.0-494.0-0.0","0","0","77686","","null","","","null","54","","","","","","","","","","","","","","","",""
"","ITI","","html-keyboard-response","366","530891","0.0-1.0-495.0","0","0","77686","","null","","","null","54","","","","","","","","","","","","","","","NaN",""
"","S1","","html-keyboard-response","367","531151","0.0-1.0-497.0","0","0","77686","","null","","","null","55","","","","","","","","","","","","","","","",""
"","ISI","","html-keyboard-response","368","533160","0.0-1.0-498.0","0","0","77686","","null","","","null","55","NaN","","","","","","","","","","","","","","",""
"","S2","","html-keyboard-response","369","533420","0.0-1.0-499.0","0","0","77686","","null","","","null","55","","NaN","","","","","","","","","","","","","",""
"","response","","html-keyboard-response","370","533880","0.0-1.0-500.0","0","0","77686","","449","","","75","55","","","2","55","training","adjacent","AB","1","2","L.jpg","O.jpg","0","1","0","",""
"","feedback","","html-keyboard-response","371","534891","0.0-1.0-501.0-0.0","0","0","77686","","null","","","null","55","","","","","","","","","","","","","","","",""
"","time_out","","html-keyboard-response","372","536904","0.0-1.0-503.0-0.0","0","0","77686","","null","","","null","55","","","","","","","","","","","","","","","",""
"","ITI","","html-keyboard-response","373","537914","0.0-1.0-504.0","0","0","77686","","null","","","null","55","","","","","","","","","","","","","","","NaN",""
"","S1","","html-keyboard-response","374","538173","0.0-1.0-506.0","0","0","77686","","null","","","null","56","","","","","","","","","","","","","","","",""
"","ISI","","html-keyboard-response","375","540183","0.0-1.0-507.0","0","0","77686","","null","","","null","56","NaN","","","","","","","","","","","","","","",""
"","S2","","html-keyboard-response","376","540443","0.0-1.0-508.0","0","0","77686","","null","","","null","56","","NaN","","","","","","","","","","","","","",""
"","response","","html-keyboard-response","377","540955","0.0-1.0-509.0","0","0","77686","","503","","","75","56","","","2","56","training","adjacent","FE","6","5","R.jpg","M.jpg","0","0","1","",""
"","feedback","","html-keyboard-response","378","541966","0.0-1.0-510.0-0.0","0","0","77686","","null","","","null","56","","","","","","","","","","","","","","","",""
"","ITI","","html-keyboard-response","379","542978","0.0-1.0-513.0","0","0","77686","","null","","","null","56","","","","","","","","","","","","","","","NaN",""
"","S1","","html-keyboard-response","380","543238","0.0-1.0-515.0","0","0","77686","","null","","","null","57","","","","","","","","","","","","","","","",""
"","ISI","","html-keyboard-response","381","545245","0.0-1.0-516.0","0","0","77686","","null","","","null","57","NaN","","","","","","","","","","","","","","",""
"","S2","","html-keyboard-response","382","545506","0.0-1.0-517.0","0","0","77686","","null","","","null","57","","NaN","","","","","","","","","","","","","",""
"","response","","html-keyboard-response","383","546864","0.0-1.0-518.0","0","0","77686","","1348","","","68","57","","","2","57","training","adjacent","EF","5","6","M.jpg","R.jpg","1","1","1","",""
"","feedback","","html-keyboard-response","384","547873","0.0-1.0-519.0-0.0","0","0","77686","","null","","","null","57","","","","","","","","","","","","","","","",""
"","ITI","","html-keyboard-response","385","548884","0.0-1.0-522.0","0","0","77686","","null","","","null","57","","","","","","","","","","","","","","","NaN",""
"","S1","","html-keyboard-response","386","549147","0.0-1.0-524.0","0","0","77686","","null","","","null","58","","","","","","","","","","","","","","","",""
"","ISI","","html-keyboard-response","387","551155","0.0-1.0-525.0","0","0","77686","","null","","","null","58","NaN","","","","","","","","","","","","","","",""
"","S2","","html-keyboard-response","388","551413","0.0-1.0-526.0","0","0","77686","","null","","","null","58","","NaN","","","","","","","","","","","","","",""
"","response","","html-keyboard-response","389","551870","0.0-1.0-527.0","0","0","77686","","447","","","75","58","","","2","58","training","adjacent","BC","2","3","O.jpg","Q.jpg","0","1","0","",""
"","feedback","","html-keyboard-response","390","552882","0.0-1.0-528.0-0.0","0","0","77686","","null","","","null","58","","","","","","","","","","","","","","","",""
"","time_out","","html-keyboard-response","391","554893","0.0-1.0-530.0-0.0","0","0","77686","","null","","","null","58","","","","","","","","","","","","","","","",""
"","ITI","","html-keyboard-response","392","555905","0.0-1.0-531.0","0","0","77686","","null","","","null","58","","","","","","","","","","","","","","","NaN",""
"","S1","","html-keyboard-response","393","556164","0.0-1.0-533.0","0","0","77686","","null","","","null","59","","","","","","","","","","","","","","","",""
"","ISI","","html-keyboard-response","394","558174","0.0-1.0-534.0","0","0","77686","","null","","","null","59","NaN","","","","","","","","","","","","","","",""
"","S2","","html-keyboard-response","395","558440","0.0-1.0-535.0","0","0","77686","","null","","","null","59","","NaN","","","","","","","","","","","","","",""
"","response","","html-keyboard-response","396","558942","0.0-1.0-536.0","0","0","77686","","491","","","68","59","","","2","59","training","adjacent","GF","7","6","P.jpg","R.jpg","1","0","0","",""
"","feedback","","html-keyboard-response","397","559951","0.0-1.0-537.0-0.0","0","0","77686","","null","","","null","59","","","","","","","","","","","","","","","",""
"","time_out","","html-keyboard-response","398","561963","0.0-1.0-539.0-0.0","0","0","77686","","null","","","null","59","","","","","","","","","","","","","","","",""
"","ITI","","html-keyboard-response","399","562973","0.0-1.0-540.0","0","0","77686","","null","","","null","59","","","","","","","","","","","","","","","NaN",""
"","S1","","html-keyboard-response","400","563234","0.0-1.0-542.0","0","0","77686","","null","","","null","60","","","","","","","","","","","","","","","",""
"","ISI","","html-keyboard-response","401","565242","0.0-1.0-543.0","0","0","77686","","null","","","null","60","NaN","","","","","","","","","","","","","","",""
"","S2","","html-keyboard-response","402","565503","0.0-1.0-544.0","0","0","77686","","null","","","null","60","","NaN","","","","","","","","","","","","","",""
"","response","","html-keyboard-response","403","566013","0.0-1.0-545.0","0","0","77686","","500","","","68","60","","","2","60","training","adjacent","AB","1","2","L.jpg","O.jpg","1","1","1","",""
"","feedback","","html-keyboard-response","404","567023","0.0-1.0-546.0-0.0","0","0","77686","","null","","","null","60","","","","","","","","","","","","","","","",""
"","ITI","","html-keyboard-response","405","568037","0.0-1.0-549.0","0","0","77686","","null","","","null","60","","","","","","","","","","","","","","","NaN",""
"","S1","","html-keyboard-response","406","568297","0.0-1.0-551.0","0","0","77686","","null","","","null","61","","","","","","","","","","","","","","","",""
"","ISI","","html-keyboard-response","407","570308","0.0-1.0-552.0","0","0","77686","","null","","","null","61","NaN","","","","","","","","","","","","","","",""
"","S2","","html-keyboard-response","408","570569","0.0-1.0-553.0","0","0","77686","","null","","","null","61","","NaN","","","","","","","","","","","","","",""
"","response","","html-keyboard-response","409","571047","0.0-1.0-554.0","0","0","77686","","466","","","75","61","","","2","61","training","adjacent","CD","3","4","Q.jpg","N.jpg","0","1","0","",""
"","feedback","","html-keyboard-response","410","572056","0.0-1.0-555.0-0.0","0","0","77686","","null","","","null","61","","","","","","","","","","","","","","","",""
"","time_out","","html-keyboard-response","411","574065","0.0-1.0-557.0-0.0","0","0","77686","","null","","","null","61","","","","","","","","","","","","","","","",""
"","ITI","","html-keyboard-response","412","575077","0.0-1.0-558.0","0","0","77686","","null","","","null","61","","","","","","","","","","","","","","","NaN",""
"","S1","","html-keyboard-response","413","575335","0.0-1.0-560.0","0","0","77686","","null","","","null","62","","","","","","","","","","","","","","","",""
"","ISI","","html-keyboard-response","414","577343","0.0-1.0-561.0","0","0","77686","","1288","","","75","62","k","","","","","","","","","","","","","","",""
"","S2","","html-keyboard-response","415","577603","0.0-1.0-562.0","0","0","77686","","null","","","null","62","","NaN","","","","","","","","","","","","","",""
"","response","","html-keyboard-response","416","578392","0.0-1.0-563.0","0","0","77686","","782","","","75","62","","","2","62","training","adjacent","FG","6","7","R.jpg","P.jpg","0","1","0","",""
"","feedback","","html-keyboard-response","417","579402","0.0-1.0-564.0-0.0","0","0","77686","","null","","","null","62","","","","","","","","","","","","","","","",""
"","time_out","","html-keyboard-response","418","581412","0.0-1.0-566.0-0.0","0","0","77686","","null","","","null","62","","","","","","","","","","","","","","","",""
"","ITI","","html-keyboard-response","419","582424","0.0-1.0-567.0","0","0","77686","","null","","","null","62","","","","","","","","","","","","","","","NaN",""
"","S1","","html-keyboard-response","420","582682","0.0-1.0-569.0","0","0","77686","","null","","","null","63","","","","","","","","","","","","","","","",""
"","ISI","","html-keyboard-response","421","584691","0.0-1.0-570.0","0","0","77686","","null","","","null","63","NaN","","","","","","","","","","","","","","",""
"","S2","","html-keyboard-response","422","584952","0.0-1.0-571.0","0","0","77686","","null","","","null","63","","NaN","","","","","","","","","","","","","",""
"","response","","html-keyboard-response","423","585438","0.0-1.0-572.0","0","0","77686","","477","","","75","63","","","2","63","training","adjacent","CD","3","4","Q.jpg","N.jpg","0","1","0","",""
"","feedback","","html-keyboard-response","424","586447","0.0-1.0-573.0-0.0","0","0","77686","","null","","","null","63","","","","","","","","","","","","","","","",""
"","time_out","","html-keyboard-response","425","588456","0.0-1.0-575.0-0.0","0","0","77686","","null","","","null","63","","","","","","","","","","","","","","","",""
"","ITI","","html-keyboard-response","426","589465","0.0-1.0-576.0","0","0","77686","","null","","","null","63","","","","","","","","","","","","","","","NaN",""
"","S1","","html-keyboard-response","427","589726","0.0-1.0-578.0","0","0","77686","","null","","","null","64","","","","","","","","","","","","","","","",""
"","ISI","","html-keyboard-response","428","591740","0.0-1.0-579.0","0","0","77686","","null","","","null","64","NaN","","","","","","","","","","","","","","",""
"","S2","","html-keyboard-response","429","592000","0.0-1.0-580.0","0","0","77686","","null","","","null","64","","NaN","","","","","","","","","","","","","",""
"","response","","html-keyboard-response","430","592378","0.0-1.0-581.0","0","0","77686","","368","","","68","64","","","2","64","training","adjacent","GF","7","6","P.jpg","R.jpg","1","0","0","",""
"","feedback","","html-keyboard-response","431","593389","0.0-1.0-582.0-0.0","0","0","77686","","null","","","null","64","","","","","","","","","","","","","","","",""
"","time_out","","html-keyboard-response","432","595398","0.0-1.0-584.0-0.0","0","0","77686","","null","","","null","64","","","","","","","","","","","","","","","",""
"","ITI","","html-keyboard-response","433","596410","0.0-1.0-585.0","0","0","77686","","null","","","null","64","","","","","","","","","","","","","","","NaN",""
"","S1","","html-keyboard-response","434","596669","0.0-1.0-587.0","0","0","77686","","null","","","null","65","","","","","","","","","","","","","","","",""
"","ISI","","html-keyboard-response","435","598679","0.0-1.0-588.0","0","0","77686","","null","","","null","65","NaN","","","","","","","","","","","","","","",""
"","S2","","html-keyboard-response","436","598939","0.0-1.0-589.0","0","0","77686","","null","","","null","65","","NaN","","","","","","","","","","","","","",""
"","response","","html-keyboard-response","437","599489","0.0-1.0-590.0","0","0","77686","","540","","","68","65","","","2","65","training","adjacent","EF","5","6","M.jpg","R.jpg","1","1","1","",""
"","feedback","","html-keyboard-response","438","600499","0.0-1.0-591.0-0.0","0","0","77686","","null","","","null","65","","","","","","","","","","","","","","","",""
"","ITI","","html-keyboard-response","439","601510","0.0-1.0-594.0","0","0","77686","","null","","","null","65","","","","","","","","","","","","","","","NaN",""
"","S1","","html-keyboard-response","440","601772","0.0-1.0-596.0","0","0","77686","","null","","","null","66","","","","","","","","","","","","","","","",""
"","ISI","","html-keyboard-response","441","603782","0.0-1.0-597.0","0","0","77686","","null","","","null","66","NaN","","","","","","","","","","","","","","",""
"","S2","","html-keyboard-response","442","604044","0.0-1.0-598.0","0","0","77686","","null","","","null","66","","NaN","","","","","","","","","","","","","",""
"","response","","html-keyboard-response","443","604698","0.0-1.0-599.0","0","0","77686","","644","","","75","66","","","2","66","training","adjacent","EF","5","6","M.jpg","R.jpg","0","1","0","",""
"","feedback","","html-keyboard-response","444","605709","0.0-1.0-600.0-0.0","0","0","77686","","null","","","null","66","","","","","","","","","","","","","","","",""
"","time_out","","html-keyboard-response","445","607719","0.0-1.0-602.0-0.0","0","0","77686","","null","","","null","66","","","","","","","","","","","","","","","",""
"","ITI","","html-keyboard-response","446","608728","0.0-1.0-603.0","0","0","77686","","null","","","null","66","","","","","","","","","","","","","","","NaN",""
"","S1","","html-keyboard-response","447","608989","0.0-1.0-605.0","0","0","77686","","null","","","null","67","","","","","","","","","","","","","","","",""
"","ISI","","html-keyboard-response","448","611000","0.0-1.0-606.0","0","0","77686","","null","","","null","67","NaN","","","","","","","","","","","","","","",""
"","S2","","html-keyboard-response","449","611259","0.0-1.0-607.0","0","0","77686","","null","","","null","67","","NaN","","","","","","","","","","","","","",""
"","response","","html-keyboard-response","450","611406","0.0-1.0-608.0","0","0","77686","","135","","","68","67","","","2","67","training","adjacent","CD","3","4","Q.jpg","N.jpg","1","1","1","",""
"","feedback","","html-keyboard-response","451","612418","0.0-1.0-609.0-0.0","0","0","77686","","null","","","null","67","","","","","","","","","","","","","","","",""
"","ITI","","html-keyboard-response","452","613433","0.0-1.0-612.0","0","0","77686","","null","","","null","67","","","","","","","","","","","","","","","NaN",""
"","S1","","html-keyboard-response","453","613693","0.0-1.0-614.0","0","0","77686","","null","","","null","68","","","","","","","","","","","","","","","",""
"","ISI","","html-keyboard-response","454","615704","0.0-1.0-615.0","0","0","77686","","null","","","null","68","NaN","","","","","","","","","","","","","","",""
"","S2","","html-keyboard-response","455","615963","0.0-1.0-616.0","0","0","77686","","null","","","null","68","","NaN","","","","","","","","","","","","","",""
"","response","","html-keyboard-response","456","616382","0.0-1.0-617.0","0","0","77686","","411","","","75","68","","","2","68","training","adjacent","DC","4","3","N.jpg","Q.jpg","0","0","1","",""
"","feedback","","html-keyboard-response","457","617396","0.0-1.0-618.0-0.0","0","0","77686","","null","","","null","68","","","","","","","","","","","","","","","",""
"","ITI","","html-keyboard-response","458","618408","0.0-1.0-621.0","0","0","77686","","null","","","null","68","","","","","","","","","","","","","","","NaN",""
"","S1","","html-keyboard-response","459","618668","0.0-1.0-623.0","0","0","77686","","null","","","null","69","","","","","","","","","","","","","","","",""
"","ISI","","html-keyboard-response","460","620678","0.0-1.0-624.0","0","0","77686","","null","","","null","69","NaN","","","","","","","","","","","","","","",""
"","S2","","html-keyboard-response","461","620941","0.0-1.0-625.0","0","0","77686","","null","","","null","69","","NaN","","","","","","","","","","","","","",""
"","response","","html-keyboard-response","462","621382","0.0-1.0-626.0","0","0","77686","","431","","","68","69","","","2","69","training","adjacent","BC","2","3","O.jpg","Q.jpg","1","1","1","",""
"","feedback","","html-keyboard-response","463","622392","0.0-1.0-627.0-0.0","0","0","77686","","null","","","null","69","","","","","","","","","","","","","","","",""
"","ITI","","html-keyboard-response","464","623403","0.0-1.0-630.0","0","0","77686","","null","","","null","69","","","","","","","","","","","","","","","NaN",""
"","S1","","html-keyboard-response","465","623667","0.0-1.0-632.0","0","0","77686","","null","","","null","70","","","","","","","","","","","","","","","",""
"","ISI","","html-keyboard-response","466","625679","0.0-1.0-633.0","0","0","77686","","null","","","null","70","NaN","","","","","","","","","","","","","","",""
"","S2","","html-keyboard-response","467","625941","0.0-1.0-634.0","0","0","77686","","null","","","null","70","","NaN","","","","","","","","","","","","","",""
"","response","","html-keyboard-response","468","626412","0.0-1.0-635.0","0","0","77686","","461","","","75","70","","","2","70","training","adjacent","BC","2","3","O.jpg","Q.jpg","0","1","0","",""
"","feedback","","html-keyboard-response","469","627422","0.0-1.0-636.0-0.0","0","0","77686","","null","","","null","70","","","","","","","","","","","","","","","",""
"","time_out","","html-keyboard-response","470","629435","0.0-1.0-638.0-0.0","0","0","77686","","null","","","null","70","","","","","","","","","","","","","","","",""
"","ITI","","html-keyboard-response","471","630443","0.0-1.0-639.0","0","0","77686","","null","","","null","70","","","","","","","","","","","","","","","NaN",""
"","S1","","html-keyboard-response","472","630702","0.0-1.0-641.0","0","0","77686","","null","","","null","71","","","","","","","","","","","","","","","",""
"","ISI","","html-keyboard-response","473","632710","0.0-1.0-642.0","0","0","77686","","null","","","null","71","NaN","","","","","","","","","","","","","","",""
"","S2","","html-keyboard-response","474","632969","0.0-1.0-643.0","0","0","77686","","null","","","null","71","","NaN","","","","","","","","","","","","","",""
"","response","","html-keyboard-response","475","633233","0.0-1.0-644.0","0","0","77686","","254","","","75","71","","","2","71","training","adjacent","BA","2","1","O.jpg","L.jpg","0","0","1","",""
"","feedback","","html-keyboard-response","476","634242","0.0-1.0-645.0-0.0","0","0","77686","","null","","","null","71","","","","","","","","","","","","","","","",""
"","ITI","","html-keyboard-response","477","635252","0.0-1.0-648.0","0","0","77686","","null","","","null","71","","","","","","","","","","","","","","","NaN",""
"","S1","","html-keyboard-response","478","635515","0.0-1.0-650.0","0","0","77686","","null","","","null","72","","","","","","","","","","","","","","","",""
"","ISI","","html-keyboard-response","479","637525","0.0-1.0-651.0","0","0","77686","","null","","","null","72","NaN","","","","","","","","","","","","","","",""
"","S2","","html-keyboard-response","480","637787","0.0-1.0-652.0","0","0","77686","","null","","","null","72","","NaN","","","","","","","","","","","","","",""
"","response","","html-keyboard-response","481","638681","0.0-1.0-653.0","0","0","77686","","886","","","68","72","","","2","72","training","adjacent","DE","4","5","N.jpg","M.jpg","1","1","1","",""
"","feedback","","html-keyboard-response","482","639694","0.0-1.0-654.0-0.0","0","0","77686","","null","","","null","72","","","","","","","","","","","","","","","",""
"","ITI","","html-keyboard-response","483","640706","0.0-1.0-657.0","0","0","77686","","null","","","null","72","","","","","","","","","","","","","","","NaN",""
"","S1","","html-keyboard-response","484","640971","0.0-1.0-659.0","0","0","77686","","null","","","null","73","","","","","","","","","","","","","","","",""
"","ISI","","html-keyboard-response","485","642979","0.0-1.0-660.0","0","0","77686","","null","","","null","73","NaN","","","","","","","","","","","","","","",""
"","S2","","html-keyboard-response","486","643238","0.0-1.0-661.0","0","0","77686","","null","","","null","73","","NaN","","","","","","","","","","","","","",""
"","response","","html-keyboard-response","487","643772","0.0-1.0-662.0","0","0","77686","","525","","","75","73","","","2","73","training","adjacent","DC","4","3","N.jpg","Q.jpg","0","0","1","",""
"","feedback","","html-keyboard-response","488","644784","0.0-1.0-663.0-0.0","0","0","77686","","null","","","null","73","","","","","","","","","","","","","","","",""
"","ITI","","html-keyboard-response","489","645795","0.0-1.0-666.0","0","0","77686","","null","","","null","73","","","","","","","","","","","","","","","NaN",""
"","S1","","html-keyboard-response","490","646055","0.0-1.0-668.0","0","0","77686","","null","","","null","74","","","","","","","","","","","","","","","",""
"","ISI","","html-keyboard-response","491","648064","0.0-1.0-669.0","0","0","77686","","null","","","null","74","NaN","","","","","","","","","","","","","","",""
"","S2","","html-keyboard-response","492","648324","0.0-1.0-670.0","0","0","77686","","null","","","null","74","","NaN","","","","","","","","","","","","","",""
"","response","","html-keyboard-response","493","648835","0.0-1.0-671.0","0","0","77686","","498","","","68","74","","","2","74","training","adjacent","GF","7","6","P.jpg","R.jpg","1","0","0","",""
"","feedback","","html-keyboard-response","494","649845","0.0-1.0-672.0-0.0","0","0","77686","","null","","","null","74","","","","","","","","","","","","","","","",""
"","time_out","","html-keyboard-response","495","651856","0.0-1.0-674.0-0.0","0","0","77686","","null","","","null","74","","","","","","","","","","","","","","","",""
"","ITI","","html-keyboard-response","496","652865","0.0-1.0-675.0","0","0","77686","","null","","","null","74","","","","","","","","","","","","","","","NaN",""
"","S1","","html-keyboard-response","497","653127","0.0-1.0-677.0","0","0","77686","","null","","","null","75","","","","","","","","","","","","","","","",""
"","ISI","","html-keyboard-response","498","655137","0.0-1.0-678.0","0","0","77686","","null","","","null","75","NaN","","","","","","","","","","","","","","",""
"","S2","","html-keyboard-response","499","655399","0.0-1.0-679.0","0","0","77686","","null","","","null","75","","NaN","","","","","","","","","","","","","",""
"","response","","html-keyboard-response","500","655775","0.0-1.0-680.0","0","0","77686","","368","","","68","75","","","2","75","training","adjacent","FE","6","5","R.jpg","M.jpg","1","0","0","",""
"","feedback","","html-keyboard-response","501","656785","0.0-1.0-681.0-0.0","0","0","77686","","null","","","null","75","","","","","","","","","","","","","","","",""
"","time_out","","html-keyboard-response","502","658794","0.0-1.0-683.0-0.0","0","0","77686","","null","","","null","75","","","","","","","","","","","","","","","",""
"","ITI","","html-keyboard-response","503","659805","0.0-1.0-684.0","0","0","77686","","null","","","null","75","","","","","","","","","","","","","","","NaN",""
"","S1","","html-keyboard-response","504","660063","0.0-1.0-686.0","0","0","77686","","null","","","null","76","","","","","","","","","","","","","","","",""
"","ISI","","html-keyboard-response","505","662071","0.0-1.0-687.0","0","0","77686","","null","","","null","76","NaN","","","","","","","","","","","","","","",""
"","S2","","html-keyboard-response","506","662334","0.0-1.0-688.0","0","0","77686","","null","","","null","76","","NaN","","","","","","","","","","","","","",""
"","response","","html-keyboard-response","507","662590","0.0-1.0-689.0","0","0","77686","","246","","","75","76","","","2","76","training","adjacent","BA","2","1","O.jpg","L.jpg","0","0","1","",""
"","feedback","","html-keyboard-response","508","663600","0.0-1.0-690.0-0.0","0","0","77686","","null","","","null","76","","","","","","","","","","","","","","","",""
"","ITI","","html-keyboard-response","509","664609","0.0-1.0-693.0","0","0","77686","","null","","","null","76","","","","","","","","","","","","","","","NaN",""
"","S1","","html-keyboard-response","510","664869","0.0-1.0-695.0","0","0","77686","","null","","","null","77","","","","","","","","","","","","","","","",""
"","ISI","","html-keyboard-response","511","666878","0.0-1.0-696.0","0","0","77686","","null","","","null","77","NaN","","","","","","","","","","","","","","",""
"","S2","","html-keyboard-response","512","667137","0.0-1.0-697.0","0","0","77686","","null","","","null","77","","NaN","","","","","","","","","","","","","",""
"","response","","html-keyboard-response","513","667442","0.0-1.0-698.0","0","0","77686","","297","","","75","77","","","2","77","training","adjacent","CB","3","2","Q.jpg","O.jpg","0","0","1","",""
"","feedback","","html-keyboard-response","514","668454","0.0-1.0-699.0-0.0","0","0","77686","","null","","","null","77","","","","","","","","","","","","","","","",""
"","ITI","","html-keyboard-response","515","669463","0.0-1.0-702.0","0","0","77686","","null","","","null","77","","","","","","","","","","","","","","","NaN",""
"","S1","","html-keyboard-response","516","669724","0.0-1.0-704.0","0","0","77686","","null","","","null","78","","","","","","","","","","","","","","","",""
"","ISI","","html-keyboard-response","517","671733","0.0-1.0-705.0","0","0","77686","","null","","","null","78","NaN","","","","","","","","","","","","","","",""
"","S2","","html-keyboard-response","518","671995","0.0-1.0-706.0","0","0","77686","","null","","","null","78","","NaN","","","","","","","","","","","","","",""
"","response","","html-keyboard-response","519","672333","0.0-1.0-707.0","0","0","77686","","328","","","68","78","","","2","78","training","adjacent","CB","3","2","Q.jpg","O.jpg","1","0","0","",""
"","feedback","","html-keyboard-response","520","673345","0.0-1.0-708.0-0.0","0","0","77686","","null","","","null","78","","","","","","","","","","","","","","","",""
"","time_out","","html-keyboard-response","521","675353","0.0-1.0-710.0-0.0","0","0","77686","","null","","","null","78","","","","","","","","","","","","","","","",""
"","ITI","","html-keyboard-response","522","676362","0.0-1.0-711.0","0","0","77686","","null","","","null","78","","","","","","","","","","","","","","","NaN",""
"","S1","","html-keyboard-response","523","676622","0.0-1.0-713.0","0","0","77686","","null","","","null","79","","","","","","","","","","","","","","","",""
"","ISI","","html-keyboard-response","524","678637","0.0-1.0-714.0","0","0","77686","","null","","","null","79","NaN","","","","","","","","","","","","","","",""
"","S2","","html-keyboard-response","525","678898","0.0-1.0-715.0","0","0","77686","","null","","","null","79","","NaN","","","","","","","","","","","","","",""
"","response","","html-keyboard-response","526","678926","0.0-1.0-716.0","0","0","77686","","18","","","75","79","","","2","79","training","adjacent","DC","4","3","N.jpg","Q.jpg","0","0","1","",""
"","feedback","","html-keyboard-response","527","679940","0.0-1.0-717.0-0.0","0","0","77686","","null","","","null","79","","","","","","","","","","","","","","","",""
"","ITI","","html-keyboard-response","528","680949","0.0-1.0-720.0","0","0","77686","","null","","","null","79","","","","","","","","","","","","","","","NaN",""
"","S1","","html-keyboard-response","529","681210","0.0-1.0-722.0","0","0","77686","","null","","","null","80","","","","","","","","","","","","","","","",""
"","ISI","","html-keyboard-response","530","683218","0.0-1.0-723.0","0","0","77686","","null","","","null","80","NaN","","","","","","","","","","","","","","",""
"","S2","","html-keyboard-response","531","683482","0.0-1.0-724.0","0","0","77686","","null","","","null","80","","NaN","","","","","","","","","","","","","",""
"","response","","html-keyboard-response","532","683907","0.0-1.0-725.0","0","0","77686","","418","","","75","80","","","2","80","training","adjacent","AB","1","2","L.jpg","O.jpg","0","1","0","",""
"","feedback","","html-keyboard-response","533","684916","0.0-1.0-726.0-0.0","0","0","77686","","null","","","null","80","","","","","","","","","","","","","","","",""
"","time_out","","html-keyboard-response","534","686930","0.0-1.0-728.0-0.0","0","0","77686","","null","","","null","80","","","","","","","","","","","","","","","",""
"","ITI","","html-keyboard-response","535","687939","0.0-1.0-729.0","0","0","77686","","null","","","null","80","","","","","","","","","","","","","","","NaN",""
"","S1","","html-keyboard-response","536","688200","0.0-1.0-731.0","0","0","77686","","null","","","null","81","","","","","","","","","","","","","","","",""
"","ISI","","html-keyboard-response","537","690208","0.0-1.0-732.0","0","0","77686","","1928","","","68","81","d","","","","","","","","","","","","","","",""
"","S2","","html-keyboard-response","538","690467","0.0-1.0-733.0","0","0","77686","","null","","","null","81","","NaN","","","","","","","","","","","","","",""
"","response","","html-keyboard-response","539","690616","0.0-1.0-734.0","0","0","77686","","140","","","68","81","","","2","81","training","adjacent","DE","4","5","N.jpg","M.jpg","1","1","1","",""
"","feedback","","html-keyboard-response","540","691624","0.0-1.0-735.0-0.0","0","0","77686","","null","","","null","81","","","","","","","","","","","","","","","",""
"","ITI","","html-keyboard-response","541","692635","0.0-1.0-738.0","0","0","77686","","null","","","null","81","","","","","","","","","","","","","","","NaN",""
"","S1","","html-keyboard-response","542","692895","0.0-1.0-740.0","0","0","77686","","null","","","null","82","","","","","","","","","","","","","","","",""
"","ISI","","html-keyboard-response","543","694906","0.0-1.0-741.0","0","0","77686","","null","","","null","82","NaN","","","","","","","","","","","","","","",""
"","S2","","html-keyboard-response","544","695165","0.0-1.0-742.0","0","0","77686","","null","","","null","82","","NaN","","","","","","","","","","","","","",""
"","response","","html-keyboard-response","545","695590","0.0-1.0-743.0","0","0","77686","","416","","","68","82","","","2","82","training","adjacent","BC","2","3","O.jpg","Q.jpg","1","1","1","",""
"","feedback","","html-keyboard-response","546","696601","0.0-1.0-744.0-0.0","0","0","77686","","null","","","null","82","","","","","","","","","","","","","","","",""
"","ITI","","html-keyboard-response","547","697612","0.0-1.0-747.0","0","0","77686","","null","","","null","82","","","","","","","","","","","","","","","NaN",""
"","S1","","html-keyboard-response","548","697870","0.0-1.0-749.0","0","0","77686","","null","","","null","83","","","","","","","","","","","","","","","",""
"","ISI","","html-keyboard-response","549","699880","0.0-1.0-750.0","0","0","77686","","null","","","null","83","NaN","","","","","","","","","","","","","","",""
"","S2","","html-keyboard-response","550","700138","0.0-1.0-751.0","0","0","77686","","null","","","null","83","","NaN","","","","","","","","","","","","","",""
"","response","","html-keyboard-response","551","700418","0.0-1.0-752.0","0","0","77686","","270","","","75","83","","","2","83","training","adjacent","FE","6","5","R.jpg","M.jpg","0","0","1","",""
"","feedback","","html-keyboard-response","552","701428","0.0-1.0-753.0-0.0","0","0","77686","","null","","","null","83","","","","","","","","","","","","","","","",""
"","ITI","","html-keyboard-response","553","702439","0.0-1.0-756.0","0","0","77686","","null","","","null","83","","","","","","","","","","","","","","","NaN",""
"","S1","","html-keyboard-response","554","702697","0.0-1.0-758.0","0","0","77686","","null","","","null","84","","","","","","","","","","","","","","","",""
"","ISI","","html-keyboard-response","555","704710","0.0-1.0-759.0","0","0","77686","","null","","","null","84","NaN","","","","","","","","","","","","","","",""
"","S2","","html-keyboard-response","556","704972","0.0-1.0-760.0","0","0","77686","","null","","","null","84","","NaN","","","","","","","","","","","","","",""
"","response","","html-keyboard-response","557","705545","0.0-1.0-761.0","0","0","77686","","565","","","68","84","","","2","84","training","adjacent","ED","5","4","M.jpg","N.jpg","1","0","0","",""
"","feedback","","html-keyboard-response","558","706553","0.0-1.0-762.0-0.0","0","0","77686","","null","","","null","84","","","","","","","","","","","","","","","",""
"","time_out","","html-keyboard-response","559","708562","0.0-1.0-764.0-0.0","0","0","77686","","null","","","null","84","","","","","","","","","","","","","","","",""
"","ITI","","html-keyboard-response","560","709570","0.0-1.0-765.0","0","0","77686","","null","","","null","84","","","","","","","","","","","","","","","NaN",""
"","S1","","html-keyboard-response","561","709829","0.0-1.0-767.0","0","0","77686","","null","","","null","85","","","","","","","","","","","","","","","",""
"","ISI","","html-keyboard-response","562","711837","0.0-1.0-768.0","0","0","77686","","null","","","null","85","NaN","","","","","","","","","","","","","","",""
"","S2","","html-keyboard-response","563","712098","0.0-1.0-769.0","0","0","77686","","null","","","null","85","","NaN","","","","","","","","","","","","","",""
"","response","","html-keyboard-response","564","712473","0.0-1.0-770.0","0","0","77686","","365","","","75","85","","","2","85","training","adjacent","DE","4","5","N.jpg","M.jpg","0","1","0","",""
"","feedback","","html-keyboard-response","565","713482","0.0-1.0-771.0-0.0","0","0","77686","","null","","","null","85","","","","","","","","","","","","","","","",""
"","time_out","","html-keyboard-response","566","715493","0.0-1.0-773.0-0.0","0","0","77686","","null","","","null","85","","","","","","","","","","","","","","","",""
"","ITI","","html-keyboard-response","567","716501","0.0-1.0-774.0","0","0","77686","","null","","","null","85","","","","","","","","","","","","","","","NaN",""
"","S1","","html-keyboard-response","568","716759","0.0-1.0-776.0","0","0","77686","","null","","","null","86","","","","","","","","","","","","","","","",""
"","ISI","","html-keyboard-response","569","718768","0.0-1.0-777.0","0","0","77686","","null","","","null","86","NaN","","","","","","","","","","","","","","",""
"","S2","","html-keyboard-response","570","719029","0.0-1.0-778.0","0","0","77686","","null","","","null","86","","NaN","","","","","","","","","","","","","",""
"","response","","html-keyboard-response","571","719633","0.0-1.0-779.0","0","0","77686","","593","","","68","86","","","2","86","training","adjacent","CB","3","2","Q.jpg","O.jpg","1","0","0","",""
"","feedback","","html-keyboard-response","572","720642","0.0-1.0-780.0-0.0","0","0","77686","","null","","","null","86","","","","","","","","","","","","","","","",""
"","time_out","","html-keyboard-response","573","722651","0.0-1.0-782.0-0.0","0","0","77686","","null","","","null","86","","","","","","","","","","","","","","","",""
"","ITI","","html-keyboard-response","574","723662","0.0-1.0-783.0","0","0","77686","","null","","","null","86","","","","","","","","","","","","","","","NaN",""
"","S1","","html-keyboard-response","575","723921","0.0-1.0-785.0","0","0","77686","","null","","","null","87","","","","","","","","","","","","","","","",""
"","ISI","","html-keyboard-response","576","725931","0.0-1.0-786.0","0","0","77686","","null","","","null","87","NaN","","","","","","","","","","","","","","",""
"","S2","","html-keyboard-response","577","726190","0.0-1.0-787.0","0","0","77686","","211","","","75","87","","k","","","","","","","","","","","","","",""
"","response","","html-keyboard-response","578","726739","0.0-1.0-788.0","0","0","77686","","541","","","75","87","","","2","87","training","adjacent","DC","4","3","N.jpg","Q.jpg","0","0","1","",""
"","feedback","","html-keyboard-response","579","727748","0.0-1.0-789.0-0.0","0","0","77686","","null","","","null","87","","","","","","","","","","","","","","","",""
"","ITI","","html-keyboard-response","580","728756","0.0-1.0-792.0","0","0","77686","","null","","","null","87","","","","","","","","","","","","","","","NaN",""
"","S1","","html-keyboard-response","581","729019","0.0-1.0-794.0","0","0","77686","","null","","","null","88","","","","","","","","","","","","","","","",""
"","ISI","","html-keyboard-response","582","731031","0.0-1.0-795.0","0","0","77686","","null","","","null","88","NaN","","","","","","","","","","","","","","",""
"","S2","","html-keyboard-response","583","731293","0.0-1.0-796.0","0","0","77686","","null","","","null","88","","NaN","","","","","","","","","","","","","",""
"","response","","html-keyboard-response","584","732201","0.0-1.0-797.0","0","0","77686","","899","","","75","88","","","2","88","training","adjacent","FG","6","7","R.jpg","P.jpg","0","1","0","",""
