"success","ttype","start_time","trial_type","trial_index","time_elapsed","internal_node_id","warning","missed_checkup","PID","view_history","rt","responses","repeat_instructions","key_press","index","keypress_isi","keypress_S2","block","trial_num","phase","group_type","pair_type","S1_stim","S2_stim","S1_img","S2_img","S1_chosen","S1_higher","accuracy","keypress_iti","total_bonus_tally"
"true","full_screen","d03032023hr2048","fullscreen","0","74911","0.0-0.0","0","0","93316","","","","","","","","","","","","","","","","","","","","","",""
"","instructions","","instructions","1","216073","0.0-1.0-0.0-0.0","0","0","93316","[{""page_index"":0,""viewing_time"":15456},{""page_index"":1,""viewing_time"":69116},{""page_index"":2,""viewing_time"":53169},{""page_index"":3,""viewing_time"":3406}]","141149","","","","","","","","","","","","","","","","","","","",""
"","comprehension_check","","survey-multi-choice","2","344569","0.0-1.0-0.0-1.0","0","0","93316","","128476","{""Q0"":""True"",""Q1"":""D"",""Q2"":""Once the second image appears and while the screen 'MAKE A CHOICE' is shown"",""Q3"":""Green mark"",""Q4"":""either D or K""}","0","","","","","","","","","","","","","","","","","",""
"","start_exp","","html-keyboard-response","3","348389","0.0-1.0-1.0","0","0","93316","","3810","","","32","","","","","","","","","","","","","","","","",""
"","S1","","html-keyboard-response","4","348647","0.0-1.0-2.0","0","0","93316","","null","","","null","0","","","","","","","","","","","","","","","",""
"","ISI","","html-keyboard-response","5","349152","0.0-1.0-3.0","0","0","93316","","null","","","null","0","NaN","","","","","","","","","","","","","","",""
"","S2","","html-keyboard-response","6","349432","0.0-1.0-4.0","0","0","93316","","null","","","null","0","","NaN","","","","","","","","","","","","","",""
"","response","","html-keyboard-response","7","349874","0.0-1.0-5.0-0.0","0","0","93316","","431","","","75","0","","","1","0","training","adjacent","EF","5","6","R.jpg","P.jpg","0","1","0","",""
"","feedback","","html-keyboard-response","8","350881","0.0-1.0-6.0-0.0","0","0","93316","","null","","","null","0","","","","","","","","","","","","","","","",""
"","time_out","","html-keyboard-response","9","352886","0.0-1.0-8.0-0.0","0","0","93316","","null","","","null","0","","","","","","","","","","","","","","","",""
"","ITI","","html-keyboard-response","10","353890","0.0-1.0-9.0","0","0","93316","","null","","","null","0","","","","","","","","","","","","","","","NaN",""
"","S1","","html-keyboard-response","11","354145","0.0-1.0-11.0","0","0","93316","","null","","","null","1","","","","","","","","","","","","","","","",""
"","ISI","","html-keyboard-response","12","354650","0.0-1.0-12.0","0","0","93316","","null","","","null","1","NaN","","","","","","","","","","","","","","",""
"","S2","","html-keyboard-response","13","354905","0.0-1.0-13.0","0","0","93316","","null","","","null","1","","NaN","","","","","","","","","","","","","",""
"","response","","html-keyboard-response","14","355454","0.0-1.0-14.0-0.0","0","0","93316","","544","","","75","1","","","1","1","training","adjacent","CD","3","4","M.jpg","L.jpg","0","1","0","",""
"","feedback","","html-keyboard-response","15","356461","0.0-1.0-15.0-0.0","0","0","93316","","null","","","null","1","","","","","","","","","","","","","","","",""
"","time_out","","html-keyboard-response","16","358466","0.0-1.0-17.0-0.0","0","0","93316","","null","","","null","1","","","","","","","","","","","","","","","",""
"","ITI","","html-keyboard-response","17","359470","0.0-1.0-18.0","0","0","93316","","null","","","null","1","","","","","","","","","","","","","","","NaN",""
"","S1","","html-keyboard-response","18","359723","0.0-1.0-20.0","0","0","93316","","null","","","null","2","","","","","","","","","","","","","","","",""
"","ISI","","html-keyboard-response","19","360227","0.0-1.0-21.0","0","0","93316","","null","","","null","2","NaN","","","","","","","","","","","","","","",""
"","S2","","html-keyboard-response","20","360482","0.0-1.0-22.0","0","0","93316","","null","","","null","2","","NaN","","","","","","","","","","","","","",""
"","response","","html-keyboard-response","21","360830","0.0-1.0-23.0-0.0","0","0","93316","","346","","","68","2","","","1","2","training","adjacent","DC","4","3","L.jpg","M.jpg","1","0","0","",""
"","feedback","","html-keyboard-response","22","361840","0.0-1.0-24.0-0.0","0","0","93316","","null","","","null","2","","","","","","","","","","","","","","","",""
"","time_out","","html-keyboard-response","23","363845","0.0-1.0-26.0-0.0","0","0","93316","","null","","","null","2","","","","","","","","","","","","","","","",""
"","ITI","","html-keyboard-response","24","364851","0.0-1.0-27.0","0","0","93316","","null","","","null","2","","","","","","","","","","","","","","","NaN",""
"","S1","","html-keyboard-response","25","365107","0.0-1.0-29.0","0","0","93316","","null","","","null","3","","","","","","","","","","","","","","","",""
"","ISI","","html-keyboard-response","26","365612","0.0-1.0-30.0","0","0","93316","","null","","","null","3","NaN","","","","","","","","","","","","","","",""
"","S2","","html-keyboard-response","27","365880","0.0-1.0-31.0","0","0","93316","","null","","","null","3","","NaN","","","","","","","","","","","","","",""
"","response","","html-keyboard-response","28","366286","0.0-1.0-32.0-0.0","0","0","93316","","399","","","68","3","","","1","3","training","adjacent","CB","3","2","M.jpg","O.jpg","1","0","0","",""
"","feedback","","html-keyboard-response","29","367290","0.0-1.0-33.0-0.0","0","0","93316","","null","","","null","3","","","","","","","","","","","","","","","",""
"","time_out","","html-keyboard-response","30","369295","0.0-1.0-35.0-0.0","0","0","93316","","null","","","null","3","","","","","","","","","","","","","","","",""
"","ITI","","html-keyboard-response","31","370300","0.0-1.0-36.0","0","0","93316","","null","","","null","3","","","","","","","","","","","","","","","NaN",""
"","S1","","html-keyboard-response","32","370554","0.0-1.0-38.0","0","0","93316","","null","","","null","4","","","","","","","","","","","","","","","",""
"","ISI","","html-keyboard-response","33","371105","0.0-1.0-39.0","0","0","93316","","null","","","null","4","NaN","","","","","","","","","","","","","","",""
"","S2","","html-keyboard-response","34","371360","0.0-1.0-40.0","0","0","93316","","null","","","null","4","","NaN","","","","","","","","","","","","","",""
"","response","","html-keyboard-response","35","371782","0.0-1.0-41.0-0.0","0","0","93316","","419","","","68","4","","","1","4","training","adjacent","FE","6","5","P.jpg","R.jpg","1","0","0","",""
"","feedback","","html-keyboard-response","36","372786","0.0-1.0-42.0-0.0","0","0","93316","","null","","","null","4","","","","","","","","","","","","","","","",""
"","time_out","","html-keyboard-response","37","374791","0.0-1.0-44.0-0.0","0","0","93316","","null","","","null","4","","","","","","","","","","","","","","","",""
"","ITI","","html-keyboard-response","38","375796","0.0-1.0-45.0","0","0","93316","","null","","","null","4","","","","","","","","","","","","","","","NaN",""
"","S1","","html-keyboard-response","39","376052","0.0-1.0-47.0","0","0","93316","","null","","","null","5","","","","","","","","","","","","","","","",""
"","ISI","","html-keyboard-response","40","376557","0.0-1.0-48.0","0","0","93316","","null","","","null","5","NaN","","","","","","","","","","","","","","",""
"","S2","","html-keyboard-response","41","376812","0.0-1.0-49.0","0","0","93316","","null","","","null","5","","NaN","","","","","","","","","","","","","",""
"","response","","html-keyboard-response","42","377062","0.0-1.0-50.0-0.0","0","0","93316","","247","","","75","5","","","1","5","training","adjacent","BC","2","3","O.jpg","M.jpg","0","1","0","",""
"","feedback","","html-keyboard-response","43","378067","0.0-1.0-51.0-0.0","0","0","93316","","null","","","null","5","","","","","","","","","","","","","","","",""
"","time_out","","html-keyboard-response","44","380071","0.0-1.0-53.0-0.0","0","0","93316","","null","","","null","5","","","","","","","","","","","","","","","",""
"","ITI","","html-keyboard-response","45","381076","0.0-1.0-54.0","0","0","93316","","null","","","null","5","","","","","","","","","","","","","","","NaN",""
"","S1","","html-keyboard-response","46","381381","0.0-1.0-56.0","0","0","93316","","null","","","null","6","","","","","","","","","","","","","","","",""
"","ISI","","html-keyboard-response","47","381887","0.0-1.0-57.0","0","0","93316","","null","","","null","6","NaN","","","","","","","","","","","","","","",""
"","S2","","html-keyboard-response","48","382143","0.0-1.0-58.0","0","0","93316","","null","","","null","6","","NaN","","","","","","","","","","","","","",""
"","response","","html-keyboard-response","49","382270","0.0-1.0-59.0-0.0","0","0","93316","","124","","","68","6","","","1","6","training","adjacent","DE","4","5","L.jpg","R.jpg","1","1","1","",""
"","feedback","","html-keyboard-response","50","383274","0.0-1.0-60.0-0.0","0","0","93316","","null","","","null","6","","","","","","","","","","","","","","","",""
"","ITI","","html-keyboard-response","51","384278","0.0-1.0-63.0","0","0","93316","","null","","","null","6","","","","","","","","","","","","","","","NaN",""
"","S1","","html-keyboard-response","52","384533","0.0-1.0-65.0","0","0","93316","","null","","","null","7","","","","","","","","","","","","","","","",""
"","ISI","","html-keyboard-response","53","385035","0.0-1.0-66.0","0","0","93316","","null","","","null","7","NaN","","","","","","","","","","","","","","",""
"","S2","","html-keyboard-response","54","385288","0.0-1.0-67.0","0","0","93316","","null","","","null","7","","NaN","","","","","","","","","","","","","",""
"","response","","html-keyboard-response","55","385598","0.0-1.0-68.0-0.0","0","0","93316","","306","","","68","7","","","1","7","training","adjacent","GF","7","6","N.jpg","P.jpg","1","0","0","",""
"","feedback","","html-keyboard-response","56","386601","0.0-1.0-69.0-0.0","0","0","93316","","null","","","null","7","","","","","","","","","","","","","","","",""
"","time_out","","html-keyboard-response","57","388607","0.0-1.0-71.0-0.0","0","0","93316","","null","","","null","7","","","","","","","","","","","","","","","",""
"","ITI","","html-keyboard-response","58","389619","0.0-1.0-72.0","0","0","93316","","null","","","null","7","","","","","","","","","","","","","","","NaN",""
"","S1","","html-keyboard-response","59","389873","0.0-1.0-74.0","0","0","93316","","null","","","null","8","","","","","","","","","","","","","","","",""
"","ISI","","html-keyboard-response","60","390376","0.0-1.0-75.0","0","0","93316","","null","","","null","8","NaN","","","","","","","","","","","","","","",""
"","S2","","html-keyboard-response","61","390639","0.0-1.0-76.0","0","0","93316","","null","","","null","8","","NaN","","","","","","","","","","","","","",""
"","response","","html-keyboard-response","62","390887","0.0-1.0-77.0-0.0","0","0","93316","","243","","","75","8","","","1","8","training","adjacent","BA","2","1","O.jpg","Q.jpg","0","0","1","",""
"","feedback","","html-keyboard-response","63","391893","0.0-1.0-78.0-0.0","0","0","93316","","null","","","null","8","","","","","","","","","","","","","","","",""
"","ITI","","html-keyboard-response","64","392898","0.0-1.0-81.0","0","0","93316","","null","","","null","8","","","","","","","","","","","","","","","NaN",""
"","S1","","html-keyboard-response","65","393151","0.0-1.0-83.0","0","0","93316","","null","","","null","9","","","","","","","","","","","","","","","",""
"","ISI","","html-keyboard-response","66","393654","0.0-1.0-84.0","0","0","93316","","null","","","null","9","NaN","","","","","","","","","","","","","","",""
"","S2","","html-keyboard-response","67","393911","0.0-1.0-85.0","0","0","93316","","null","","","null","9","","NaN","","","","","","","","","","","","","",""
"","response","","html-keyboard-response","68","394029","0.0-1.0-86.0-0.0","0","0","93316","","115","","","75","9","","","1","9","training","adjacent","GF","7","6","N.jpg","P.jpg","0","0","1","",""
"","feedback","","html-keyboard-response","69","395035","0.0-1.0-87.0-0.0","0","0","93316","","null","","","null","9","","","","","","","","","","","","","","","",""
"","ITI","","html-keyboard-response","70","396040","0.0-1.0-90.0","0","0","93316","","null","","","null","9","","","","","","","","","","","","","","","NaN",""
"","S1","","html-keyboard-response","71","396295","0.0-1.0-92.0","0","0","93316","","null","","","null","10","","","","","","","","","","","","","","","",""
"","ISI","","html-keyboard-response","72","396810","0.0-1.0-93.0","0","0","93316","","null","","","null","10","NaN","","","","","","","","","","","","","","",""
"","S2","","html-keyboard-response","73","397065","0.0-1.0-94.0","0","0","93316","","null","","","null","10","","NaN","","","","","","","","","","","","","",""
"","response","","html-keyboard-response","74","397445","0.0-1.0-95.0-0.0","0","0","93316","","374","","","75","10","","","1","10","training","adjacent","GF","7","6","N.jpg","P.jpg","0","0","1","",""
"","feedback","","html-keyboard-response","75","398450","0.0-1.0-96.0-0.0","0","0","93316","","null","","","null","10","","","","","","","","","","","","","","","",""
"","ITI","","html-keyboard-response","76","399454","0.0-1.0-99.0","0","0","93316","","null","","","null","10","","","","","","","","","","","","","","","NaN",""
"","S1","","html-keyboard-response","77","399711","0.0-1.0-101.0","0","0","93316","","null","","","null","11","","","","","","","","","","","","","","","",""
"","ISI","","html-keyboard-response","78","400215","0.0-1.0-102.0","0","0","93316","","null","","","null","11","NaN","","","","","","","","","","","","","","",""
"","S2","","html-keyboard-response","79","400469","0.0-1.0-103.0","0","0","93316","","null","","","null","11","","NaN","","","","","","","","","","","","","",""
"","response","","html-keyboard-response","80","400741","0.0-1.0-104.0-0.0","0","0","93316","","269","","","75","11","","","1","11","training","adjacent","FG","6","7","P.jpg","N.jpg","0","1","0","",""
"","feedback","","html-keyboard-response","81","401746","0.0-1.0-105.0-0.0","0","0","93316","","null","","","null","11","","","","","","","","","","","","","","","",""
"","time_out","","html-keyboard-response","82","403751","0.0-1.0-107.0-0.0","0","0","93316","","null","","","null","11","","","","","","","","","","","","","","","",""
"","ITI","","html-keyboard-response","83","404758","0.0-1.0-108.0","0","0","93316","","null","","","null","11","","","","","","","","","","","","","","","NaN",""
"","S1","","html-keyboard-response","84","405060","0.0-1.0-110.0","0","0","93316","","null","","","null","12","","","","","","","","","","","","","","","",""
"","ISI","","html-keyboard-response","85","405566","0.0-1.0-111.0","0","0","93316","","null","","","null","12","NaN","","","","","","","","","","","","","","",""
"","S2","","html-keyboard-response","86","405821","0.0-1.0-112.0","0","0","93316","","null","","","null","12","","NaN","","","","","","","","","","","","","",""
"","response","","html-keyboard-response","87","406157","0.0-1.0-113.0-0.0","0","0","93316","","332","","","68","12","","","1","12","training","adjacent","ED","5","4","R.jpg","L.jpg","1","0","0","",""
"","feedback","","html-keyboard-response","88","407162","0.0-1.0-114.0-0.0","0","0","93316","","null","","","null","12","","","","","","","","","","","","","","","",""
"","time_out","","html-keyboard-response","89","409165","0.0-1.0-116.0-0.0","0","0","93316","","null","","","null","12","","","","","","","","","","","","","","","",""
"","ITI","","html-keyboard-response","90","410181","0.0-1.0-117.0","0","0","93316","","null","","","null","12","","","","","","","","","","","","","","","NaN",""
"","S1","","html-keyboard-response","91","410436","0.0-1.0-119.0","0","0","93316","","null","","","null","13","","","","","","","","","","","","","","","",""
"","ISI","","html-keyboard-response","92","410940","0.0-1.0-120.0","0","0","93316","","null","","","null","13","NaN","","","","","","","","","","","","","","",""
"","S2","","html-keyboard-response","93","411204","0.0-1.0-121.0","0","0","93316","","null","","","null","13","","NaN","","","","","","","","","","","","","",""
"","response","","html-keyboard-response","94","411525","0.0-1.0-122.0-0.0","0","0","93316","","318","","","75","13","","","1","13","training","adjacent","FG","6","7","P.jpg","N.jpg","0","1","0","",""
"","feedback","","html-keyboard-response","95","412533","0.0-1.0-123.0-0.0","0","0","93316","","null","","","null","13","","","","","","","","","","","","","","","",""
"","time_out","","html-keyboard-response","96","414539","0.0-1.0-125.0-0.0","0","0","93316","","null","","","null","13","","","","","","","","","","","","","","","",""
"","ITI","","html-keyboard-response","97","415543","0.0-1.0-126.0","0","0","93316","","null","","","null","13","","","","","","","","","","","","","","","NaN",""
"","S1","","html-keyboard-response","98","415798","0.0-1.0-128.0","0","0","93316","","null","","","null","14","","","","","","","","","","","","","","","",""
"","ISI","","html-keyboard-response","99","416344","0.0-1.0-129.0","0","0","93316","","null","","","null","14","NaN","","","","","","","","","","","","","","",""
"","S2","","html-keyboard-response","100","416598","0.0-1.0-130.0","0","0","93316","","null","","","null","14","","NaN","","","","","","","","","","","","","",""
"","response","","html-keyboard-response","101","416981","0.0-1.0-131.0-0.0","0","0","93316","","379","","","75","14","","","1","14","training","adjacent","EF","5","6","R.jpg","P.jpg","0","1","0","",""
"","feedback","","html-keyboard-response","102","417986","0.0-1.0-132.0-0.0","0","0","93316","","null","","","null","14","","","","","","","","","","","","","","","",""
"","time_out","","html-keyboard-response","103","419991","0.0-1.0-134.0-0.0","0","0","93316","","null","","","null","14","","","","","","","","","","","","","","","",""
"","ITI","","html-keyboard-response","104","420995","0.0-1.0-135.0","0","0","93316","","null","","","null","14","","","","","","","","","","","","","","","NaN",""
"","S1","","html-keyboard-response","105","421248","0.0-1.0-137.0","0","0","93316","","null","","","null","15","","","","","","","","","","","","","","","",""
"","ISI","","html-keyboard-response","106","421753","0.0-1.0-138.0","0","0","93316","","null","","","null","15","NaN","","","","","","","","","","","","","","",""
"","S2","","html-keyboard-response","107","422009","0.0-1.0-139.0","0","0","93316","","null","","","null","15","","NaN","","","","","","","","","","","","","",""
"","response","","html-keyboard-response","108","422334","0.0-1.0-140.0-0.0","0","0","93316","","321","","","68","15","","","1","15","training","adjacent","BA","2","1","O.jpg","Q.jpg","1","0","0","",""
"","feedback","","html-keyboard-response","109","423341","0.0-1.0-141.0-0.0","0","0","93316","","null","","","null","15","","","","","","","","","","","","","","","",""
"","time_out","","html-keyboard-response","110","425346","0.0-1.0-143.0-0.0","0","0","93316","","null","","","null","15","","","","","","","","","","","","","","","",""
"","ITI","","html-keyboard-response","111","426348","0.0-1.0-144.0","0","0","93316","","null","","","null","15","","","","","","","","","","","","","","","NaN",""
"","S1","","html-keyboard-response","112","426632","0.0-1.0-146.0","0","0","93316","","null","","","null","16","","","","","","","","","","","","","","","",""
"","ISI","","html-keyboard-response","113","427136","0.0-1.0-147.0","0","0","93316","","null","","","null","16","NaN","","","","","","","","","","","","","","",""
"","S2","","html-keyboard-response","114","427390","0.0-1.0-148.0","0","0","93316","","null","","","null","16","","NaN","","","","","","","","","","","","","",""
"","response","","html-keyboard-response","115","427893","0.0-1.0-149.0-0.0","0","0","93316","","498","","","68","16","","","1","16","training","adjacent","BC","2","3","O.jpg","M.jpg","1","1","1","",""
"","feedback","","html-keyboard-response","116","428898","0.0-1.0-150.0-0.0","0","0","93316","","null","","","null","16","","","","","","","","","","","","","","","",""
"","ITI","","html-keyboard-response","117","429902","0.0-1.0-153.0","0","0","93316","","null","","","null","16","","","","","","","","","","","","","","","NaN",""
"","S1","","html-keyboard-response","118","430157","0.0-1.0-155.0","0","0","93316","","null","","","null","17","","","","","","","","","","","","","","","",""
"","ISI","","html-keyboard-response","119","430681","0.0-1.0-156.0","0","0","93316","","null","","","null","17","NaN","","","","","","","","","","","","","","",""
"","S2","","html-keyboard-response","120","430936","0.0-1.0-157.0","0","0","93316","","null","","","null","17","","NaN","","","","","","","","","","","","","",""
"","response","","html-keyboard-response","121","431355","0.0-1.0-158.0-0.0","0","0","93316","","415","","","75","17","","","1","17","training","adjacent","FE","6","5","P.jpg","R.jpg","0","0","1","",""
"","feedback","","html-keyboard-response","122","432361","0.0-1.0-159.0-0.0","0","0","93316","","null","","","null","17","","","","","","","","","","","","","","","",""
"","ITI","","html-keyboard-response","123","433364","0.0-1.0-162.0","0","0","93316","","null","","","null","17","","","","","","","","","","","","","","","NaN",""
"","S1","","html-keyboard-response","124","433617","0.0-1.0-164.0","0","0","93316","","null","","","null","18","","","","","","","","","","","","","","","",""
"","ISI","","html-keyboard-response","125","434121","0.0-1.0-165.0","0","0","93316","","null","","","null","18","NaN","","","","","","","","","","","","","","",""
"","S2","","html-keyboard-response","126","434375","0.0-1.0-166.0","0","0","93316","","null","","","null","18","","NaN","","","","","","","","","","","","","",""
"","response","","html-keyboard-response","127","434796","0.0-1.0-167.0-0.0","0","0","93316","","417","","","75","18","","","1","18","training","adjacent","BC","2","3","O.jpg","M.jpg","0","1","0","",""
"","feedback","","html-keyboard-response","128","435824","0.0-1.0-168.0-0.0","0","0","93316","","null","","","null","18","","","","","","","","","","","","","","","",""
"","time_out","","html-keyboard-response","129","437866","0.0-1.0-170.0-0.0","0","0","93316","","null","","","null","18","","","","","","","","","","","","","","","",""
"","ITI","","html-keyboard-response","130","438893","0.0-1.0-171.0","0","0","93316","","null","","","null","18","","","","","","","","","","","","","","","NaN",""
"","S1","","html-keyboard-response","131","439147","0.0-1.0-173.0","0","0","93316","","null","","","null","19","","","","","","","","","","","","","","","",""
"","ISI","","html-keyboard-response","132","439651","0.0-1.0-174.0","0","0","93316","","null","","","null","19","NaN","","","","","","","","","","","","","","",""
"","S2","","html-keyboard-response","133","439921","0.0-1.0-175.0","0","0","93316","","null","","","null","19","","NaN","","","","","","","","","","","","","",""
"","response","","html-keyboard-response","134","440197","0.0-1.0-176.0-0.0","0","0","93316","","271","","","75","19","","","1","19","training","adjacent","FG","6","7","P.jpg","N.jpg","0","1","0","",""
"","feedback","","html-keyboard-response","135","441202","0.0-1.0-177.0-0.0","0","0","93316","","null","","","null","19","","","","","","","","","","","","","","","",""
"","time_out","","html-keyboard-response","136","443208","0.0-1.0-179.0-0.0","0","0","93316","","null","","","null","19","","","","","","","","","","","","","","","",""
"","ITI","","html-keyboard-response","137","444212","0.0-1.0-180.0","0","0","93316","","null","","","null","19","","","","","","","","","","","","","","","NaN",""
"","S1","","html-keyboard-response","138","444467","0.0-1.0-182.0","0","0","93316","","null","","","null","20","","","","","","","","","","","","","","","",""
"","ISI","","html-keyboard-response","139","444974","0.0-1.0-183.0","0","0","93316","","null","","","null","20","NaN","","","","","","","","","","","","","","",""
"","S2","","html-keyboard-response","140","445227","0.0-1.0-184.0","0","0","93316","","null","","","null","20","","NaN","","","","","","","","","","","","","",""
"","response","","html-keyboard-response","141","445757","0.0-1.0-185.0-0.0","0","0","93316","","525","","","75","20","","","1","20","training","adjacent","CB","3","2","M.jpg","O.jpg","0","0","1","",""
"","feedback","","html-keyboard-response","142","446763","0.0-1.0-186.0-0.0","0","0","93316","","null","","","null","20","","","","","","","","","","","","","","","",""
"","ITI","","html-keyboard-response","143","447769","0.0-1.0-189.0","0","0","93316","","null","","","null","20","","","","","","","","","","","","","","","NaN",""
"","S1","","html-keyboard-response","144","448024","0.0-1.0-191.0","0","0","93316","","null","","","null","21","","","","","","","","","","","","","","","",""
"","ISI","","html-keyboard-response","145","448528","0.0-1.0-192.0","0","0","93316","","null","","","null","21","NaN","","","","","","","","","","","","","","",""
"","S2","","html-keyboard-response","146","448784","0.0-1.0-193.0","0","0","93316","","null","","","null","21","","NaN","","","","","","","","","","","","","",""
"","response","","html-keyboard-response","147","449174","0.0-1.0-194.0-0.0","0","0","93316","","386","","","68","21","","","1","21","training","adjacent","BC","2","3","O.jpg","M.jpg","1","1","1","",""
"","feedback","","html-keyboard-response","148","450214","0.0-1.0-195.0-0.0","0","0","93316","","null","","","null","21","","","","","","","","","","","","","","","",""
"","ITI","","html-keyboard-response","149","451248","0.0-1.0-198.0","0","0","93316","","null","","","null","21","","","","","","","","","","","","","","","NaN",""
"","S1","","html-keyboard-response","150","451504","0.0-1.0-200.0","0","0","93316","","null","","","null","22","","","","","","","","","","","","","","","",""
"","ISI","","html-keyboard-response","151","452010","0.0-1.0-201.0","0","0","93316","","null","","","null","22","NaN","","","","","","","","","","","","","","",""
"","S2","","html-keyboard-response","152","452267","0.0-1.0-202.0","0","0","93316","","null","","","null","22","","NaN","","","","","","","","","","","","","",""
"","response","","html-keyboard-response","153","452390","0.0-1.0-203.0-0.0","0","0","93316","","119","","","75","22","","","1","22","training","adjacent","AB","1","2","Q.jpg","O.jpg","0","1","0","",""
"","feedback","","html-keyboard-response","154","453413","0.0-1.0-204.0-0.0","0","0","93316","","null","","","null","22","","","","","","","","","","","","","","","",""
"","time_out","","html-keyboard-response","155","455418","0.0-1.0-206.0-0.0","0","0","93316","","null","","","null","22","","","","","","","","","","","","","","","",""
"","ITI","","html-keyboard-response","156","456423","0.0-1.0-207.0","0","0","93316","","null","","","null","22","","","","","","","","","","","","","","","NaN",""
"","S1","","html-keyboard-response","157","456677","0.0-1.0-209.0","0","0","93316","","null","","","null","23","","","","","","","","","","","","","","","",""
"","ISI","","html-keyboard-response","158","457182","0.0-1.0-210.0","0","0","93316","","null","","","null","23","NaN","","","","","","","","","","","","","","",""
"","S2","","html-keyboard-response","159","457436","0.0-1.0-211.0","0","0","93316","","null","","","null","23","","NaN","","","","","","","","","","","","","",""
"","response","","html-keyboard-response","160","458203","0.0-1.0-212.0-0.0","0","0","93316","","763","","","68","23","","","1","23","training","adjacent","ED","5","4","R.jpg","L.jpg","1","0","0","",""
"","feedback","","html-keyboard-response","161","459207","0.0-1.0-213.0-0.0","0","0","93316","","null","","","null","23","","","","","","","","","","","","","","","",""
"","time_out","","html-keyboard-response","162","461212","0.0-1.0-215.0-0.0","0","0","93316","","null","","","null","23","","","","","","","","","","","","","","","",""
"","ITI","","html-keyboard-response","163","462218","0.0-1.0-216.0","0","0","93316","","null","","","null","23","","","","","","","","","","","","","","","NaN",""
"","S1","","html-keyboard-response","164","462471","0.0-1.0-218.0","0","0","93316","","null","","","null","24","","","","","","","","","","","","","","","",""
"","ISI","","html-keyboard-response","165","462976","0.0-1.0-219.0","0","0","93316","","null","","","null","24","NaN","","","","","","","","","","","","","","",""
"","S2","","html-keyboard-response","166","463232","0.0-1.0-220.0","0","0","93316","","null","","","null","24","","NaN","","","","","","","","","","","","","",""
"","response","","html-keyboard-response","167","463891","0.0-1.0-221.0-0.0","0","0","93316","","656","","","68","24","","","1","24","training","adjacent","DC","4","3","L.jpg","M.jpg","1","0","0","",""
"","feedback","","html-keyboard-response","168","464897","0.0-1.0-222.0-0.0","0","0","93316","","null","","","null","24","","","","","","","","","","","","","","","",""
"","time_out","","html-keyboard-response","169","466903","0.0-1.0-224.0-0.0","0","0","93316","","null","","","null","24","","","","","","","","","","","","","","","",""
"","ITI","","html-keyboard-response","170","467908","0.0-1.0-225.0","0","0","93316","","null","","","null","24","","","","","","","","","","","","","","","NaN",""
"","S1","","html-keyboard-response","171","468163","0.0-1.0-227.0","0","0","93316","","null","","","null","25","","","","","","","","","","","","","","","",""
"","ISI","","html-keyboard-response","172","468667","0.0-1.0-228.0","0","0","93316","","null","","","null","25","NaN","","","","","","","","","","","","","","",""
"","S2","","html-keyboard-response","173","468921","0.0-1.0-229.0","0","0","93316","","null","","","null","25","","NaN","","","","","","","","","","","","","",""
"","response","","html-keyboard-response","174","469274","0.0-1.0-230.0-0.0","0","0","93316","","350","","","75","25","","","1","25","training","adjacent","CB","3","2","M.jpg","O.jpg","0","0","1","",""
"","feedback","","html-keyboard-response","175","470281","0.0-1.0-231.0-0.0","0","0","93316","","null","","","null","25","","","","","","","","","","","","","","","",""
"","ITI","","html-keyboard-response","176","471288","0.0-1.0-234.0","0","0","93316","","null","","","null","25","","","","","","","","","","","","","","","NaN",""
"","S1","","html-keyboard-response","177","471543","0.0-1.0-236.0","0","0","93316","","null","","","null","26","","","","","","","","","","","","","","","",""
"","ISI","","html-keyboard-response","178","472047","0.0-1.0-237.0","0","0","93316","","null","","","null","26","NaN","","","","","","","","","","","","","","",""
"","S2","","html-keyboard-response","179","472302","0.0-1.0-238.0","0","0","93316","","null","","","null","26","","NaN","","","","","","","","","","","","","",""
"","response","","html-keyboard-response","180","472890","0.0-1.0-239.0-0.0","0","0","93316","","585","","","68","26","","","1","26","training","adjacent","BA","2","1","O.jpg","Q.jpg","1","0","0","",""
"","feedback","","html-keyboard-response","181","473897","0.0-1.0-240.0-0.0","0","0","93316","","null","","","null","26","","","","","","","","","","","","","","","",""
"","time_out","","html-keyboard-response","182","475903","0.0-1.0-242.0-0.0","0","0","93316","","null","","","null","26","","","","","","","","","","","","","","","",""
"","ITI","","html-keyboard-response","183","476950","0.0-1.0-243.0","0","0","93316","","null","","","null","26","","","","","","","","","","","","","","","NaN",""
"","S1","","html-keyboard-response","184","477206","0.0-1.0-245.0","0","0","93316","","null","","","null","27","","","","","","","","","","","","","","","",""
"","ISI","","html-keyboard-response","185","477711","0.0-1.0-246.0","0","0","93316","","null","","","null","27","NaN","","","","","","","","","","","","","","",""
"","S2","","html-keyboard-response","186","477973","0.0-1.0-247.0","0","0","93316","","null","","","null","27","","NaN","","","","","","","","","","","","","",""
"","response","","html-keyboard-response","187","478295","0.0-1.0-248.0-0.0","0","0","93316","","318","","","75","27","","","1","27","training","adjacent","FE","6","5","P.jpg","R.jpg","0","0","1","",""
"","feedback","","html-keyboard-response","188","479299","0.0-1.0-249.0-0.0","0","0","93316","","null","","","null","27","","","","","","","","","","","","","","","",""
"","ITI","","html-keyboard-response","189","480304","0.0-1.0-252.0","0","0","93316","","null","","","null","27","","","","","","","","","","","","","","","NaN",""
"","S1","","html-keyboard-response","190","480559","0.0-1.0-254.0","0","0","93316","","null","","","null","28","","","","","","","","","","","","","","","",""
"","ISI","","html-keyboard-response","191","481063","0.0-1.0-255.0","0","0","93316","","null","","","null","28","NaN","","","","","","","","","","","","","","",""
"","S2","","html-keyboard-response","192","481319","0.0-1.0-256.0","0","0","93316","","null","","","null","28","","NaN","","","","","","","","","","","","","",""
"","response","","html-keyboard-response","193","481633","0.0-1.0-257.0-0.0","0","0","93316","","313","","","75","28","","","1","28","training","adjacent","DE","4","5","L.jpg","R.jpg","0","1","0","",""
"","feedback","","html-keyboard-response","194","482639","0.0-1.0-258.0-0.0","0","0","93316","","null","","","null","28","","","","","","","","","","","","","","","",""
"","time_out","","html-keyboard-response","195","484642","0.0-1.0-260.0-0.0","0","0","93316","","null","","","null","28","","","","","","","","","","","","","","","",""
"","ITI","","html-keyboard-response","196","485647","0.0-1.0-261.0","0","0","93316","","null","","","null","28","","","","","","","","","","","","","","","NaN",""
"","S1","","html-keyboard-response","197","485902","0.0-1.0-263.0","0","0","93316","","null","","","null","29","","","","","","","","","","","","","","","",""
"","ISI","","html-keyboard-response","198","486405","0.0-1.0-264.0","0","0","93316","","null","","","null","29","NaN","","","","","","","","","","","","","","",""
"","S2","","html-keyboard-response","199","486659","0.0-1.0-265.0","0","0","93316","","null","","","null","29","","NaN","","","","","","","","","","","","","",""
"","response","","html-keyboard-response","200","487289","0.0-1.0-266.0-0.0","0","0","93316","","627","","","68","29","","","1","29","training","adjacent","FE","6","5","P.jpg","R.jpg","1","0","0","",""
"","feedback","","html-keyboard-response","201","488293","0.0-1.0-267.0-0.0","0","0","93316","","null","","","null","29","","","","","","","","","","","","","","","",""
"","time_out","","html-keyboard-response","202","490299","0.0-1.0-269.0-0.0","0","0","93316","","null","","","null","29","","","","","","","","","","","","","","","",""
"","ITI","","html-keyboard-response","203","491319","0.0-1.0-270.0","0","0","93316","","null","","","null","29","","","","","","","","","","","","","","","NaN",""
"","S1","","html-keyboard-response","204","491574","0.0-1.0-272.0","0","0","93316","","null","","","null","30","","","","","","","","","","","","","","","",""
"","ISI","","html-keyboard-response","205","492079","0.0-1.0-273.0","0","0","93316","","null","","","null","30","NaN","","","","","","","","","","","","","","",""
"","S2","","html-keyboard-response","206","492349","0.0-1.0-274.0","0","0","93316","","null","","","null","30","","NaN","","","","","","","","","","","","","",""
"","response","","html-keyboard-response","207","492691","0.0-1.0-275.0-0.0","0","0","93316","","337","","","75","30","","","1","30","training","adjacent","AB","1","2","Q.jpg","O.jpg","0","1","0","",""
"","feedback","","html-keyboard-response","208","493697","0.0-1.0-276.0-0.0","0","0","93316","","null","","","null","30","","","","","","","","","","","","","","","",""
"","time_out","","html-keyboard-response","209","495703","0.0-1.0-278.0-0.0","0","0","93316","","null","","","null","30","","","","","","","","","","","","","","","",""
"","ITI","","html-keyboard-response","210","496708","0.0-1.0-279.0","0","0","93316","","null","","","null","30","","","","","","","","","","","","","","","NaN",""
"","S1","","html-keyboard-response","211","496965","0.0-1.0-281.0","0","0","93316","","null","","","null","31","","","","","","","","","","","","","","","",""
"","ISI","","html-keyboard-response","212","497492","0.0-1.0-282.0","0","0","93316","","null","","","null","31","NaN","","","","","","","","","","","","","","",""
"","S2","","html-keyboard-response","213","497746","0.0-1.0-283.0","0","0","93316","","null","","","null","31","","NaN","","","","","","","","","","","","","",""
"","response","","html-keyboard-response","214","497833","0.0-1.0-284.0-0.0","0","0","93316","","84","","","68","31","","","1","31","training","adjacent","CD","3","4","M.jpg","L.jpg","1","1","1","",""
"","feedback","","html-keyboard-response","215","498837","0.0-1.0-285.0-0.0","0","0","93316","","null","","","null","31","","","","","","","","","","","","","","","",""
"","ITI","","html-keyboard-response","216","499842","0.0-1.0-288.0","0","0","93316","","null","","","null","31","","","","","","","","","","","","","","","NaN",""
"","S1","","html-keyboard-response","217","500098","0.0-1.0-290.0","0","0","93316","","null","","","null","32","","","","","","","","","","","","","","","",""
"","ISI","","html-keyboard-response","218","500604","0.0-1.0-291.0","0","0","93316","","null","","","null","32","NaN","","","","","","","","","","","","","","",""
"","S2","","html-keyboard-response","219","500861","0.0-1.0-292.0","0","0","93316","","null","","","null","32","","NaN","","","","","","","","","","","","","",""
"","response","","html-keyboard-response","220","501387","0.0-1.0-293.0-0.0","0","0","93316","","521","","","68","32","","","1","32","training","adjacent","ED","5","4","R.jpg","L.jpg","1","0","0","",""
"","feedback","","html-keyboard-response","221","502392","0.0-1.0-294.0-0.0","0","0","93316","","null","","","null","32","","","","","","","","","","","","","","","",""
"","time_out","","html-keyboard-response","222","504398","0.0-1.0-296.0-0.0","0","0","93316","","null","","","null","32","","","","","","","","","","","","","","","",""
"","ITI","","html-keyboard-response","223","505404","0.0-1.0-297.0","0","0","93316","","null","","","null","32","","","","","","","","","","","","","","","NaN",""
"","S1","","html-keyboard-response","224","505659","0.0-1.0-299.0","0","0","93316","","null","","","null","33","","","","","","","","","","","","","","","",""
"","ISI","","html-keyboard-response","225","506165","0.0-1.0-300.0","0","0","93316","","null","","","null","33","NaN","","","","","","","","","","","","","","",""
"","S2","","html-keyboard-response","226","506422","0.0-1.0-301.0","0","0","93316","","null","","","null","33","","NaN","","","","","","","","","","","","","",""
"","response","","html-keyboard-response","227","506483","0.0-1.0-302.0-0.0","0","0","93316","","55","","","75","33","","","1","33","training","adjacent","CB","3","2","M.jpg","O.jpg","0","0","1","",""
"","feedback","","html-keyboard-response","228","507492","0.0-1.0-303.0-0.0","0","0","93316","","null","","","null","33","","","","","","","","","","","","","","","",""
"","ITI","","html-keyboard-response","229","508516","0.0-1.0-306.0","0","0","93316","","null","","","null","33","","","","","","","","","","","","","","","NaN",""
"","S1","","html-keyboard-response","230","508773","0.0-1.0-308.0","0","0","93316","","null","","","null","34","","","","","","","","","","","","","","","",""
"","ISI","","html-keyboard-response","231","509280","0.0-1.0-309.0","0","0","93316","","null","","","null","34","NaN","","","","","","","","","","","","","","",""
"","S2","","html-keyboard-response","232","509536","0.0-1.0-310.0","0","0","93316","","null","","","null","34","","NaN","","","","","","","","","","","","","",""
"","response","","html-keyboard-response","233","509684","0.0-1.0-311.0-0.0","0","0","93316","","142","","","68","34","","","1","34","training","adjacent","EF","5","6","R.jpg","P.jpg","1","1","1","",""
"","feedback","","html-keyboard-response","234","510690","0.0-1.0-312.0-0.0","0","0","93316","","null","","","null","34","","","","","","","","","","","","","","","",""
"","ITI","","html-keyboard-response","235","511698","0.0-1.0-315.0","0","0","93316","","null","","","null","34","","","","","","","","","","","","","","","NaN",""
"","S1","","html-keyboard-response","236","511953","0.0-1.0-317.0","0","0","93316","","null","","","null","35","","","","","","","","","","","","","","","",""
"","ISI","","html-keyboard-response","237","512457","0.0-1.0-318.0","0","0","93316","","null","","","null","35","NaN","","","","","","","","","","","","","","",""
"","S2","","html-keyboard-response","238","512711","0.0-1.0-319.0","0","0","93316","","null","","","null","35","","NaN","","","","","","","","","","","","","",""
"","response","","html-keyboard-response","239","512873","0.0-1.0-320.0-0.0","0","0","93316","","158","","","75","35","","","1","35","training","adjacent","DC","4","3","L.jpg","M.jpg","0","0","1","",""
"","feedback","","html-keyboard-response","240","513878","0.0-1.0-321.0-0.0","0","0","93316","","null","","","null","35","","","","","","","","","","","","","","","",""
"","ITI","","html-keyboard-response","241","514883","0.0-1.0-324.0","0","0","93316","","null","","","null","35","","","","","","","","","","","","","","","NaN",""
"","S1","","html-keyboard-response","242","515140","0.0-1.0-326.0","0","0","93316","","null","","","null","36","","","","","","","","","","","","","","","",""
"","ISI","","html-keyboard-response","243","515647","0.0-1.0-327.0","0","0","93316","","null","","","null","36","NaN","","","","","","","","","","","","","","",""
"","S2","","html-keyboard-response","244","515903","0.0-1.0-328.0","0","0","93316","","null","","","null","36","","NaN","","","","","","","","","","","","","",""
"","response","","html-keyboard-response","245","516074","0.0-1.0-329.0-0.0","0","0","93316","","168","","","68","36","","","1","36","training","adjacent","DC","4","3","L.jpg","M.jpg","1","0","0","",""
"","feedback","","html-keyboard-response","246","517079","0.0-1.0-330.0-0.0","0","0","93316","","null","","","null","36","","","","","","","","","","","","","","","",""
"","time_out","","html-keyboard-response","247","519120","0.0-1.0-332.0-0.0","0","0","93316","","null","","","null","36","","","","","","","","","","","","","","","",""
"","ITI","","html-keyboard-response","248","520148","0.0-1.0-333.0","0","0","93316","","null","","","null","36","","","","","","","","","","","","","","","NaN",""
"","S1","","html-keyboard-response","249","520403","0.0-1.0-335.0","0","0","93316","","null","","","null","37","","","","","","","","","","","","","","","",""
"","ISI","","html-keyboard-response","250","520907","0.0-1.0-336.0","0","0","93316","","null","","","null","37","NaN","","","","","","","","","","","","","","",""
"","S2","","html-keyboard-response","251","521097","0.0-1.0-337.0","0","0","93316","","185","","","75","37","","k","1","37","training","adjacent","DE","4","5","L.jpg","R.jpg","0","1","0","",""
"","feedback","","html-keyboard-response","252","522103","0.0-1.0-339.0-0.0","0","0","93316","","null","","","null","37","","","","","","","","","","","","","","","",""
"","time_out","","html-keyboard-response","253","524109","0.0-1.0-341.0-0.0","0","0","93316","","null","","","null","37","","","","","","","","","","","","","","","",""
"","ITI","","html-keyboard-response","254","525115","0.0-1.0-342.0","0","0","93316","","null","","","null","37","","","","","","","","","","","","","","","NaN",""
"","S1","","html-keyboard-response","255","525372","0.0-1.0-344.0","0","0","93316","","null","","","null","38","","","","","","","","","","","","","","","",""
"","ISI","","html-keyboard-response","256","525877","0.0-1.0-345.0","0","0","93316","","null","","","null","38","NaN","","","","","","","","","","","","","","",""
"","S2","","html-keyboard-response","257","526134","0.0-1.0-346.0","0","0","93316","","null","","","null","38","","NaN","","","","","","","","","","","","","",""
"","response","","html-keyboard-response","258","526178","0.0-1.0-347.0-0.0","0","0","93316","","39","","","68","38","","","1","38","training","adjacent","DE","4","5","L.jpg","R.jpg","1","1","1","",""
"","feedback","","html-keyboard-response","259","527184","0.0-1.0-348.0-0.0","0","0","93316","","null","","","null","38","","","","","","","","","","","","","","","",""
"","ITI","","html-keyboard-response","260","528189","0.0-1.0-351.0","0","0","93316","","null","","","null","38","","","","","","","","","","","","","","","NaN",""
"","S1","","html-keyboard-response","261","528444","0.0-1.0-353.0","0","0","93316","","null","","","null","39","","","","","","","","","","","","","","","",""
"","ISI","","html-keyboard-response","262","528947","0.0-1.0-354.0","0","0","93316","","null","","","null","39","NaN","","","","","","","","","","","","","","",""
"","S2","","html-keyboard-response","263","529192","0.0-1.0-355.0","0","0","93316","","240","","","75","39","","k","1","39","training","adjacent","CD","3","4","M.jpg","L.jpg","0","1","0","",""
"","feedback","","html-keyboard-response","264","530198","0.0-1.0-357.0-0.0","0","0","93316","","null","","","null","39","","","","","","","","","","","","","","","",""
"","time_out","","html-keyboard-response","265","532203","0.0-1.0-359.0-0.0","0","0","93316","","null","","","null","39","","","","","","","","","","","","","","","",""
"","ITI","","html-keyboard-response","266","533209","0.0-1.0-360.0","0","0","93316","","null","","","null","39","","","","","","","","","","","","","","","NaN",""
"","S1","","html-keyboard-response","267","533463","0.0-1.0-362.0","0","0","93316","","null","","","null","40","","","","","","","","","","","","","","","",""
"","ISI","","html-keyboard-response","268","533968","0.0-1.0-363.0","0","0","93316","","null","","","null","40","NaN","","","","","","","","","","","","","","",""
"","S2","","html-keyboard-response","269","534136","0.0-1.0-364.0","0","0","93316","","164","","","68","40","","d","1","40","training","adjacent","BA","2","1","O.jpg","Q.jpg","1","0","0","",""
"","feedback","","html-keyboard-response","270","535143","0.0-1.0-366.0-0.0","0","0","93316","","null","","","null","40","","","","","","","","","","","","","","","",""
"","time_out","","html-keyboard-response","271","537149","0.0-1.0-368.0-0.0","0","0","93316","","null","","","null","40","","","","","","","","","","","","","","","",""
"","ITI","","html-keyboard-response","272","538154","0.0-1.0-369.0","0","0","93316","","null","","","null","40","","","","","","","","","","","","","","","NaN",""
"","S1","","html-keyboard-response","273","538409","0.0-1.0-371.0","0","0","93316","","null","","","null","41","","","","","","","","","","","","","","","",""
"","ISI","","html-keyboard-response","274","538914","0.0-1.0-372.0","0","0","93316","","null","","","null","41","NaN","","","","","","","","","","","","","","",""
"","S2","","html-keyboard-response","275","538984","0.0-1.0-373.0","0","0","93316","","66","","","75","41","","k","1","41","training","adjacent","AB","1","2","Q.jpg","O.jpg","0","1","0","",""
"","feedback","","html-keyboard-response","276","539990","0.0-1.0-375.0-0.0","0","0","93316","","null","","","null","41","","","","","","","","","","","","","","","",""
"","time_out","","html-keyboard-response","277","541996","0.0-1.0-377.0-0.0","0","0","93316","","null","","","null","41","","","","","","","","","","","","","","","",""
"","ITI","","html-keyboard-response","278","543002","0.0-1.0-378.0","0","0","93316","","null","","","null","41","","","","","","","","","","","","","","","NaN",""
"","S1","","html-keyboard-response","279","543258","0.0-1.0-380.0","0","0","93316","","null","","","null","42","","","","","","","","","","","","","","","",""
"","ISI","","html-keyboard-response","280","543799","0.0-1.0-381.0","0","0","93316","","null","","","null","42","NaN","","","","","","","","","","","","","","",""
"","S2","","html-keyboard-response","281","544056","0.0-1.0-382.0","0","0","93316","","null","","","null","42","","NaN","","","","","","","","","","","","","",""
"","response","","html-keyboard-response","282","544099","0.0-1.0-383.0-0.0","0","0","93316","","38","","","68","42","","","1","42","training","adjacent","GF","7","6","N.jpg","P.jpg","1","0","0","",""
"","feedback","","html-keyboard-response","283","545104","0.0-1.0-384.0-0.0","0","0","93316","","null","","","null","42","","","","","","","","","","","","","","","",""
"","time_out","","html-keyboard-response","284","547111","0.0-1.0-386.0-0.0","0","0","93316","","null","","","null","42","","","","","","","","","","","","","","","",""
"","ITI","","html-keyboard-response","285","548154","0.0-1.0-387.0","0","0","93316","","null","","","null","42","","","","","","","","","","","","","","","NaN",""
"","S1","","html-keyboard-response","286","548410","0.0-1.0-389.0","0","0","93316","","null","","","null","43","","","","","","","","","","","","","","","",""
"","ISI","","html-keyboard-response","287","548950","0.0-1.0-390.0","0","0","93316","","null","","","null","43","NaN","","","","","","","","","","","","","","",""
"","S2","","html-keyboard-response","288","549206","0.0-1.0-391.0","0","0","93316","","null","","","null","43","","NaN","","","","","","","","","","","","","",""
"","response","","html-keyboard-response","289","549243","0.0-1.0-392.0-0.0","0","0","93316","","30","","","75","43","","","1","43","training","adjacent","CD","3","4","M.jpg","L.jpg","0","1","0","",""
"","feedback","","html-keyboard-response","290","550250","0.0-1.0-393.0-0.0","0","0","93316","","null","","","null","43","","","","","","","","","","","","","","","",""
"","time_out","","html-keyboard-response","291","552255","0.0-1.0-395.0-0.0","0","0","93316","","null","","","null","43","","","","","","","","","","","","","","","",""
"","ITI","","html-keyboard-response","292","553278","0.0-1.0-396.0","0","0","93316","","null","","","null","43","","","","","","","","","","","","","","","NaN",""
"","S1","","html-keyboard-response","293","553532","0.0-1.0-398.0","0","0","93316","","null","","","null","44","","","","","","","","","","","","","","","",""
"","ISI","","html-keyboard-response","294","554074","0.0-1.0-399.0","0","0","93316","","null","","","null","44","NaN","","","","","","","","","","","","","","",""
"","S2","","html-keyboard-response","295","554330","0.0-1.0-400.0","0","0","93316","","null","","","null","44","","NaN","","","","","","","","","","","","","",""
"","response","","html-keyboard-response","296","554448","0.0-1.0-401.0-0.0","0","0","93316","","113","","","75","44","","","1","44","training","adjacent","FG","6","7","P.jpg","N.jpg","0","1","0","",""
"","feedback","","html-keyboard-response","297","555455","0.0-1.0-402.0-0.0","0","0","93316","","null","","","null","44","","","","","","","","","","","","","","","",""
"","time_out","","html-keyboard-response","298","557460","0.0-1.0-404.0-0.0","0","0","93316","","null","","","null","44","","","","","","","","","","","","","","","",""
"","ITI","","html-keyboard-response","299","558465","0.0-1.0-405.0","0","0","93316","","null","","","null","44","","","","","","","","","","","","","","","NaN",""
"","S1","","html-keyboard-response","300","558720","0.0-1.0-407.0","0","0","93316","","null","","","null","45","","","","","","","","","","","","","","","",""
"","ISI","","html-keyboard-response","301","559223","0.0-1.0-408.0","0","0","93316","","null","","","null","45","NaN","","","","","","","","","","","","","","",""
"","S2","","html-keyboard-response","302","559478","0.0-1.0-409.0","0","0","93316","","null","","","null","45","","NaN","","","","","","","","","","","","","",""
"","response","","html-keyboard-response","303","559689","0.0-1.0-410.0-0.0","0","0","93316","","205","","","68","45","","","1","45","training","adjacent","EF","5","6","R.jpg","P.jpg","1","1","1","",""
"","feedback","","html-keyboard-response","304","560696","0.0-1.0-411.0-0.0","0","0","93316","","null","","","null","45","","","","","","","","","","","","","","","",""
"","ITI","","html-keyboard-response","305","561701","0.0-1.0-414.0","0","0","93316","","null","","","null","45","","","","","","","","","","","","","","","NaN",""
"","S1","","html-keyboard-response","306","561956","0.0-1.0-416.0","0","0","93316","","null","","","null","46","","","","","","","","","","","","","","","",""
"","ISI","","html-keyboard-response","307","562461","0.0-1.0-417.0","0","0","93316","","null","","","null","46","NaN","","","","","","","","","","","","","","",""
"","S2","","html-keyboard-response","308","562673","0.0-1.0-418.0","0","0","93316","","207","","","75","46","","k","1","46","training","adjacent","AB","1","2","Q.jpg","O.jpg","0","1","0","",""
"","feedback","","html-keyboard-response","309","563680","0.0-1.0-420.0-0.0","0","0","93316","","null","","","null","46","","","","","","","","","","","","","","","",""
"","time_out","","html-keyboard-response","310","565685","0.0-1.0-422.0-0.0","0","0","93316","","null","","","null","46","","","","","","","","","","","","","","","",""
"","ITI","","html-keyboard-response","311","566690","0.0-1.0-423.0","0","0","93316","","null","","","null","46","","","","","","","","","","","","","","","NaN",""
"","S1","","html-keyboard-response","312","566946","0.0-1.0-425.0","0","0","93316","","null","","","null","47","","","","","","","","","","","","","","","",""
"","ISI","","html-keyboard-response","313","567449","0.0-1.0-426.0","0","0","93316","","null","","","null","47","NaN","","","","","","","","","","","","","","",""
"","S2","","html-keyboard-response","314","567703","0.0-1.0-427.0","0","0","93316","","null","","","null","47","","NaN","","","","","","","","","","","","","",""
"","response","","html-keyboard-response","315","567711","0.0-1.0-428.0-0.0","0","0","93316","","4","","","68","47","","","1","47","training","adjacent","ED","5","4","R.jpg","L.jpg","1","0","0","",""
"","feedback","","html-keyboard-response","316","568718","0.0-1.0-429.0-0.0","0","0","93316","","null","","","null","47","","","","","","","","","","","","","","","",""
"","time_out","","html-keyboard-response","317","570766","0.0-1.0-431.0-0.0","0","0","93316","","null","","","null","47","","","","","","","","","","","","","","","",""
"","ITI","","html-keyboard-response","318","571801","0.0-1.0-432.0","0","0","93316","","null","","","null","47","","","","","","","","","","","","","","","NaN",""
"","block_over","","html-keyboard-response","319","581161","0.0-1.0-433.0-0.0","0","0","93316","","9350","","","32","47","","","","","","","","","","","","","","","",""
"","S1","","html-keyboard-response","320","581417","0.0-1.0-434.0","0","0","93316","","null","","","null","48","","","","","","","","","","","","","","","",""
"","ISI","","html-keyboard-response","321","581923","0.0-1.0-435.0","0","0","93316","","null","","","null","48","NaN","","","","","","","","","","","","","","",""
"","S2","","html-keyboard-response","322","582181","0.0-1.0-436.0","0","0","93316","","null","","","null","48","","NaN","","","","","","","","","","","","","",""
"","response","","html-keyboard-response","323","582193","0.0-1.0-437.0-0.0","0","0","93316","","7","","","68","48","","","2","48","training","adjacent","DE","4","5","L.jpg","R.jpg","1","1","1","",""
"","feedback","","html-keyboard-response","324","583200","0.0-1.0-438.0-0.0","0","0","93316","","null","","","null","48","","","","","","","","","","","","","","","",""
"","ITI","","html-keyboard-response","325","584205","0.0-1.0-441.0","0","0","93316","","null","","","null","48","","","","","","","","","","","","","","","NaN",""
"","S1","","html-keyboard-response","326","584462","0.0-1.0-443.0","0","0","93316","","null","","","null","49","","","","","","","","","","","","","","","",""
"","ISI","","html-keyboard-response","327","584965","0.0-1.0-444.0","0","0","93316","","null","","","null","49","NaN","","","","","","","","","","","","","","",""
"","S2","","html-keyboard-response","328","585220","0.0-1.0-445.0","0","0","93316","","null","","","null","49","","NaN","","","","","","","","","","","","","",""
"","response","","html-keyboard-response","329","585407","0.0-1.0-446.0-0.0","0","0","93316","","181","","","75","49","","","2","49","training","adjacent","BA","2","1","O.jpg","Q.jpg","0","0","1","",""
"","feedback","","html-keyboard-response","330","586412","0.0-1.0-447.0-0.0","0","0","93316","","null","","","null","49","","","","","","","","","","","","","","","",""
"","ITI","","html-keyboard-response","331","587418","0.0-1.0-450.0","0","0","93316","","null","","","null","49","","","","","","","","","","","","","","","NaN",""
"","S1","","html-keyboard-response","332","587675","0.0-1.0-452.0","0","0","93316","","null","","","null","50","","","","","","","","","","","","","","","",""
"","ISI","","html-keyboard-response","333","588178","0.0-1.0-453.0","0","0","93316","","null","","","null","50","NaN","","","","","","","","","","","","","","",""
"","S2","","html-keyboard-response","334","588430","0.0-1.0-454.0","0","0","93316","","248","","","68","50","","d","2","50","training","adjacent","CD","3","4","M.jpg","L.jpg","1","1","1","",""
"","feedback","","html-keyboard-response","335","589435","0.0-1.0-456.0-0.0","0","0","93316","","null","","","null","50","","","","","","","","","","","","","","","",""
"","ITI","","html-keyboard-response","336","590442","0.0-1.0-459.0","0","0","93316","","null","","","null","50","","","","","","","","","","","","","","","NaN",""
"","S1","","html-keyboard-response","337","590695","0.0-1.0-461.0","0","0","93316","","null","","","null","51","","","","","","","","","","","","","","","",""
"","ISI","","html-keyboard-response","338","591200","0.0-1.0-462.0","0","0","93316","","null","","","null","51","NaN","","","","","","","","","","","","","","",""
"","S2","","html-keyboard-response","339","591384","0.0-1.0-463.0","0","0","93316","","177","","","75","51","","k","2","51","training","adjacent","AB","1","2","Q.jpg","O.jpg","0","1","0","",""
"","feedback","","html-keyboard-response","340","592393","0.0-1.0-465.0-0.0","0","0","93316","","null","","","null","51","","","","","","","","","","","","","","","",""
"","time_out","","html-keyboard-response","341","594450","0.0-1.0-467.0-0.0","0","0","93316","","null","","","null","51","","","","","","","","","","","","","","","",""
"","ITI","","html-keyboard-response","342","595471","0.0-1.0-468.0","0","0","93316","","null","","","null","51","","","","","","","","","","","","","","","NaN",""
"","S1","","html-keyboard-response","343","595727","0.0-1.0-470.0","0","0","93316","","null","","","null","52","","","","","","","","","","","","","","","",""
"","ISI","","html-keyboard-response","344","596240","0.0-1.0-471.0","0","0","93316","","null","","","null","52","NaN","","","","","","","","","","","","","","",""
"","S2","","html-keyboard-response","345","596398","0.0-1.0-472.0","0","0","93316","","155","","","68","52","","d","2","52","training","adjacent","FG","6","7","P.jpg","N.jpg","1","1","1","",""
"","feedback","","html-keyboard-response","346","597404","0.0-1.0-474.0-0.0","0","0","93316","","null","","","null","52","","","","","","","","","","","","","","","",""
"","ITI","","html-keyboard-response","347","598409","0.0-1.0-477.0","0","0","93316","","null","","","null","52","","","","","","","","","","","","","","","NaN",""
"","S1","","html-keyboard-response","348","598665","0.0-1.0-479.0","0","0","93316","","null","","","null","53","","","","","","","","","","","","","","","",""
"","ISI","","html-keyboard-response","349","599170","0.0-1.0-480.0","0","0","93316","","null","","","null","53","NaN","","","","","","","","","","","","","","",""
"","S2","","html-keyboard-response","350","599391","0.0-1.0-481.0","0","0","93316","","216","","","75","53","","k","2","53","training","adjacent","DE","4","5","L.jpg","R.jpg","0","1","0","",""
"","feedback","","html-keyboard-response","351","600398","0.0-1.0-483.0-0.0","0","0","93316","","null","","","null","53","","","","","","","","","","","","","","","",""
"","time_out","","html-keyboard-response","352","602409","0.0-1.0-485.0-0.0","0","0","93316","","null","","","null","53","","","","","","","","","","","","","","","",""
"","ITI","","html-keyboard-response","353","603443","0.0-1.0-486.0","0","0","93316","","null","","","null","53","","","","","","","","","","","","","","","NaN",""
"","S1","","html-keyboard-response","354","603699","0.0-1.0-488.0","0","0","93316","","null","","","null","54","","","","","","","","","","","","","","","",""
"","ISI","","html-keyboard-response","355","604202","0.0-1.0-489.0","0","0","93316","","null","","","null","54","NaN","","","","","","","","","","","","","","",""
"","S2","","html-keyboard-response","356","604216","0.0-1.0-490.0","0","0","93316","","9","","","68","54","","d","2","54","training","adjacent","EF","5","6","R.jpg","P.jpg","1","1","1","",""
"","feedback","","html-keyboard-response","357","605224","0.0-1.0-492.0-0.0","0","0","93316","","null","","","null","54","","","","","","","","","","","","","","","",""
"","ITI","","html-keyboard-response","358","606233","0.0-1.0-495.0","0","0","93316","","null","","","null","54","","","","","","","","","","","","","","","NaN",""
"","S1","","html-keyboard-response","359","606541","0.0-1.0-497.0","0","0","93316","","null","","","null","55","","","","","","","","","","","","","","","",""
"","ISI","","html-keyboard-response","360","607047","0.0-1.0-498.0","0","0","93316","","null","","","null","55","NaN","","","","","","","","","","","","","","",""
"","S2","","html-keyboard-response","361","607214","0.0-1.0-499.0","0","0","93316","","162","","","75","55","","k","2","55","training","adjacent","DC","4","3","L.jpg","M.jpg","0","0","1","",""
"","feedback","","html-keyboard-response","362","608220","0.0-1.0-501.0-0.0","0","0","93316","","null","","","null","55","","","","","","","","","","","","","","","",""
"","ITI","","html-keyboard-response","363","609225","0.0-1.0-504.0","0","0","93316","","null","","","null","55","","","","","","","","","","","","","","","NaN",""
"","S1","","html-keyboard-response","364","609480","0.0-1.0-506.0","0","0","93316","","null","","","null","56","","","","","","","","","","","","","","","",""
"","ISI","","html-keyboard-response","365","609984","0.0-1.0-507.0","0","0","93316","","null","","","null","56","NaN","","","","","","","","","","","","","","",""
"","S2","","html-keyboard-response","366","610094","0.0-1.0-508.0","0","0","93316","","106","","","68","56","","d","2","56","training","adjacent","EF","5","6","R.jpg","P.jpg","1","1","1","",""
"","feedback","","html-keyboard-response","367","611100","0.0-1.0-510.0-0.0","0","0","93316","","null","","","null","56","","","","","","","","","","","","","","","",""
"","ITI","","html-keyboard-response","368","612107","0.0-1.0-513.0","0","0","93316","","null","","","null","56","","","","","","","","","","","","","","","NaN",""
"","S1","","html-keyboard-response","369","612362","0.0-1.0-515.0","0","0","93316","","null","","","null","57","","","","","","","","","","","","","","","",""
"","ISI","","html-keyboard-response","370","612867","0.0-1.0-516.0","0","0","93316","","null","","","null","57","NaN","","","","","","","","","","","","","","",""
"","S2","","html-keyboard-response","371","612984","0.0-1.0-517.0","0","0","93316","","111","","","75","57","","k","2","57","training","adjacent","GF","7","6","N.jpg","P.jpg","0","0","1","",""
"","feedback","","html-keyboard-response","372","613992","0.0-1.0-519.0-0.0","0","0","93316","","null","","","null","57","","","","","","","","","","","","","","","",""
"","ITI","","html-keyboard-response","373","615000","0.0-1.0-522.0","0","0","93316","","null","","","null","57","","","","","","","","","","","","","","","NaN",""
"","S1","","html-keyboard-response","374","615253","0.0-1.0-524.0","0","0","93316","","null","","","null","58","","","","","","","","","","","","","","","",""
"","ISI","","html-keyboard-response","375","615781","0.0-1.0-525.0","0","0","93316","","null","","","null","58","NaN","","","","","","","","","","","","","","",""
"","S2","","html-keyboard-response","376","615805","0.0-1.0-526.0","0","0","93316","","21","","","68","58","","d","2","58","training","adjacent","ED","5","4","R.jpg","L.jpg","1","0","0","",""
"","feedback","","html-keyboard-response","377","616812","0.0-1.0-528.0-0.0","0","0","93316","","null","","","null","58","","","","","","","","","","","","","","","",""
"","time_out","","html-keyboard-response","378","618858","0.0-1.0-530.0-0.0","0","0","93316","","null","","","null","58","","","","","","","","","","","","","","","",""
"","ITI","","html-keyboard-response","379","619880","0.0-1.0-531.0","0","0","93316","","null","","","null","58","","","","","","","","","","","","","","","NaN",""
"","S1","","html-keyboard-response","380","620146","0.0-1.0-533.0","0","0","93316","","null","","","null","59","","","","","","","","","","","","","","","",""
"","ISI","","html-keyboard-response","381","620650","0.0-1.0-534.0","0","0","93316","","null","","","null","59","NaN","","","","","","","","","","","","","","",""
"","S2","","html-keyboard-response","382","620905","0.0-1.0-535.0","0","0","93316","","251","","","75","59","","k","2","59","training","adjacent","AB","1","2","Q.jpg","O.jpg","0","1","0","",""
"","feedback","","html-keyboard-response","383","621931","0.0-1.0-537.0-0.0","0","0","93316","","null","","","null","59","","","","","","","","","","","","","","","",""
"","time_out","","html-keyboard-response","384","623937","0.0-1.0-539.0-0.0","0","0","93316","","null","","","null","59","","","","","","","","","","","","","","","",""
"","ITI","","html-keyboard-response","385","624941","0.0-1.0-540.0","0","0","93316","","null","","","null","59","","","","","","","","","","","","","","","NaN",""
"","S1","","html-keyboard-response","386","625197","0.0-1.0-542.0","0","0","93316","","null","","","null","60","","","","","","","","","","","","","","","",""
"","ISI","","html-keyboard-response","387","625702","0.0-1.0-543.0","0","0","93316","","null","","","null","60","NaN","","","","","","","","","","","","","","",""
"","S2","","html-keyboard-response","388","625956","0.0-1.0-544.0","0","0","93316","","null","","","null","60","","NaN","","","","","","","","","","","","","",""
"","response","","html-keyboard-response","389","625975","0.0-1.0-545.0-0.0","0","0","93316","","13","","","68","60","","","2","60","training","adjacent","EF","5","6","R.jpg","P.jpg","1","1","1","",""
"","feedback","","html-keyboard-response","390","626982","0.0-1.0-546.0-0.0","0","0","93316","","null","","","null","60","","","","","","","","","","","","","","","",""
"","ITI","","html-keyboard-response","391","627986","0.0-1.0-549.0","0","0","93316","","null","","","null","60","","","","","","","","","","","","","","","NaN",""
"","S1","","html-keyboard-response","392","628241","0.0-1.0-551.0","0","0","93316","","null","","","null","61","","","","","","","","","","","","","","","",""
"","ISI","","html-keyboard-response","393","628746","0.0-1.0-552.0","0","0","93316","","null","","","null","61","NaN","","","","","","","","","","","","","","",""
"","S2","","html-keyboard-response","394","628925","0.0-1.0-553.0","0","0","93316","","174","","","75","61","","k","2","61","training","adjacent","CD","3","4","M.jpg","L.jpg","0","1","0","",""
"","feedback","","html-keyboard-response","395","629932","0.0-1.0-555.0-0.0","0","0","93316","","null","","","null","61","","","","","","","","","","","","","","","",""
"","time_out","","html-keyboard-response","396","631939","0.0-1.0-557.0-0.0","0","0","93316","","null","","","null","61","","","","","","","","","","","","","","","",""
"","ITI","","html-keyboard-response","397","632942","0.0-1.0-558.0","0","0","93316","","null","","","null","61","","","","","","","","","","","","","","","NaN",""
"","S1","","html-keyboard-response","398","633195","0.0-1.0-560.0","0","0","93316","","null","","","null","62","","","","","","","","","","","","","","","",""
"","ISI","","html-keyboard-response","399","633700","0.0-1.0-561.0","0","0","93316","","null","","","null","62","NaN","","","","","","","","","","","","","","",""
"","S2","","html-keyboard-response","400","633847","0.0-1.0-562.0","0","0","93316","","140","","","68","62","","d","2","62","training","adjacent","CD","3","4","M.jpg","L.jpg","1","1","1","",""
"","feedback","","html-keyboard-response","401","634854","0.0-1.0-564.0-0.0","0","0","93316","","null","","","null","62","","","","","","","","","","","","","","","",""
"","ITI","","html-keyboard-response","402","635859","0.0-1.0-567.0","0","0","93316","","null","","","null","62","","","","","","","","","","","","","","","NaN",""
"","S1","","html-keyboard-response","403","636116","0.0-1.0-569.0","0","0","93316","","null","","","null","63","","","","","","","","","","","","","","","",""
"","ISI","","html-keyboard-response","404","636623","0.0-1.0-570.0","0","0","93316","","null","","","null","63","NaN","","","","","","","","","","","","","","",""
"","S2","","html-keyboard-response","405","636852","0.0-1.0-571.0","0","0","93316","","226","","","75","63","","k","2","63","training","adjacent","BA","2","1","O.jpg","Q.jpg","0","0","1","",""
"","feedback","","html-keyboard-response","406","637859","0.0-1.0-573.0-0.0","0","0","93316","","null","","","null","63","","","","","","","","","","","","","","","",""
"","ITI","","html-keyboard-response","407","638863","0.0-1.0-576.0","0","0","93316","","null","","","null","63","","","","","","","","","","","","","","","NaN",""
"","S1","","html-keyboard-response","408","639121","0.0-1.0-578.0","0","0","93316","","null","","","null","64","","","","","","","","","","","","","","","",""
"","ISI","","html-keyboard-response","409","639624","0.0-1.0-579.0","0","0","93316","","null","","","null","64","NaN","","","","","","","","","","","","","","",""
"","S2","","html-keyboard-response","410","639880","0.0-1.0-580.0","0","0","93316","","248","","","68","64","","d","2","64","training","adjacent","BC","2","3","O.jpg","M.jpg","1","1","1","",""
"","feedback","","html-keyboard-response","411","640886","0.0-1.0-582.0-0.0","0","0","93316","","null","","","null","64","","","","","","","","","","","","","","","",""
"","ITI","","html-keyboard-response","412","641891","0.0-1.0-585.0","0","0","93316","","null","","","null","64","","","","","","","","","","","","","","","NaN",""
"","S1","","html-keyboard-response","413","642146","0.0-1.0-587.0","0","0","93316","","null","","","null","65","","","","","","","","","","","","","","","",""
"","ISI","","html-keyboard-response","414","642650","0.0-1.0-588.0","0","0","93316","","null","","","null","65","NaN","","","","","","","","","","","","","","",""
"","S2","","html-keyboard-response","415","642793","0.0-1.0-589.0","0","0","93316","","140","","","75","65","","k","2","65","training","adjacent","BA","2","1","O.jpg","Q.jpg","0","0","1","",""
"","feedback","","html-keyboard-response","416","643821","0.0-1.0-591.0-0.0","0","0","93316","","null","","","null","65","","","","","","","","","","","","","","","",""
"","ITI","","html-keyboard-response","417","644866","0.0-1.0-594.0","0","0","93316","","null","","","null","65","","","","","","","","","","","","","","","NaN",""
"","S1","","html-keyboard-response","418","645119","0.0-1.0-596.0","0","0","93316","","null","","","null","66","","","","","","","","","","","","","","","",""
"","ISI","","html-keyboard-response","419","645624","0.0-1.0-597.0","0","0","93316","","null","","","null","66","NaN","","","","","","","","","","","","","","",""
"","S2","","html-keyboard-response","420","645789","0.0-1.0-598.0","0","0","93316","","162","","","68","66","","d","2","66","training","adjacent","EF","5","6","R.jpg","P.jpg","1","1","1","",""
"","feedback","","html-keyboard-response","421","646795","0.0-1.0-600.0-0.0","0","0","93316","","null","","","null","66","","","","","","","","","","","","","","","",""
"","ITI","","html-keyboard-response","422","647800","0.0-1.0-603.0","0","0","93316","","null","","","null","66","","","","","","","","","","","","","","","NaN",""
"","S1","","html-keyboard-response","423","648056","0.0-1.0-605.0","0","0","93316","","null","","","null","67","","","","","","","","","","","","","","","",""
"","ISI","","html-keyboard-response","424","648560","0.0-1.0-606.0","0","0","93316","","null","","","null","67","NaN","","","","","","","","","","","","","","",""
"","S2","","html-keyboard-response","425","648683","0.0-1.0-607.0","0","0","93316","","119","","","75","67","","k","2","67","training","adjacent","CB","3","2","M.jpg","O.jpg","0","0","1","",""
"","feedback","","html-keyboard-response","426","649721","0.0-1.0-609.0-0.0","0","0","93316","","null","","","null","67","","","","","","","","","","","","","","","",""
"","ITI","","html-keyboard-response","427","650736","0.0-1.0-612.0","0","0","93316","","null","","","null","67","","","","","","","","","","","","","","","NaN",""
"","S1","","html-keyboard-response","428","651027","0.0-1.0-614.0","0","0","93316","","null","","","null","68","","","","","","","","","","","","","","","",""
"","ISI","","html-keyboard-response","429","651534","0.0-1.0-615.0","0","0","93316","","null","","","null","68","NaN","","","","","","","","","","","","","","",""
"","S2","","html-keyboard-response","430","651763","0.0-1.0-616.0","0","0","93316","","225","","","68","68","","d","2","68","training","adjacent","AB","1","2","Q.jpg","O.jpg","1","1","1","",""
"","feedback","","html-keyboard-response","431","652793","0.0-1.0-618.0-0.0","0","0","93316","","null","","","null","68","","","","","","","","","","","","","","","",""
"","ITI","","html-keyboard-response","432","653824","0.0-1.0-621.0","0","0","93316","","null","","","null","68","","","","","","","","","","","","","","","NaN",""
"","S1","","html-keyboard-response","433","654104","0.0-1.0-623.0","0","0","93316","","null","","","null","69","","","","","","","","","","","","","","","",""
"","ISI","","html-keyboard-response","434","654610","0.0-1.0-624.0","0","0","93316","","null","","","null","69","NaN","","","","","","","","","","","","","","",""
"","S2","","html-keyboard-response","435","654702","0.0-1.0-625.0","0","0","93316","","87","","","75","69","","k","2","69","training","adjacent","FG","6","7","P.jpg","N.jpg","0","1","0","",""
"","feedback","","html-keyboard-response","436","655711","0.0-1.0-627.0-0.0","0","0","93316","","null","","","null","69","","","","","","","","","","","","","","","",""
"","time_out","","html-keyboard-response","437","657717","0.0-1.0-629.0-0.0","0","0","93316","","null","","","null","69","","","","","","","","","","","","","","","",""
"","ITI","","html-keyboard-response","438","658721","0.0-1.0-630.0","0","0","93316","","null","","","null","69","","","","","","","","","","","","","","","NaN",""
"","S1","","html-keyboard-response","439","658986","0.0-1.0-632.0","0","0","93316","","null","","","null","70","","","","","","","","","","","","","","","",""
"","ISI","","html-keyboard-response","440","659491","0.0-1.0-633.0","0","0","93316","","null","","","null","70","NaN","","","","","","","","","","","","","","",""
"","S2","","html-keyboard-response","441","659675","0.0-1.0-634.0","0","0","93316","","181","","","68","70","","d","2","70","training","adjacent","GF","7","6","N.jpg","P.jpg","1","0","0","",""
"","feedback","","html-keyboard-response","442","660681","0.0-1.0-636.0-0.0","0","0","93316","","null","","","null","70","","","","","","","","","","","","","","","",""
"","time_out","","html-keyboard-response","443","662688","0.0-1.0-638.0-0.0","0","0","93316","","null","","","null","70","","","","","","","","","","","","","","","",""
"","ITI","","html-keyboard-response","444","663692","0.0-1.0-639.0","0","0","93316","","null","","","null","70","","","","","","","","","","","","","","","NaN",""
"","S1","","html-keyboard-response","445","663946","0.0-1.0-641.0","0","0","93316","","null","","","null","71","","","","","","","","","","","","","","","",""
"","ISI","","html-keyboard-response","446","664451","0.0-1.0-642.0","0","0","93316","","null","","","null","71","NaN","","","","","","","","","","","","","","",""
"","S2","","html-keyboard-response","447","664628","0.0-1.0-643.0","0","0","93316","","172","","","75","71","","k","2","71","training","adjacent","ED","5","4","R.jpg","L.jpg","0","0","1","",""
"","feedback","","html-keyboard-response","448","665635","0.0-1.0-645.0-0.0","0","0","93316","","null","","","null","71","","","","","","","","","","","","","","","",""
"","ITI","","html-keyboard-response","449","666639","0.0-1.0-648.0","0","0","93316","","null","","","null","71","","","","","","","","","","","","","","","NaN",""
"","S1","","html-keyboard-response","450","666895","0.0-1.0-650.0","0","0","93316","","null","","","null","72","","","","","","","","","","","","","","","",""
"","ISI","","html-keyboard-response","451","667399","0.0-1.0-651.0","0","0","93316","","null","","","null","72","NaN","","","","","","","","","","","","","","",""
"","S2","","html-keyboard-response","452","667468","0.0-1.0-652.0","0","0","93316","","65","","","68","72","","d","2","72","training","adjacent","ED","5","4","R.jpg","L.jpg","1","0","0","",""
"","feedback","","html-keyboard-response","453","668481","0.0-1.0-654.0-0.0","0","0","93316","","null","","","null","72","","","","","","","","","","","","","","","",""
"","time_out","","html-keyboard-response","454","670546","0.0-1.0-656.0-0.0","0","0","93316","","null","","","null","72","","","","","","","","","","","","","","","",""
"","ITI","","html-keyboard-response","455","671570","0.0-1.0-657.0","0","0","93316","","null","","","null","72","","","","","","","","","","","","","","","NaN",""
"","S1","","html-keyboard-response","456","671824","0.0-1.0-659.0","0","0","93316","","null","","","null","73","","","","","","","","","","","","","","","",""
"","ISI","","html-keyboard-response","457","672328","0.0-1.0-660.0","0","0","93316","","null","","","null","73","NaN","","","","","","","","","","","","","","",""
"","S2","","html-keyboard-response","458","672476","0.0-1.0-661.0","0","0","93316","","144","","","75","73","","k","2","73","training","adjacent","FE","6","5","P.jpg","R.jpg","0","0","1","",""
"","feedback","","html-keyboard-response","459","673482","0.0-1.0-663.0-0.0","0","0","93316","","null","","","null","73","","","","","","","","","","","","","","","",""
"","ITI","","html-keyboard-response","460","674486","0.0-1.0-666.0","0","0","93316","","null","","","null","73","","","","","","","","","","","","","","","NaN",""
"","S1","","html-keyboard-response","461","674741","0.0-1.0-668.0","0","0","93316","","null","","","null","74","","","","","","","","","","","","","","","",""
"","ISI","","html-keyboard-response","462","675245","0.0-1.0-669.0","0","0","93316","","null","","","null","74","NaN","","","","","","","","","","","","","","",""
"","S2","","html-keyboard-response","463","675414","0.0-1.0-670.0","0","0","93316","","164","","","68","74","","d","2","74","training","adjacent","FE","6","5","P.jpg","R.jpg","1","0","0","",""
"","feedback","","html-keyboard-response","464","676432","0.0-1.0-672.0-0.0","0","0","93316","","null","","","null","74","","","","","","","","","","","","","","","",""
"","time_out","","html-keyboard-response","465","678484","0.0-1.0-674.0-0.0","0","0","93316","","null","","","null","74","","","","","","","","","","","","","","","",""
"","ITI","","html-keyboard-response","466","679510","0.0-1.0-675.0","0","0","93316","","null","","","null","74","","","","","","","","","","","","","","","NaN",""
"","S1","","html-keyboard-response","467","679772","0.0-1.0-677.0","0","0","93316","","null","","","null","75","","","","","","","","","","","","","","","",""
"","ISI","","html-keyboard-response","468","680276","0.0-1.0-678.0","0","0","93316","","null","","","null","75","NaN","","","","","","","","","","","","","","",""
"","S2","","html-keyboard-response","469","680395","0.0-1.0-679.0","0","0","93316","","116","","","75","75","","k","2","75","training","adjacent","DE","4","5","L.jpg","R.jpg","0","1","0","",""
"","feedback","","html-keyboard-response","470","681403","0.0-1.0-681.0-0.0","0","0","93316","","null","","","null","75","","","","","","","","","","","","","","","",""
"","time_out","","html-keyboard-response","471","683410","0.0-1.0-683.0-0.0","0","0","93316","","null","","","null","75","","","","","","","","","","","","","","","",""
"","ITI","","html-keyboard-response","472","684414","0.0-1.0-684.0","0","0","93316","","null","","","null","75","","","","","","","","","","","","","","","NaN",""
"","S1","","html-keyboard-response","473","684671","0.0-1.0-686.0","0","0","93316","","null","","","null","76","","","","","","","","","","","","","","","",""
"","ISI","","html-keyboard-response","474","685175","0.0-1.0-687.0","0","0","93316","","null","","","null","76","NaN","","","","","","","","","","","","","","",""
"","S2","","html-keyboard-response","475","685236","0.0-1.0-688.0","0","0","93316","","56","","","68","76","","d","2","76","training","adjacent","FG","6","7","P.jpg","N.jpg","1","1","1","",""
"","feedback","","html-keyboard-response","476","686242","0.0-1.0-690.0-0.0","0","0","93316","","null","","","null","76","","","","","","","","","","","","","","","",""
"","ITI","","html-keyboard-response","477","687247","0.0-1.0-693.0","0","0","93316","","null","","","null","76","","","","","","","","","","","","","","","NaN",""
"","S1","","html-keyboard-response","478","687501","0.0-1.0-695.0","0","0","93316","","null","","","null","77","","","","","","","","","","","","","","","",""
"","ISI","","html-keyboard-response","479","688005","0.0-1.0-696.0","0","0","93316","","null","","","null","77","NaN","","","","","","","","","","","","","","",""
"","S2","","html-keyboard-response","480","688138","0.0-1.0-697.0","0","0","93316","","130","","","75","77","","k","2","77","training","adjacent","DC","4","3","L.jpg","M.jpg","0","0","1","",""
"","feedback","","html-keyboard-response","481","689144","0.0-1.0-699.0-0.0","0","0","93316","","null","","","null","77","","","","","","","","","","","","","","","",""
"","ITI","","html-keyboard-response","482","690150","0.0-1.0-702.0","0","0","93316","","null","","","null","77","","","","","","","","","","","","","","","NaN",""
"","S1","","html-keyboard-response","483","690405","0.0-1.0-704.0","0","0","93316","","null","","","null","78","","","","","","","","","","","","","","","",""
"","ISI","","html-keyboard-response","484","690910","0.0-1.0-705.0","0","0","93316","","null","","","null","78","NaN","","","","","","","","","","","","","","",""
"","S2","","html-keyboard-response","485","691029","0.0-1.0-706.0","0","0","93316","","112","","","68","78","","d","2","78","training","adjacent","BC","2","3","O.jpg","M.jpg","1","1","1","",""
"","feedback","","html-keyboard-response","486","692037","0.0-1.0-708.0-0.0","0","0","93316","","null","","","null","78","","","","","","","","","","","","","","","",""
"","ITI","","html-keyboard-response","487","693042","0.0-1.0-711.0","0","0","93316","","null","","","null","78","","","","","","","","","","","","","","","NaN",""
"","S1","","html-keyboard-response","488","693296","0.0-1.0-713.0","0","0","93316","","null","","","null","79","","","","","","","","","","","","","","","",""
"","ISI","","html-keyboard-response","489","693800","0.0-1.0-714.0","0","0","93316","","null","","","null","79","NaN","","","","","","","","","","","","","","",""
"","S2","","html-keyboard-response","490","693897","0.0-1.0-715.0","0","0","93316","","93","","","75","79","","k","2","79","training","adjacent","ED","5","4","R.jpg","L.jpg","0","0","1","",""
"","feedback","","html-keyboard-response","491","694926","0.0-1.0-717.0-0.0","0","0","93316","","null","","","null","79","","","","","","","","","","","","","","","",""
"","ITI","","html-keyboard-response","492","695949","0.0-1.0-720.0","0","0","93316","","null","","","null","79","","","","","","","","","","","","","","","NaN",""
"","S1","","html-keyboard-response","493","696230","0.0-1.0-722.0","0","0","93316","","null","","","null","80","","","","","","","","","","","","","","","",""
"","ISI","","html-keyboard-response","494","696734","0.0-1.0-723.0","0","0","93316","","null","","","null","80","NaN","","","","","","","","","","","","","","",""
"","S2","","html-keyboard-response","495","696795","0.0-1.0-724.0","0","0","93316","","57","","","68","80","","d","2","80","training","adjacent","DC","4","3","L.jpg","M.jpg","1","0","0","",""
"","feedback","","html-keyboard-response","496","697802","0.0-1.0-726.0-0.0","0","0","93316","","null","","","null","80","","","","","","","","","","","","","","","",""
"","time_out","","html-keyboard-response","497","699807","0.0-1.0-728.0-0.0","0","0","93316","","null","","","null","80","","","","","","","","","","","","","","","",""
"","ITI","","html-keyboard-response","498","700812","0.0-1.0-729.0","0","0","93316","","null","","","null","80","","","","","","","","","","","","","","","NaN",""
"","S1","","html-keyboard-response","499","701089","0.0-1.0-731.0","0","0","93316","","null","","","null","81","","","","","","","","","","","","","","","",""
"","ISI","","html-keyboard-response","500","701592","0.0-1.0-732.0","0","0","93316","","null","","","null","81","NaN","","","","","","","","","","","","","","",""
"","S2","","html-keyboard-response","501","701699","0.0-1.0-733.0","0","0","93316","","102","","","75","81","","k","2","81","training","adjacent","CB","3","2","M.jpg","O.jpg","0","0","1","",""
"","feedback","","html-keyboard-response","502","702708","0.0-1.0-735.0-0.0","0","0","93316","","null","","","null","81","","","","","","","","","","","","","","","",""
"","ITI","","html-keyboard-response","503","703714","0.0-1.0-738.0","0","0","93316","","null","","","null","81","","","","","","","","","","","","","","","NaN",""
"","S1","","html-keyboard-response","504","703970","0.0-1.0-740.0","0","0","93316","","null","","","null","82","","","","","","","","","","","","","","","",""
"","ISI","","html-keyboard-response","505","704475","0.0-1.0-741.0","0","0","93316","","null","","","null","82","NaN","","","","","","","","","","","","","","",""
"","S2","","html-keyboard-response","506","704618","0.0-1.0-742.0","0","0","93316","","140","","","68","82","","d","2","82","training","adjacent","BC","2","3","O.jpg","M.jpg","1","1","1","",""
"","feedback","","html-keyboard-response","507","705625","0.0-1.0-744.0-0.0","0","0","93316","","null","","","null","82","","","","","","","","","","","","","","","",""
"","ITI","","html-keyboard-response","508","706630","0.0-1.0-747.0","0","0","93316","","null","","","null","82","","","","","","","","","","","","","","","NaN",""
"","S1","","html-keyboard-response","509","706884","0.0-1.0-749.0","0","0","93316","","null","","","null","83","","","","","","","","","","","","","","","",""
"","ISI","","html-keyboard-response","510","707388","0.0-1.0-750.0","0","0","93316","","null","","","null","83","NaN","","","","","","","","","","","","","","",""
"","S2","","html-keyboard-response","511","707419","0.0-1.0-751.0","0","0","93316","","25","","","75","83","","k","2","83","training","adjacent","BA","2","1","O.jpg","Q.jpg","0","0","1","",""
"","feedback","","html-keyboard-response","512","708427","0.0-1.0-753.0-0.0","0","0","93316","","null","","","null","83","","","","","","","","","","","","","","","",""
"","ITI","","html-keyboard-response","513","709433","0.0-1.0-756.0","0","0","93316","","null","","","null","83","","","","","","","","","","","","","","","NaN",""
"","S1","","html-keyboard-response","514","709688","0.0-1.0-758.0","0","0","93316","","null","","","null","84","","","","","","","","","","","","","","","",""
"","ISI","","html-keyboard-response","515","710192","0.0-1.0-759.0","0","0","93316","","null","","","null","84","NaN","","","","","","","","","","","","","","",""
"","S2","","html-keyboard-response","516","710363","0.0-1.0-760.0","0","0","93316","","167","","","68","84","","d","2","84","training","adjacent","CB","3","2","M.jpg","O.jpg","1","0","0","",""
"","feedback","","html-keyboard-response","517","711371","0.0-1.0-762.0-0.0","0","0","93316","","null","","","null","84","","","","","","","","","","","","","","","",""
"","time_out","","html-keyboard-response","518","713411","0.0-1.0-764.0-0.0","0","0","93316","","null","","","null","84","","","","","","","","","","","","","","","",""
"","ITI","","html-keyboard-response","519","714436","0.0-1.0-765.0","0","0","93316","","null","","","null","84","","","","","","","","","","","","","","","NaN",""
"","S1","","html-keyboard-response","520","714711","0.0-1.0-767.0","0","0","93316","","null","","","null","85","","","","","","","","","","","","","","","",""
"","ISI","","html-keyboard-response","521","715214","0.0-1.0-768.0","0","0","93316","","null","","","null","85","NaN","","","","","","","","","","","","","","",""
"","S2","","html-keyboard-response","522","715377","0.0-1.0-769.0","0","0","93316","","158","","","75","85","","k","2","85","training","adjacent","FE","6","5","P.jpg","R.jpg","0","0","1","",""
"","feedback","","html-keyboard-response","523","716384","0.0-1.0-771.0-0.0","0","0","93316","","null","","","null","85","","","","","","","","","","","","","","","",""
"","ITI","","html-keyboard-response","524","717391","0.0-1.0-774.0","0","0","93316","","null","","","null","85","","","","","","","","","","","","","","","NaN",""
"","S1","","html-keyboard-response","525","717646","0.0-1.0-776.0","0","0","93316","","null","","","null","86","","","","","","","","","","","","","","","",""
"","ISI","","html-keyboard-response","526","718150","0.0-1.0-777.0","0","0","93316","","null","","","null","86","NaN","","","","","","","","","","","","","","",""
"","S2","","html-keyboard-response","527","718282","0.0-1.0-778.0","0","0","93316","","127","","","68","86","","d","2","86","training","adjacent","FE","6","5","P.jpg","R.jpg","1","0","0","",""
"","feedback","","html-keyboard-response","528","719290","0.0-1.0-780.0-0.0","0","0","93316","","null","","","null","86","","","","","","","","","","","","","","","",""
"","time_out","","html-keyboard-response","529","721295","0.0-1.0-782.0-0.0","0","0","93316","","null","","","null","86","","","","","","","","","","","","","","","",""
"","ITI","","html-keyboard-response","530","722299","0.0-1.0-783.0","0","0","93316","","null","","","null","86","","","","","","","","","","","","","","","NaN",""
"","S1","","html-keyboard-response","531","722554","0.0-1.0-785.0","0","0","93316","","null","","","null","87","","","","","","","","","","","","","","","",""
"","ISI","","html-keyboard-response","532","723059","0.0-1.0-786.0","0","0","93316","","null","","","null","87","NaN","","","","","","","","","","","","","","",""
"","S2","","html-keyboard-response","533","723315","0.0-1.0-787.0","0","0","93316","","null","","","null","87","","NaN","","","","","","","","","","","","","",""
"","response","","html-keyboard-response","534","723403","0.0-1.0-788.0-0.0","0","0","93316","","82","","","75","87","","","2","87","training","adjacent","GF","7","6","N.jpg","P.jpg","0","0","1","",""
"","feedback","","html-keyboard-response","535","724410","0.0-1.0-789.0-0.0","0","0","93316","","null","","","null","87","","","","","","","","","","","","","","","",""
"","ITI","","html-keyboard-response","536","725415","0.0-1.0-792.0","0","0","93316","","null","","","null","87","","","","","","","","","","","","","","","NaN",""
"","S1","","html-keyboard-response","537","725728","0.0-1.0-794.0","0","0","93316","","null","","","null","88","","","","","","","","","","","","","","","",""
"","ISI","","html-keyboard-response","538","726232","0.0-1.0-795.0","0","0","93316","","null","","","null","88","NaN","","","","","","","","","","","","","","",""
"","S2","","html-keyboard-response","539","726314","0.0-1.0-796.0","0","0","93316","","76","","","68","88","","d","2","88","training","adjacent","BC","2","3","O.jpg","M.jpg","1","1","1","",""
"","feedback","","html-keyboard-response","540","727322","0.0-1.0-798.0-0.0","0","0","93316","","null","","","null","88","","","","","","","","","","","","","","","",""
"","ITI","","html-keyboard-response","541","728329","0.0-1.0-801.0","0","0","93316","","null","","","null","88","","","","","","","","","","","","","","","NaN",""
"","S1","","html-keyboard-response","542","728584","0.0-1.0-803.0","0","0","93316","","null","","","null","89","","","","","","","","","","","","","","","",""
"","ISI","","html-keyboard-response","543","729093","0.0-1.0-804.0","0","0","93316","","null","","","null","89","NaN","","","","","","","","","","","","","","",""
"","S2","","html-keyboard-response","544","729201","0.0-1.0-805.0","0","0","93316","","104","","","75","89","","k","2","89","training","adjacent","GF","7","6","N.jpg","P.jpg","0","0","1","",""
"","feedback","","html-keyboard-response","545","730209","0.0-1.0-807.0-0.0","0","0","93316","","null","","","null","89","","","","","","","","","","","","","","","",""
"","ITI","","html-keyboard-response","546","731214","0.0-1.0-810.0","0","0","93316","","null","","","null","89","","","","","","","","","","","","","","","NaN",""
"","S1","","html-keyboard-response","547","731470","0.0-1.0-812.0","0","0","93316","","null","","","null","90","","","","","","","","","","","","","","","",""
"","ISI","","html-keyboard-response","548","731975","0.0-1.0-813.0","0","0","93316","","null","","","null","90","NaN","","","","","","","","","","","","","","",""
"","S2","","html-keyboard-response","549","732210","0.0-1.0-814.0","0","0","93316","","229","","","68","90","","d","2","90","training","adjacent","CD","3","4","M.jpg","L.jpg","1","1","1","",""
"","feedback","","html-keyboard-response","550","733217","0.0-1.0-816.0-0.0","0","0","93316","","null","","","null","90","","","","","","","","","","","","","","","",""
"","ITI","","html-keyboard-response","551","734238","0.0-1.0-819.0","0","0","93316","","null","","","null","90","","","","","","","","","","","","","","","NaN",""
"","S1","","html-keyboard-response","552","734494","0.0-1.0-821.0","0","0","93316","","null","","","null","91","","","","","","","","","","","","","","","",""
"","ISI","","html-keyboard-response","553","734999","0.0-1.0-822.0","0","0","93316","","null","","","null","91","NaN","","","","","","","","","","","","","","",""
"","S2","","html-keyboard-response","554","735129","0.0-1.0-823.0","0","0","93316","","127","","","75","91","","k","2","91","training","adjacent","DE","4","5","L.jpg","R.jpg","0","1","0","",""
"","feedback","","html-keyboard-response","555","736136","0.0-1.0-825.0-0.0","0","0","93316","","null","","","null","91","","","","","","","","","","","","","","","",""
"","time_out","","html-keyboard-response","556","738142","0.0-1.0-827.0-0.0","0","0","93316","","null","","","null","91","","","","","","","","","","","","","","","",""
"","ITI","","html-keyboard-response","557","739146","0.0-1.0-828.0","0","0","93316","","null","","","null","91","","","","","","","","","","","","","","","NaN",""
"","S1","","html-keyboard-response","558","739400","0.0-1.0-830.0","0","0","93316","","null","","","null","92","","","","","","","","","","","","","","","",""
"","ISI","","html-keyboard-response","559","739905","0.0-1.0-831.0","0","0","93316","","null","","","null","92","NaN","","","","","","","","","","","","","","",""
"","S2","","html-keyboard-response","560","740017","0.0-1.0-832.0","0","0","93316","","109","","","68","92","","d","2","92","training","adjacent","FG","6","7","P.jpg","N.jpg","1","1","1","",""
"","feedback","","html-keyboard-response","561","741025","0.0-1.0-834.0-0.0","0","0","93316","","null","","","null","92","","","","","","","","","","","","","","","",""
"","ITI","","html-keyboard-response","562","742034","0.0-1.0-837.0","0","0","93316","","null","","","null","92","","","","","","","","","","","","","","","NaN",""
"","S1","","html-keyboard-response","563","742290","0.0-1.0-839.0","0","0","93316","","null","","","null","93","","","","","","","","","","","","","","","",""
"","ISI","","html-keyboard-response","564","742795","0.0-1.0-840.0","0","0","93316","","null","","","null","93","NaN","","","","","","","","","","","","","","",""
"","S2","","html-keyboard-response","565","743010","0.0-1.0-841.0","0","0","93316","","210","","","75","93","","k","2","93","training","adjacent","AB","1","2","Q.jpg","O.jpg","0","1","0","",""
"","feedback","","html-keyboard-response","566","744017","0.0-1.0-843.0-0.0","0","0","93316","","null","","","null","93","","","","","","","","","","","","","","","",""
"","time_out","","html-keyboard-response","567","746023","0.0-1.0-845.0-0.0","0","0","93316","","null","","","null","93","","","","","","","","","","","","","","","",""
"","ITI","","html-keyboard-response","568","747028","0.0-1.0-846.0","0","0","93316","","null","","","null","93","","","","","","","","","","","","","","","NaN",""
"","S1","","html-keyboard-response","569","747283","0.0-1.0-848.0","0","0","93316","","null","","","null","94","","","","","","","","","","","","","","","",""
"","ISI","","html-keyboard-response","570","747786","0.0-1.0-849.0","0","0","93316","","null","","","null","94","NaN","","","","","","","","","","","","","","",""
"","S2","","html-keyboard-response","571","748017","0.0-1.0-850.0","0","0","93316","","228","","","68","94","","d","2","94","training","adjacent","CB","3","2","M.jpg","O.jpg","1","0","0","",""
"","feedback","","html-keyboard-response","572","749026","0.0-1.0-852.0-0.0","0","0","93316","","null","","","null","94","","","","","","","","","","","","","","","",""
"","time_out","","html-keyboard-response","573","751032","0.0-1.0-854.0-0.0","0","0","93316","","null","","","null","94","","","","","","","","","","","","","","","",""
"","ITI","","html-keyboard-response","574","752036","0.0-1.0-855.0","0","0","93316","","null","","","null","94","","","","","","","","","","","","","","","NaN",""
"","S1","","html-keyboard-response","575","752292","0.0-1.0-857.0","0","0","93316","","null","","","null","95","","","","","","","","","","","","","","","",""
"","ISI","","html-keyboard-response","576","752797","0.0-1.0-858.0","0","0","93316","","null","","","null","95","NaN","","","","","","","","","","","","","","",""
"","S2","","html-keyboard-response","577","753024","0.0-1.0-859.0","0","0","93316","","224","","","75","95","","k","2","95","training","adjacent","DC","4","3","L.jpg","M.jpg","0","0","1","",""
"","feedback","","html-keyboard-response","578","754031","0.0-1.0-861.0-0.0","0","0","93316","","null","","","null","95","","","","","","","","","","","","","","","",""
"","ITI","","html-keyboard-response","579","755038","0.0-1.0-864.0","0","0","93316","","null","","","null","95","","","","","","","","","","","","","","","NaN",""
"","block_over","","html-keyboard-response","580","759601","0.0-1.0-865.0-0.0","0","0","93316","","4555","","","32","95","","","","","","","","","","","","","","","",""
"","S1","","html-keyboard-response","581","759855","0.0-1.0-866.0","0","0","93316","","null","","","null","96","","","","","","","","","","","","","","","",""
"","ISI","","html-keyboard-response","582","760359","0.0-1.0-867.0","0","0","93316","","null","","","null","96","NaN","","","","","","","","","","","","","","",""
"","S2","","html-keyboard-response","583","760613","0.0-1.0-868.0","0","0","93316","","null","","","null","96","","NaN","","","","","","","","","","","","","",""
