"success","ttype","start_time","trial_type","trial_index","time_elapsed","internal_node_id","warning","missed_checkup","PID","view_history","rt","responses","repeat_instructions","key_press","index","keypress_isi","keypress_S2","block","trial_num","phase","group_type","pair_type","S1_stim","S2_stim","S1_img","S2_img","S1_chosen","S1_higher","accuracy","keypress_iti","total_bonus_tally"
"true","full_screen","d03082023hr1735","fullscreen","0","13706","0.0-0.0","0","0","19149","","","","","","","","","","","","","","","","","","","","","",""
"","instructions","","instructions","1","86651","0.0-1.0-0.0-0.0","0","0","19149","[{""page_index"":0,""viewing_time"":8409},{""page_index"":1,""viewing_time"":44716},{""page_index"":2,""viewing_time"":16870},{""page_index"":3,""viewing_time"":2944}]","72941","","","","","","","","","","","","","","","","","","","",""
"","comprehension_check","","survey-multi-choice","2","120832","0.0-1.0-0.0-1.0","0","0","19149","","34166","{""Q0"":""True"",""Q1"":""K"",""Q2"":""Once the second image appears and while the screen 'MAKE A CHOICE' is shown"",""Q3"":""Green mark"",""Q4"":""either D or K""}","0","","","","","","","","","","","","","","","","","",""
"","start_exp","","html-keyboard-response","3","123254","0.0-1.0-1.0","0","0","19149","","2412","","","32","","","","","","","","","","","","","","","","",""
"","S1","","html-keyboard-response","4","123511","0.0-1.0-2.0","0","0","19149","","null","","","null","0","","","","","","","","","","","","","","","",""
"","ISI","","html-keyboard-response","5","123670","0.0-1.0-3.0","0","0","19149","","null","","","null","0","NaN","","","","","","","","","","","","","","",""
"","S2","","html-keyboard-response","6","123925","0.0-1.0-4.0","0","0","19149","","null","","","null","0","","NaN","","","","","","","","","","","","","",""
"","response","","html-keyboard-response","7","125656","0.0-1.0-5.0-0.0","0","0","19149","","1726","","","75","0","","","1","0","training","adjacent","DC","4","3","Q.jpg","P.jpg","1","0","0","",""
"","feedback","","html-keyboard-response","8","126663","0.0-1.0-6.0-0.0","0","0","19149","","null","","","null","0","","","","","","","","","","","","","","","",""
"","time_out","","html-keyboard-response","9","128675","0.0-1.0-8.0-0.0","0","0","19149","","null","","","null","0","","","","","","","","","","","","","","","",""
"","ITI","","html-keyboard-response","10","129681","0.0-1.0-9.0","0","0","19149","","null","","","null","0","","","","","","","","","","","","","","","NaN",""
"","S1","","html-keyboard-response","11","129936","0.0-1.0-11.0","0","0","19149","","null","","","null","1","","","","","","","","","","","","","","","",""
"","ISI","","html-keyboard-response","12","130098","0.0-1.0-12.0","0","0","19149","","null","","","null","1","NaN","","","","","","","","","","","","","","",""
"","S2","","html-keyboard-response","13","130363","0.0-1.0-13.0","0","0","19149","","null","","","null","1","","NaN","","","","","","","","","","","","","",""
"","response","","html-keyboard-response","14","131665","0.0-1.0-14.0-0.0","0","0","19149","","1298","","","68","1","","","1","1","training","adjacent","CB","3","2","P.jpg","N.jpg","0","0","1","",""
"","feedback","","html-keyboard-response","15","132671","0.0-1.0-15.0-0.0","0","0","19149","","null","","","null","1","","","","","","","","","","","","","","","",""
"","ITI","","html-keyboard-response","16","133683","0.0-1.0-18.0","0","0","19149","","null","","","null","1","","","","","","","","","","","","","","","NaN",""
"","S1","","html-keyboard-response","17","133944","0.0-1.0-20.0","0","0","19149","","null","","","null","2","","","","","","","","","","","","","","","",""
"","ISI","","html-keyboard-response","18","134103","0.0-1.0-21.0","0","0","19149","","null","","","null","2","NaN","","","","","","","","","","","","","","",""
"","S2","","html-keyboard-response","19","134358","0.0-1.0-22.0","0","0","19149","","null","","","null","2","","NaN","","","","","","","","","","","","","",""
"","response","","html-keyboard-response","20","135284","0.0-1.0-23.0-0.0","0","0","19149","","922","","","68","2","","","1","2","training","adjacent","ED","5","4","O.jpg","Q.jpg","0","0","1","",""
"","feedback","","html-keyboard-response","21","136296","0.0-1.0-24.0-0.0","0","0","19149","","null","","","null","2","","","","","","","","","","","","","","","",""
"","ITI","","html-keyboard-response","22","137300","0.0-1.0-27.0","0","0","19149","","null","","","null","2","","","","","","","","","","","","","","","NaN",""
"","S1","","html-keyboard-response","23","137558","0.0-1.0-29.0","0","0","19149","","null","","","null","3","","","","","","","","","","","","","","","",""
"","ISI","","html-keyboard-response","24","137720","0.0-1.0-30.0","0","0","19149","","null","","","null","3","NaN","","","","","","","","","","","","","","",""
"","S2","","html-keyboard-response","25","137985","0.0-1.0-31.0","0","0","19149","","null","","","null","3","","NaN","","","","","","","","","","","","","",""
"","response","","html-keyboard-response","26","139036","0.0-1.0-32.0-0.0","0","0","19149","","1046","","","75","3","","","1","3","training","adjacent","EF","5","6","O.jpg","R.jpg","1","1","1","",""
"","feedback","","html-keyboard-response","27","140046","0.0-1.0-33.0-0.0","0","0","19149","","null","","","null","3","","","","","","","","","","","","","","","",""
"","ITI","","html-keyboard-response","28","141056","0.0-1.0-36.0","0","0","19149","","null","","","null","3","","","","","","","","","","","","","","","NaN",""
"","S1","","html-keyboard-response","29","141311","0.0-1.0-38.0","0","0","19149","","null","","","null","4","","","","","","","","","","","","","","","",""
"","ISI","","html-keyboard-response","30","141472","0.0-1.0-39.0","0","0","19149","","null","","","null","4","NaN","","","","","","","","","","","","","","",""
"","S2","","html-keyboard-response","31","141734","0.0-1.0-40.0","0","0","19149","","null","","","null","4","","NaN","","","","","","","","","","","","","",""
"","response","","html-keyboard-response","32","142706","0.0-1.0-41.0-0.0","0","0","19149","","969","","","68","4","","","1","4","training","adjacent","CD","3","4","P.jpg","Q.jpg","0","1","0","",""
"","feedback","","html-keyboard-response","33","143724","0.0-1.0-42.0-0.0","0","0","19149","","null","","","null","4","","","","","","","","","","","","","","","",""
"","time_out","","html-keyboard-response","34","145731","0.0-1.0-44.0-0.0","0","0","19149","","null","","","null","4","","","","","","","","","","","","","","","",""
"","ITI","","html-keyboard-response","35","146736","0.0-1.0-45.0","0","0","19149","","null","","","null","4","","","","","","","","","","","","","","","NaN",""
"","S1","","html-keyboard-response","36","146990","0.0-1.0-47.0","0","0","19149","","null","","","null","5","","","","","","","","","","","","","","","",""
"","ISI","","html-keyboard-response","37","147149","0.0-1.0-48.0","0","0","19149","","null","","","null","5","NaN","","","","","","","","","","","","","","",""
"","S2","","html-keyboard-response","38","147407","0.0-1.0-49.0","0","0","19149","","null","","","null","5","","NaN","","","","","","","","","","","","","",""
"","response","","html-keyboard-response","39","148137","0.0-1.0-50.0-0.0","0","0","19149","","725","","","75","5","","","1","5","training","adjacent","DC","4","3","Q.jpg","P.jpg","1","0","0","",""
"","feedback","","html-keyboard-response","40","149149","0.0-1.0-51.0-0.0","0","0","19149","","null","","","null","5","","","","","","","","","","","","","","","",""
"","time_out","","html-keyboard-response","41","151155","0.0-1.0-53.0-0.0","0","0","19149","","null","","","null","5","","","","","","","","","","","","","","","",""
"","ITI","","html-keyboard-response","42","152164","0.0-1.0-54.0","0","0","19149","","null","","","null","5","","","","","","","","","","","","","","","NaN",""
"","S1","","html-keyboard-response","43","152421","0.0-1.0-56.0","0","0","19149","","null","","","null","6","","","","","","","","","","","","","","","",""
"","ISI","","html-keyboard-response","44","152588","0.0-1.0-57.0","0","0","19149","","null","","","null","6","NaN","","","","","","","","","","","","","","",""
"","S2","","html-keyboard-response","45","152856","0.0-1.0-58.0","0","0","19149","","null","","","null","6","","NaN","","","","","","","","","","","","","",""
"","response","","html-keyboard-response","46","153599","0.0-1.0-59.0-0.0","0","0","19149","","739","","","68","6","","","1","6","training","adjacent","BC","2","3","N.jpg","P.jpg","0","1","0","",""
"","feedback","","html-keyboard-response","47","154605","0.0-1.0-60.0-0.0","0","0","19149","","null","","","null","6","","","","","","","","","","","","","","","",""
"","time_out","","html-keyboard-response","48","156615","0.0-1.0-62.0-0.0","0","0","19149","","null","","","null","6","","","","","","","","","","","","","","","",""
"","ITI","","html-keyboard-response","49","157625","0.0-1.0-63.0","0","0","19149","","null","","","null","6","","","","","","","","","","","","","","","NaN",""
"","S1","","html-keyboard-response","50","157881","0.0-1.0-65.0","0","0","19149","","null","","","null","7","","","","","","","","","","","","","","","",""
"","ISI","","html-keyboard-response","51","158035","0.0-1.0-66.0","0","0","19149","","null","","","null","7","NaN","","","","","","","","","","","","","","",""
"","S2","","html-keyboard-response","52","158290","0.0-1.0-67.0","0","0","19149","","null","","","null","7","","NaN","","","","","","","","","","","","","",""
"","response","","html-keyboard-response","53","158756","0.0-1.0-68.0-0.0","0","0","19149","","461","","","75","7","","","1","7","training","adjacent","GF","7","6","M.jpg","R.jpg","1","0","0","",""
"","feedback","","html-keyboard-response","54","159769","0.0-1.0-69.0-0.0","0","0","19149","","null","","","null","7","","","","","","","","","","","","","","","",""
"","time_out","","html-keyboard-response","55","161782","0.0-1.0-71.0-0.0","0","0","19149","","null","","","null","7","","","","","","","","","","","","","","","",""
"","ITI","","html-keyboard-response","56","162790","0.0-1.0-72.0","0","0","19149","","null","","","null","7","","","","","","","","","","","","","","","NaN",""
"","S1","","html-keyboard-response","57","163048","0.0-1.0-74.0","0","0","19149","","null","","","null","8","","","","","","","","","","","","","","","",""
"","ISI","","html-keyboard-response","58","163203","0.0-1.0-75.0","0","0","19149","","null","","","null","8","NaN","","","","","","","","","","","","","","",""
"","S2","","html-keyboard-response","59","163468","0.0-1.0-76.0","0","0","19149","","null","","","null","8","","NaN","","","","","","","","","","","","","",""
"","response","","html-keyboard-response","60","163840","0.0-1.0-77.0-0.0","0","0","19149","","368","","","75","8","","","1","8","training","adjacent","DE","4","5","Q.jpg","O.jpg","1","1","1","",""
"","feedback","","html-keyboard-response","61","164848","0.0-1.0-78.0-0.0","0","0","19149","","null","","","null","8","","","","","","","","","","","","","","","",""
"","ITI","","html-keyboard-response","62","165854","0.0-1.0-81.0","0","0","19149","","null","","","null","8","","","","","","","","","","","","","","","NaN",""
"","S1","","html-keyboard-response","63","166117","0.0-1.0-83.0","0","0","19149","","null","","","null","9","","","","","","","","","","","","","","","",""
"","ISI","","html-keyboard-response","64","166279","0.0-1.0-84.0","0","0","19149","","null","","","null","9","NaN","","","","","","","","","","","","","","",""
"","S2","","html-keyboard-response","65","166537","0.0-1.0-85.0","0","0","19149","","null","","","null","9","","NaN","","","","","","","","","","","","","",""
"","response","","html-keyboard-response","66","167122","0.0-1.0-86.0-0.0","0","0","19149","","581","","","68","9","","","1","9","training","adjacent","CD","3","4","P.jpg","Q.jpg","0","1","0","",""
"","feedback","","html-keyboard-response","67","168127","0.0-1.0-87.0-0.0","0","0","19149","","null","","","null","9","","","","","","","","","","","","","","","",""
"","time_out","","html-keyboard-response","68","170137","0.0-1.0-89.0-0.0","0","0","19149","","null","","","null","9","","","","","","","","","","","","","","","",""
"","ITI","","html-keyboard-response","69","171148","0.0-1.0-90.0","0","0","19149","","null","","","null","9","","","","","","","","","","","","","","","NaN",""
"","S1","","html-keyboard-response","70","171410","0.0-1.0-92.0","0","0","19149","","null","","","null","10","","","","","","","","","","","","","","","",""
"","ISI","","html-keyboard-response","71","171564","0.0-1.0-93.0","0","0","19149","","null","","","null","10","NaN","","","","","","","","","","","","","","",""
"","S2","","html-keyboard-response","72","171819","0.0-1.0-94.0","0","0","19149","","null","","","null","10","","NaN","","","","","","","","","","","","","",""
"","response","","html-keyboard-response","73","172369","0.0-1.0-95.0-0.0","0","0","19149","","548","","","75","10","","","1","10","training","adjacent","FE","6","5","R.jpg","O.jpg","1","0","0","",""
"","feedback","","html-keyboard-response","74","173377","0.0-1.0-96.0-0.0","0","0","19149","","null","","","null","10","","","","","","","","","","","","","","","",""
"","time_out","","html-keyboard-response","75","175385","0.0-1.0-98.0-0.0","0","0","19149","","null","","","null","10","","","","","","","","","","","","","","","",""
"","ITI","","html-keyboard-response","76","176397","0.0-1.0-99.0","0","0","19149","","null","","","null","10","","","","","","","","","","","","","","","NaN",""
"","S1","","html-keyboard-response","77","176653","0.0-1.0-101.0","0","0","19149","","null","","","null","11","","","","","","","","","","","","","","","",""
"","ISI","","html-keyboard-response","78","176815","0.0-1.0-102.0","0","0","19149","","null","","","null","11","NaN","","","","","","","","","","","","","","",""
"","S2","","html-keyboard-response","79","177077","0.0-1.0-103.0","0","0","19149","","null","","","null","11","","NaN","","","","","","","","","","","","","",""
"","response","","html-keyboard-response","80","177534","0.0-1.0-104.0-0.0","0","0","19149","","453","","","68","11","","","1","11","training","adjacent","FG","6","7","R.jpg","M.jpg","0","1","0","",""
"","feedback","","html-keyboard-response","81","178543","0.0-1.0-105.0-0.0","0","0","19149","","null","","","null","11","","","","","","","","","","","","","","","",""
"","time_out","","html-keyboard-response","82","180547","0.0-1.0-107.0-0.0","0","0","19149","","null","","","null","11","","","","","","","","","","","","","","","",""
"","ITI","","html-keyboard-response","83","181554","0.0-1.0-108.0","0","0","19149","","null","","","null","11","","","","","","","","","","","","","","","NaN",""
"","S1","","html-keyboard-response","84","181815","0.0-1.0-110.0","0","0","19149","","null","","","null","12","","","","","","","","","","","","","","","",""
"","ISI","","html-keyboard-response","85","181976","0.0-1.0-111.0","0","0","19149","","null","","","null","12","NaN","","","","","","","","","","","","","","",""
"","S2","","html-keyboard-response","86","182232","0.0-1.0-112.0","0","0","19149","","null","","","null","12","","NaN","","","","","","","","","","","","","",""
"","response","","html-keyboard-response","87","182743","0.0-1.0-113.0-0.0","0","0","19149","","507","","","75","12","","","1","12","training","adjacent","BC","2","3","N.jpg","P.jpg","1","1","1","",""
"","feedback","","html-keyboard-response","88","183754","0.0-1.0-114.0-0.0","0","0","19149","","null","","","null","12","","","","","","","","","","","","","","","",""
"","ITI","","html-keyboard-response","89","184763","0.0-1.0-117.0","0","0","19149","","null","","","null","12","","","","","","","","","","","","","","","NaN",""
"","S1","","html-keyboard-response","90","185017","0.0-1.0-119.0","0","0","19149","","null","","","null","13","","","","","","","","","","","","","","","",""
"","ISI","","html-keyboard-response","91","185180","0.0-1.0-120.0","0","0","19149","","null","","","null","13","NaN","","","","","","","","","","","","","","",""
"","S2","","html-keyboard-response","92","185436","0.0-1.0-121.0","0","0","19149","","null","","","null","13","","NaN","","","","","","","","","","","","","",""
"","response","","html-keyboard-response","93","186368","0.0-1.0-122.0-0.0","0","0","19149","","928","","","75","13","","","1","13","training","adjacent","BC","2","3","N.jpg","P.jpg","1","1","1","",""
"","feedback","","html-keyboard-response","94","187375","0.0-1.0-123.0-0.0","0","0","19149","","null","","","null","13","","","","","","","","","","","","","","","",""
"","ITI","","html-keyboard-response","95","188380","0.0-1.0-126.0","0","0","19149","","null","","","null","13","","","","","","","","","","","","","","","NaN",""
"","S1","","html-keyboard-response","96","188647","0.0-1.0-128.0","0","0","19149","","null","","","null","14","","","","","","","","","","","","","","","",""
"","ISI","","html-keyboard-response","97","188812","0.0-1.0-129.0","0","0","19149","","null","","","null","14","NaN","","","","","","","","","","","","","","",""
"","S2","","html-keyboard-response","98","189066","0.0-1.0-130.0","0","0","19149","","null","","","null","14","","NaN","","","","","","","","","","","","","",""
"","response","","html-keyboard-response","99","190017","0.0-1.0-131.0-0.0","0","0","19149","","947","","","68","14","","","1","14","training","adjacent","FG","6","7","R.jpg","M.jpg","0","1","0","",""
"","feedback","","html-keyboard-response","100","191028","0.0-1.0-132.0-0.0","0","0","19149","","null","","","null","14","","","","","","","","","","","","","","","",""
"","time_out","","html-keyboard-response","101","193037","0.0-1.0-134.0-0.0","0","0","19149","","null","","","null","14","","","","","","","","","","","","","","","",""
"","ITI","","html-keyboard-response","102","194044","0.0-1.0-135.0","0","0","19149","","null","","","null","14","","","","","","","","","","","","","","","NaN",""
"","S1","","html-keyboard-response","103","194302","0.0-1.0-137.0","0","0","19149","","null","","","null","15","","","","","","","","","","","","","","","",""
"","ISI","","html-keyboard-response","104","194463","0.0-1.0-138.0","0","0","19149","","null","","","null","15","NaN","","","","","","","","","","","","","","",""
"","S2","","html-keyboard-response","105","194720","0.0-1.0-139.0","0","0","19149","","null","","","null","15","","NaN","","","","","","","","","","","","","",""
"","response","","html-keyboard-response","106","195243","0.0-1.0-140.0-0.0","0","0","19149","","519","","","75","15","","","1","15","training","adjacent","DE","4","5","Q.jpg","O.jpg","1","1","1","",""
"","feedback","","html-keyboard-response","107","196261","0.0-1.0-141.0-0.0","0","0","19149","","null","","","null","15","","","","","","","","","","","","","","","",""
"","ITI","","html-keyboard-response","108","197274","0.0-1.0-144.0","0","0","19149","","null","","","null","15","","","","","","","","","","","","","","","NaN",""
"","S1","","html-keyboard-response","109","197534","0.0-1.0-146.0","0","0","19149","","null","","","null","16","","","","","","","","","","","","","","","",""
"","ISI","","html-keyboard-response","110","197704","0.0-1.0-147.0","0","0","19149","","null","","","null","16","NaN","","","","","","","","","","","","","","",""
"","S2","","html-keyboard-response","111","197961","0.0-1.0-148.0","0","0","19149","","null","","","null","16","","NaN","","","","","","","","","","","","","",""
"","response","","html-keyboard-response","112","199382","0.0-1.0-149.0-0.0","0","0","19149","","1415","","","68","16","","","1","16","training","adjacent","ED","5","4","O.jpg","Q.jpg","0","0","1","",""
"","feedback","","html-keyboard-response","113","200397","0.0-1.0-150.0-0.0","0","0","19149","","null","","","null","16","","","","","","","","","","","","","","","",""
"","ITI","","html-keyboard-response","114","201406","0.0-1.0-153.0","0","0","19149","","null","","","null","16","","","","","","","","","","","","","","","NaN",""
"","S1","","html-keyboard-response","115","201664","0.0-1.0-155.0","0","0","19149","","null","","","null","17","","","","","","","","","","","","","","","",""
"","ISI","","html-keyboard-response","116","201824","0.0-1.0-156.0","0","0","19149","","null","","","null","17","NaN","","","","","","","","","","","","","","",""
"","S2","","html-keyboard-response","117","202085","0.0-1.0-157.0","0","0","19149","","null","","","null","17","","NaN","","","","","","","","","","","","","",""
"","response","","html-keyboard-response","118","203305","0.0-1.0-158.0-0.0","0","0","19149","","1215","","","68","17","","","1","17","training","adjacent","EF","5","6","O.jpg","R.jpg","0","1","0","",""
"","feedback","","html-keyboard-response","119","204314","0.0-1.0-159.0-0.0","0","0","19149","","null","","","null","17","","","","","","","","","","","","","","","",""
"","time_out","","html-keyboard-response","120","206321","0.0-1.0-161.0-0.0","0","0","19149","","null","","","null","17","","","","","","","","","","","","","","","",""
"","ITI","","html-keyboard-response","121","207330","0.0-1.0-162.0","0","0","19149","","null","","","null","17","","","","","","","","","","","","","","","NaN",""
"","S1","","html-keyboard-response","122","207587","0.0-1.0-164.0","0","0","19149","","null","","","null","18","","","","","","","","","","","","","","","",""
"","ISI","","html-keyboard-response","123","207749","0.0-1.0-165.0","0","0","19149","","null","","","null","18","NaN","","","","","","","","","","","","","","",""
"","S2","","html-keyboard-response","124","208012","0.0-1.0-166.0","0","0","19149","","null","","","null","18","","NaN","","","","","","","","","","","","","",""
"","response","","html-keyboard-response","125","208934","0.0-1.0-167.0-0.0","0","0","19149","","918","","","75","18","","","1","18","training","adjacent","ED","5","4","O.jpg","Q.jpg","1","0","0","",""
"","feedback","","html-keyboard-response","126","209945","0.0-1.0-168.0-0.0","0","0","19149","","null","","","null","18","","","","","","","","","","","","","","","",""
"","time_out","","html-keyboard-response","127","211957","0.0-1.0-170.0-0.0","0","0","19149","","null","","","null","18","","","","","","","","","","","","","","","",""
"","ITI","","html-keyboard-response","128","212966","0.0-1.0-171.0","0","0","19149","","null","","","null","18","","","","","","","","","","","","","","","NaN",""
"","S1","","html-keyboard-response","129","213229","0.0-1.0-173.0","0","0","19149","","null","","","null","19","","","","","","","","","","","","","","","",""
"","ISI","","html-keyboard-response","130","213384","0.0-1.0-174.0","0","0","19149","","null","","","null","19","NaN","","","","","","","","","","","","","","",""
"","S2","","html-keyboard-response","131","213647","0.0-1.0-175.0","0","0","19149","","null","","","null","19","","NaN","","","","","","","","","","","","","",""
"","response","","html-keyboard-response","132","215402","0.0-1.0-176.0-0.0","0","0","19149","","null","","","null","19","","","1","19","training","adjacent","CD","3","4","P.jpg","Q.jpg","NaN","1","0","",""
"","too_slow_prompt","","html-keyboard-response","133","216412","0.0-1.0-178.0-0.0","1","0","19149","","null","","","null","","","","","","","","","","","","","","","","",""
"","time_out","","html-keyboard-response","134","218416","0.0-1.0-179.0-0.0","0","0","19149","","null","","","null","19","","","","","","","","","","","","","","","",""
"","ITI","","html-keyboard-response","135","219428","0.0-1.0-180.0","0","0","19149","","null","","","null","19","","","","","","","","","","","","","","","NaN",""
"","S1","","html-keyboard-response","136","219687","0.0-1.0-182.0","0","0","19149","","null","","","null","20","","","","","","","","","","","","","","","",""
"","ISI","","html-keyboard-response","137","219842","0.0-1.0-183.0","0","0","19149","","null","","","null","20","NaN","","","","","","","","","","","","","","",""
"","S2","","html-keyboard-response","138","220106","0.0-1.0-184.0","0","0","19149","","null","","","null","20","","NaN","","","","","","","","","","","","","",""
"","response","","html-keyboard-response","139","221175","0.0-1.0-185.0-0.0","0","0","19149","","1065","","","75","20","","","1","20","training","adjacent","EF","5","6","O.jpg","R.jpg","1","1","1","",""
"","feedback","","html-keyboard-response","140","222184","0.0-1.0-186.0-0.0","0","0","19149","","null","","","null","20","","","","","","","","","","","","","","","",""
"","ITI","","html-keyboard-response","141","223193","0.0-1.0-189.0","0","0","19149","","null","","","null","20","","","","","","","","","","","","","","","NaN",""
"","S1","","html-keyboard-response","142","223454","0.0-1.0-191.0","0","0","19149","","null","","","null","21","","","","","","","","","","","","","","","",""
"","ISI","","html-keyboard-response","143","223608","0.0-1.0-192.0","0","0","19149","","null","","","null","21","NaN","","","","","","","","","","","","","","",""
"","S2","","html-keyboard-response","144","223863","0.0-1.0-193.0","0","0","19149","","null","","","null","21","","NaN","","","","","","","","","","","","","",""
"","response","","html-keyboard-response","145","224774","0.0-1.0-194.0-0.0","0","0","19149","","907","","","68","21","","","1","21","training","adjacent","GF","7","6","M.jpg","R.jpg","0","0","1","",""
"","feedback","","html-keyboard-response","146","225796","0.0-1.0-195.0-0.0","0","0","19149","","null","","","null","21","","","","","","","","","","","","","","","",""
"","ITI","","html-keyboard-response","147","226807","0.0-1.0-198.0","0","0","19149","","null","","","null","21","","","","","","","","","","","","","","","NaN",""
"","S1","","html-keyboard-response","148","227063","0.0-1.0-200.0","0","0","19149","","null","","","null","22","","","","","","","","","","","","","","","",""
"","ISI","","html-keyboard-response","149","227222","0.0-1.0-201.0","0","0","19149","","null","","","null","22","NaN","","","","","","","","","","","","","","",""
"","S2","","html-keyboard-response","150","227481","0.0-1.0-202.0","0","0","19149","","null","","","null","22","","NaN","","","","","","","","","","","","","",""
"","response","","html-keyboard-response","151","228450","0.0-1.0-203.0-0.0","0","0","19149","","964","","","75","22","","","1","22","training","adjacent","BA","2","1","N.jpg","L.jpg","1","0","0","",""
"","feedback","","html-keyboard-response","152","229454","0.0-1.0-204.0-0.0","0","0","19149","","null","","","null","22","","","","","","","","","","","","","","","",""
"","time_out","","html-keyboard-response","153","231468","0.0-1.0-206.0-0.0","0","0","19149","","null","","","null","22","","","","","","","","","","","","","","","",""
"","ITI","","html-keyboard-response","154","232478","0.0-1.0-207.0","0","0","19149","","null","","","null","22","","","","","","","","","","","","","","","NaN",""
"","S1","","html-keyboard-response","155","232738","0.0-1.0-209.0","0","0","19149","","null","","","null","23","","","","","","","","","","","","","","","",""
"","ISI","","html-keyboard-response","156","232893","0.0-1.0-210.0","0","0","19149","","87","","","75","23","k","","","","","","","","","","","","","","",""
"","S2","","html-keyboard-response","157","233156","0.0-1.0-211.0","0","0","19149","","null","","","null","23","","NaN","","","","","","","","","","","","","",""
"","response","","html-keyboard-response","158","233896","0.0-1.0-212.0-0.0","0","0","19149","","736","","","75","23","","","1","23","training","adjacent","DC","4","3","Q.jpg","P.jpg","1","0","0","",""
"","feedback","","html-keyboard-response","159","234904","0.0-1.0-213.0-0.0","0","0","19149","","null","","","null","23","","","","","","","","","","","","","","","",""
"","time_out","","html-keyboard-response","160","236910","0.0-1.0-215.0-0.0","0","0","19149","","null","","","null","23","","","","","","","","","","","","","","","",""
"","ITI","","html-keyboard-response","161","237922","0.0-1.0-216.0","0","0","19149","","null","","","null","23","","","","","","","","","","","","","","","NaN",""
"","S1","","html-keyboard-response","162","238184","0.0-1.0-218.0","0","0","19149","","null","","","null","24","","","","","","","","","","","","","","","",""
"","ISI","","html-keyboard-response","163","238348","0.0-1.0-219.0","0","0","19149","","null","","","null","24","NaN","","","","","","","","","","","","","","",""
"","S2","","html-keyboard-response","164","238606","0.0-1.0-220.0","0","0","19149","","null","","","null","24","","NaN","","","","","","","","","","","","","",""
"","response","","html-keyboard-response","165","239199","0.0-1.0-221.0-0.0","0","0","19149","","589","","","68","24","","","1","24","training","adjacent","BC","2","3","N.jpg","P.jpg","0","1","0","",""
"","feedback","","html-keyboard-response","166","240218","0.0-1.0-222.0-0.0","0","0","19149","","null","","","null","24","","","","","","","","","","","","","","","",""
"","time_out","","html-keyboard-response","167","242227","0.0-1.0-224.0-0.0","0","0","19149","","null","","","null","24","","","","","","","","","","","","","","","",""
"","ITI","","html-keyboard-response","168","243242","0.0-1.0-225.0","0","0","19149","","null","","","null","24","","","","","","","","","","","","","","","NaN",""
"","S1","","html-keyboard-response","169","243502","0.0-1.0-227.0","0","0","19149","","null","","","null","25","","","","","","","","","","","","","","","",""
"","ISI","","html-keyboard-response","170","243672","0.0-1.0-228.0","0","0","19149","","null","","","null","25","NaN","","","","","","","","","","","","","","",""
"","S2","","html-keyboard-response","171","243927","0.0-1.0-229.0","0","0","19149","","null","","","null","25","","NaN","","","","","","","","","","","","","",""
"","response","","html-keyboard-response","172","244510","0.0-1.0-230.0-0.0","0","0","19149","","579","","","75","25","","","1","25","training","adjacent","AB","1","2","L.jpg","N.jpg","1","1","1","",""
"","feedback","","html-keyboard-response","173","245520","0.0-1.0-231.0-0.0","0","0","19149","","null","","","null","25","","","","","","","","","","","","","","","",""
"","ITI","","html-keyboard-response","174","246530","0.0-1.0-234.0","0","0","19149","","null","","","null","25","","","","","","","","","","","","","","","NaN",""
"","S1","","html-keyboard-response","175","246793","0.0-1.0-236.0","0","0","19149","","null","","","null","26","","","","","","","","","","","","","","","",""
"","ISI","","html-keyboard-response","176","246953","0.0-1.0-237.0","0","0","19149","","null","","","null","26","NaN","","","","","","","","","","","","","","",""
"","S2","","html-keyboard-response","177","247217","0.0-1.0-238.0","0","0","19149","","null","","","null","26","","NaN","","","","","","","","","","","","","",""
"","response","","html-keyboard-response","178","247777","0.0-1.0-239.0-0.0","0","0","19149","","556","","","68","26","","","1","26","training","adjacent","FE","6","5","R.jpg","O.jpg","0","0","1","",""
"","feedback","","html-keyboard-response","179","248785","0.0-1.0-240.0-0.0","0","0","19149","","null","","","null","26","","","","","","","","","","","","","","","",""
"","ITI","","html-keyboard-response","180","249800","0.0-1.0-243.0","0","0","19149","","null","","","null","26","","","","","","","","","","","","","","","NaN",""
"","S1","","html-keyboard-response","181","250063","0.0-1.0-245.0","0","0","19149","","null","","","null","27","","","","","","","","","","","","","","","",""
"","ISI","","html-keyboard-response","182","250233","0.0-1.0-246.0","0","0","19149","","null","","","null","27","NaN","","","","","","","","","","","","","","",""
"","S2","","html-keyboard-response","183","250496","0.0-1.0-247.0","0","0","19149","","null","","","null","27","","NaN","","","","","","","","","","","","","",""
"","response","","html-keyboard-response","184","250875","0.0-1.0-248.0-0.0","0","0","19149","","375","","","68","27","","","1","27","training","adjacent","EF","5","6","O.jpg","R.jpg","0","1","0","",""
"","feedback","","html-keyboard-response","185","251884","0.0-1.0-249.0-0.0","0","0","19149","","null","","","null","27","","","","","","","","","","","","","","","",""
"","time_out","","html-keyboard-response","186","253894","0.0-1.0-251.0-0.0","0","0","19149","","null","","","null","27","","","","","","","","","","","","","","","",""
"","ITI","","html-keyboard-response","187","254898","0.0-1.0-252.0","0","0","19149","","null","","","null","27","","","","","","","","","","","","","","","NaN",""
"","S1","","html-keyboard-response","188","255154","0.0-1.0-254.0","0","0","19149","","null","","","null","28","","","","","","","","","","","","","","","",""
"","ISI","","html-keyboard-response","189","255315","0.0-1.0-255.0","0","0","19149","","null","","","null","28","NaN","","","","","","","","","","","","","","",""
"","S2","","html-keyboard-response","190","255573","0.0-1.0-256.0","0","0","19149","","null","","","null","28","","NaN","","","","","","","","","","","","","",""
"","response","","html-keyboard-response","191","256243","0.0-1.0-257.0-0.0","0","0","19149","","666","","","68","28","","","1","28","training","adjacent","AB","1","2","L.jpg","N.jpg","0","1","0","",""
"","feedback","","html-keyboard-response","192","257255","0.0-1.0-258.0-0.0","0","0","19149","","null","","","null","28","","","","","","","","","","","","","","","",""
"","time_out","","html-keyboard-response","193","259261","0.0-1.0-260.0-0.0","0","0","19149","","null","","","null","28","","","","","","","","","","","","","","","",""
"","ITI","","html-keyboard-response","194","260275","0.0-1.0-261.0","0","0","19149","","null","","","null","28","","","","","","","","","","","","","","","NaN",""
"","S1","","html-keyboard-response","195","260529","0.0-1.0-263.0","0","0","19149","","null","","","null","29","","","","","","","","","","","","","","","",""
"","ISI","","html-keyboard-response","196","260683","0.0-1.0-264.0","0","0","19149","","null","","","null","29","NaN","","","","","","","","","","","","","","",""
"","S2","","html-keyboard-response","197","260941","0.0-1.0-265.0","0","0","19149","","null","","","null","29","","NaN","","","","","","","","","","","","","",""
"","response","","html-keyboard-response","198","261489","0.0-1.0-266.0-0.0","0","0","19149","","544","","","75","29","","","1","29","training","adjacent","FG","6","7","R.jpg","M.jpg","1","1","1","",""
"","feedback","","html-keyboard-response","199","262503","0.0-1.0-267.0-0.0","0","0","19149","","null","","","null","29","","","","","","","","","","","","","","","",""
"","ITI","","html-keyboard-response","200","263516","0.0-1.0-270.0","0","0","19149","","null","","","null","29","","","","","","","","","","","","","","","NaN",""
"","S1","","html-keyboard-response","201","263777","0.0-1.0-272.0","0","0","19149","","null","","","null","30","","","","","","","","","","","","","","","",""
"","ISI","","html-keyboard-response","202","263933","0.0-1.0-273.0","0","0","19149","","null","","","null","30","NaN","","","","","","","","","","","","","","",""
"","S2","","html-keyboard-response","203","264189","0.0-1.0-274.0","0","0","19149","","null","","","null","30","","NaN","","","","","","","","","","","","","",""
"","response","","html-keyboard-response","204","264626","0.0-1.0-275.0-0.0","0","0","19149","","433","","","68","30","","","1","30","training","adjacent","AB","1","2","L.jpg","N.jpg","0","1","0","",""
"","feedback","","html-keyboard-response","205","265639","0.0-1.0-276.0-0.0","0","0","19149","","null","","","null","30","","","","","","","","","","","","","","","",""
"","time_out","","html-keyboard-response","206","267646","0.0-1.0-278.0-0.0","0","0","19149","","null","","","null","30","","","","","","","","","","","","","","","",""
"","ITI","","html-keyboard-response","207","268654","0.0-1.0-279.0","0","0","19149","","null","","","null","30","","","","","","","","","","","","","","","NaN",""
"","S1","","html-keyboard-response","208","268917","0.0-1.0-281.0","0","0","19149","","null","","","null","31","","","","","","","","","","","","","","","",""
"","ISI","","html-keyboard-response","209","269077","0.0-1.0-282.0","0","0","19149","","null","","","null","31","NaN","","","","","","","","","","","","","","",""
"","S2","","html-keyboard-response","210","269333","0.0-1.0-283.0","0","0","19149","","null","","","null","31","","NaN","","","","","","","","","","","","","",""
"","response","","html-keyboard-response","211","269720","0.0-1.0-284.0-0.0","0","0","19149","","383","","","75","31","","","1","31","training","adjacent","GF","7","6","M.jpg","R.jpg","1","0","0","",""
"","feedback","","html-keyboard-response","212","270731","0.0-1.0-285.0-0.0","0","0","19149","","null","","","null","31","","","","","","","","","","","","","","","",""
"","time_out","","html-keyboard-response","213","272738","0.0-1.0-287.0-0.0","0","0","19149","","null","","","null","31","","","","","","","","","","","","","","","",""
"","ITI","","html-keyboard-response","214","273743","0.0-1.0-288.0","0","0","19149","","null","","","null","31","","","","","","","","","","","","","","","NaN",""
"","S1","","html-keyboard-response","215","274001","0.0-1.0-290.0","0","0","19149","","null","","","null","32","","","","","","","","","","","","","","","",""
"","ISI","","html-keyboard-response","216","274163","0.0-1.0-291.0","0","0","19149","","null","","","null","32","NaN","","","","","","","","","","","","","","",""
"","S2","","html-keyboard-response","217","274426","0.0-1.0-292.0","0","0","19149","","null","","","null","32","","NaN","","","","","","","","","","","","","",""
"","response","","html-keyboard-response","218","274659","0.0-1.0-293.0-0.0","0","0","19149","","229","","","68","32","","","1","32","training","adjacent","ED","5","4","O.jpg","Q.jpg","0","0","1","",""
"","feedback","","html-keyboard-response","219","275675","0.0-1.0-294.0-0.0","0","0","19149","","null","","","null","32","","","","","","","","","","","","","","","",""
"","ITI","","html-keyboard-response","220","276685","0.0-1.0-297.0","0","0","19149","","null","","","null","32","","","","","","","","","","","","","","","NaN",""
"","S1","","html-keyboard-response","221","276942","0.0-1.0-299.0","0","0","19149","","null","","","null","33","","","","","","","","","","","","","","","",""
"","ISI","","html-keyboard-response","222","277104","0.0-1.0-300.0","0","0","19149","","null","","","null","33","NaN","","","","","","","","","","","","","","",""
"","S2","","html-keyboard-response","223","277359","0.0-1.0-301.0","0","0","19149","","null","","","null","33","","NaN","","","","","","","","","","","","","",""
"","response","","html-keyboard-response","224","277875","0.0-1.0-302.0-0.0","0","0","19149","","513","","","68","33","","","1","33","training","adjacent","BA","2","1","N.jpg","L.jpg","0","0","1","",""
"","feedback","","html-keyboard-response","225","278892","0.0-1.0-303.0-0.0","0","0","19149","","null","","","null","33","","","","","","","","","","","","","","","",""
"","ITI","","html-keyboard-response","226","279902","0.0-1.0-306.0","0","0","19149","","null","","","null","33","","","","","","","","","","","","","","","NaN",""
"","S1","","html-keyboard-response","227","280160","0.0-1.0-308.0","0","0","19149","","null","","","null","34","","","","","","","","","","","","","","","",""
"","ISI","","html-keyboard-response","228","280329","0.0-1.0-309.0","0","0","19149","","null","","","null","34","NaN","","","","","","","","","","","","","","",""
"","S2","","html-keyboard-response","229","280584","0.0-1.0-310.0","0","0","19149","","null","","","null","34","","NaN","","","","","","","","","","","","","",""
"","response","","html-keyboard-response","230","280952","0.0-1.0-311.0-0.0","0","0","19149","","364","","","75","34","","","1","34","training","adjacent","FE","6","5","R.jpg","O.jpg","1","0","0","",""
"","feedback","","html-keyboard-response","231","281966","0.0-1.0-312.0-0.0","0","0","19149","","null","","","null","34","","","","","","","","","","","","","","","",""
"","time_out","","html-keyboard-response","232","283977","0.0-1.0-314.0-0.0","0","0","19149","","null","","","null","34","","","","","","","","","","","","","","","",""
"","ITI","","html-keyboard-response","233","284983","0.0-1.0-315.0","0","0","19149","","null","","","null","34","","","","","","","","","","","","","","","NaN",""
"","S1","","html-keyboard-response","234","285240","0.0-1.0-317.0","0","0","19149","","null","","","null","35","","","","","","","","","","","","","","","",""
"","ISI","","html-keyboard-response","235","285402","0.0-1.0-318.0","0","0","19149","","null","","","null","35","NaN","","","","","","","","","","","","","","",""
"","S2","","html-keyboard-response","236","285666","0.0-1.0-319.0","0","0","19149","","null","","","null","35","","NaN","","","","","","","","","","","","","",""
"","response","","html-keyboard-response","237","285991","0.0-1.0-320.0-0.0","0","0","19149","","321","","","68","35","","","1","35","training","adjacent","GF","7","6","M.jpg","R.jpg","0","0","1","",""
"","feedback","","html-keyboard-response","238","286999","0.0-1.0-321.0-0.0","0","0","19149","","null","","","null","35","","","","","","","","","","","","","","","",""
"","ITI","","html-keyboard-response","239","288011","0.0-1.0-324.0","0","0","19149","","null","","","null","35","","","","","","","","","","","","","","","NaN",""
"","S1","","html-keyboard-response","240","288265","0.0-1.0-326.0","0","0","19149","","null","","","null","36","","","","","","","","","","","","","","","",""
"","ISI","","html-keyboard-response","241","288421","0.0-1.0-327.0","0","0","19149","","null","","","null","36","NaN","","","","","","","","","","","","","","",""
"","S2","","html-keyboard-response","242","288678","0.0-1.0-328.0","0","0","19149","","null","","","null","36","","NaN","","","","","","","","","","","","","",""
"","response","","html-keyboard-response","243","289031","0.0-1.0-329.0-0.0","0","0","19149","","349","","","68","36","","","1","36","training","adjacent","CB","3","2","P.jpg","N.jpg","0","0","1","",""
"","feedback","","html-keyboard-response","244","290044","0.0-1.0-330.0-0.0","0","0","19149","","null","","","null","36","","","","","","","","","","","","","","","",""
"","ITI","","html-keyboard-response","245","291060","0.0-1.0-333.0","0","0","19149","","null","","","null","36","","","","","","","","","","","","","","","NaN",""
"","S1","","html-keyboard-response","246","291322","0.0-1.0-335.0","0","0","19149","","null","","","null","37","","","","","","","","","","","","","","","",""
"","ISI","","html-keyboard-response","247","291491","0.0-1.0-336.0","0","0","19149","","null","","","null","37","NaN","","","","","","","","","","","","","","",""
"","S2","","html-keyboard-response","248","291751","0.0-1.0-337.0","0","0","19149","","null","","","null","37","","NaN","","","","","","","","","","","","","",""
"","response","","html-keyboard-response","249","292027","0.0-1.0-338.0-0.0","0","0","19149","","272","","","68","37","","","1","37","training","adjacent","CB","3","2","P.jpg","N.jpg","0","0","1","",""
"","feedback","","html-keyboard-response","250","293037","0.0-1.0-339.0-0.0","0","0","19149","","null","","","null","37","","","","","","","","","","","","","","","",""
"","ITI","","html-keyboard-response","251","294055","0.0-1.0-342.0","0","0","19149","","null","","","null","37","","","","","","","","","","","","","","","NaN",""
"","S1","","html-keyboard-response","252","294317","0.0-1.0-344.0","0","0","19149","","null","","","null","38","","","","","","","","","","","","","","","",""
"","ISI","","html-keyboard-response","253","294479","0.0-1.0-345.0","0","0","19149","","null","","","null","38","NaN","","","","","","","","","","","","","","",""
"","S2","","html-keyboard-response","254","294737","0.0-1.0-346.0","0","0","19149","","null","","","null","38","","NaN","","","","","","","","","","","","","",""
"","response","","html-keyboard-response","255","295037","0.0-1.0-347.0-0.0","0","0","19149","","297","","","68","38","","","1","38","training","adjacent","AB","1","2","L.jpg","N.jpg","0","1","0","",""
"","feedback","","html-keyboard-response","256","296043","0.0-1.0-348.0-0.0","0","0","19149","","null","","","null","38","","","","","","","","","","","","","","","",""
"","time_out","","html-keyboard-response","257","298050","0.0-1.0-350.0-0.0","0","0","19149","","null","","","null","38","","","","","","","","","","","","","","","",""
"","ITI","","html-keyboard-response","258","299055","0.0-1.0-351.0","0","0","19149","","null","","","null","38","","","","","","","","","","","","","","","NaN",""
"","S1","","html-keyboard-response","259","299324","0.0-1.0-353.0","0","0","19149","","null","","","null","39","","","","","","","","","","","","","","","",""
"","ISI","","html-keyboard-response","260","299478","0.0-1.0-354.0","0","0","19149","","null","","","null","39","NaN","","","","","","","","","","","","","","",""
"","S2","","html-keyboard-response","261","299737","0.0-1.0-355.0","0","0","19149","","null","","","null","39","","NaN","","","","","","","","","","","","","",""
"","response","","html-keyboard-response","262","300022","0.0-1.0-356.0-0.0","0","0","19149","","281","","","75","39","","","1","39","training","adjacent","DE","4","5","Q.jpg","O.jpg","1","1","1","",""
"","feedback","","html-keyboard-response","263","301029","0.0-1.0-357.0-0.0","0","0","19149","","null","","","null","39","","","","","","","","","","","","","","","",""
"","ITI","","html-keyboard-response","264","302042","0.0-1.0-360.0","0","0","19149","","null","","","null","39","","","","","","","","","","","","","","","NaN",""
"","S1","","html-keyboard-response","265","302304","0.0-1.0-362.0","0","0","19149","","null","","","null","40","","","","","","","","","","","","","","","",""
"","ISI","","html-keyboard-response","266","302467","0.0-1.0-363.0","0","0","19149","","null","","","null","40","NaN","","","","","","","","","","","","","","",""
"","S2","","html-keyboard-response","267","302732","0.0-1.0-364.0","0","0","19149","","null","","","null","40","","NaN","","","","","","","","","","","","","",""
"","response","","html-keyboard-response","268","303080","0.0-1.0-365.0-0.0","0","0","19149","","344","","","75","40","","","1","40","training","adjacent","FE","6","5","R.jpg","O.jpg","1","0","0","",""
"","feedback","","html-keyboard-response","269","304095","0.0-1.0-366.0-0.0","0","0","19149","","null","","","null","40","","","","","","","","","","","","","","","",""
"","time_out","","html-keyboard-response","270","306103","0.0-1.0-368.0-0.0","0","0","19149","","null","","","null","40","","","","","","","","","","","","","","","",""
"","ITI","","html-keyboard-response","271","307114","0.0-1.0-369.0","0","0","19149","","null","","","null","40","","","","","","","","","","","","","","","NaN",""
"","S1","","html-keyboard-response","272","307372","0.0-1.0-371.0","0","0","19149","","null","","","null","41","","","","","","","","","","","","","","","",""
"","ISI","","html-keyboard-response","273","307541","0.0-1.0-372.0","0","0","19149","","null","","","null","41","NaN","","","","","","","","","","","","","","",""
"","S2","","html-keyboard-response","274","307808","0.0-1.0-373.0","0","0","19149","","null","","","null","41","","NaN","","","","","","","","","","","","","",""
"","response","","html-keyboard-response","275","308083","0.0-1.0-374.0-0.0","0","0","19149","","271","","","68","41","","","1","41","training","adjacent","BA","2","1","N.jpg","L.jpg","0","0","1","",""
"","feedback","","html-keyboard-response","276","309094","0.0-1.0-375.0-0.0","0","0","19149","","null","","","null","41","","","","","","","","","","","","","","","",""
"","ITI","","html-keyboard-response","277","310106","0.0-1.0-378.0","0","0","19149","","null","","","null","41","","","","","","","","","","","","","","","NaN",""
"","S1","","html-keyboard-response","278","310363","0.0-1.0-380.0","0","0","19149","","null","","","null","42","","","","","","","","","","","","","","","",""
"","ISI","","html-keyboard-response","279","310517","0.0-1.0-381.0","0","0","19149","","null","","","null","42","NaN","","","","","","","","","","","","","","",""
"","S2","","html-keyboard-response","280","310784","0.0-1.0-382.0","0","0","19149","","null","","","null","42","","NaN","","","","","","","","","","","","","",""
"","response","","html-keyboard-response","281","311141","0.0-1.0-383.0-0.0","0","0","19149","","353","","","68","42","","","1","42","training","adjacent","BA","2","1","N.jpg","L.jpg","0","0","1","",""
"","feedback","","html-keyboard-response","282","312152","0.0-1.0-384.0-0.0","0","0","19149","","null","","","null","42","","","","","","","","","","","","","","","",""
"","ITI","","html-keyboard-response","283","313165","0.0-1.0-387.0","0","0","19149","","null","","","null","42","","","","","","","","","","","","","","","NaN",""
"","S1","","html-keyboard-response","284","313422","0.0-1.0-389.0","0","0","19149","","null","","","null","43","","","","","","","","","","","","","","","",""
"","ISI","","html-keyboard-response","285","313584","0.0-1.0-390.0","0","0","19149","","null","","","null","43","NaN","","","","","","","","","","","","","","",""
"","S2","","html-keyboard-response","286","313846","0.0-1.0-391.0","0","0","19149","","null","","","null","43","","NaN","","","","","","","","","","","","","",""
"","response","","html-keyboard-response","287","314350","0.0-1.0-392.0-0.0","0","0","19149","","500","","","68","43","","","1","43","training","adjacent","CB","3","2","P.jpg","N.jpg","0","0","1","",""
"","feedback","","html-keyboard-response","288","315359","0.0-1.0-393.0-0.0","0","0","19149","","null","","","null","43","","","","","","","","","","","","","","","",""
"","ITI","","html-keyboard-response","289","316364","0.0-1.0-396.0","0","0","19149","","null","","","null","43","","","","","","","","","","","","","","","NaN",""
"","S1","","html-keyboard-response","290","316627","0.0-1.0-398.0","0","0","19149","","null","","","null","44","","","","","","","","","","","","","","","",""
"","ISI","","html-keyboard-response","291","316781","0.0-1.0-399.0","0","0","19149","","null","","","null","44","NaN","","","","","","","","","","","","","","",""
"","S2","","html-keyboard-response","292","317037","0.0-1.0-400.0","0","0","19149","","null","","","null","44","","NaN","","","","","","","","","","","","","",""
"","response","","html-keyboard-response","293","317486","0.0-1.0-401.0-0.0","0","0","19149","","445","","","75","44","","","1","44","training","adjacent","FG","6","7","R.jpg","M.jpg","1","1","1","",""
"","feedback","","html-keyboard-response","294","318493","0.0-1.0-402.0-0.0","0","0","19149","","null","","","null","44","","","","","","","","","","","","","","","",""
"","ITI","","html-keyboard-response","295","319503","0.0-1.0-405.0","0","0","19149","","null","","","null","44","","","","","","","","","","","","","","","NaN",""
"","S1","","html-keyboard-response","296","319767","0.0-1.0-407.0","0","0","19149","","null","","","null","45","","","","","","","","","","","","","","","",""
"","ISI","","html-keyboard-response","297","319925","0.0-1.0-408.0","0","0","19149","","null","","","null","45","NaN","","","","","","","","","","","","","","",""
"","S2","","html-keyboard-response","298","320188","0.0-1.0-409.0","0","0","19149","","null","","","null","45","","NaN","","","","","","","","","","","","","",""
"","response","","html-keyboard-response","299","320459","0.0-1.0-410.0-0.0","0","0","19149","","267","","","75","45","","","1","45","training","adjacent","DE","4","5","Q.jpg","O.jpg","1","1","1","",""
"","feedback","","html-keyboard-response","300","321468","0.0-1.0-411.0-0.0","0","0","19149","","null","","","null","45","","","","","","","","","","","","","","","",""
"","ITI","","html-keyboard-response","301","322483","0.0-1.0-414.0","0","0","19149","","null","","","null","45","","","","","","","","","","","","","","","NaN",""
"","S1","","html-keyboard-response","302","322739","0.0-1.0-416.0","0","0","19149","","null","","","null","46","","","","","","","","","","","","","","","",""
"","ISI","","html-keyboard-response","303","322902","0.0-1.0-417.0","0","0","19149","","null","","","null","46","NaN","","","","","","","","","","","","","","",""
"","S2","","html-keyboard-response","304","323158","0.0-1.0-418.0","0","0","19149","","null","","","null","46","","NaN","","","","","","","","","","","","","",""
"","response","","html-keyboard-response","305","323914","0.0-1.0-419.0-0.0","0","0","19149","","753","","","68","46","","","1","46","training","adjacent","CD","3","4","P.jpg","Q.jpg","0","1","0","",""
"","feedback","","html-keyboard-response","306","324933","0.0-1.0-420.0-0.0","0","0","19149","","null","","","null","46","","","","","","","","","","","","","","","",""
"","time_out","","html-keyboard-response","307","326938","0.0-1.0-422.0-0.0","0","0","19149","","null","","","null","46","","","","","","","","","","","","","","","",""
"","ITI","","html-keyboard-response","308","327950","0.0-1.0-423.0","0","0","19149","","null","","","null","46","","","","","","","","","","","","","","","NaN",""
"","S1","","html-keyboard-response","309","328209","0.0-1.0-425.0","0","0","19149","","null","","","null","47","","","","","","","","","","","","","","","",""
"","ISI","","html-keyboard-response","310","328364","0.0-1.0-426.0","0","0","19149","","null","","","null","47","NaN","","","","","","","","","","","","","","",""
"","S2","","html-keyboard-response","311","328627","0.0-1.0-427.0","0","0","19149","","null","","","null","47","","NaN","","","","","","","","","","","","","",""
"","response","","html-keyboard-response","312","328936","0.0-1.0-428.0-0.0","0","0","19149","","305","","","75","47","","","1","47","training","adjacent","DC","4","3","Q.jpg","P.jpg","1","0","0","",""
"","feedback","","html-keyboard-response","313","329949","0.0-1.0-429.0-0.0","0","0","19149","","null","","","null","47","","","","","","","","","","","","","","","",""
"","time_out","","html-keyboard-response","314","331965","0.0-1.0-431.0-0.0","0","0","19149","","null","","","null","47","","","","","","","","","","","","","","","",""
"","ITI","","html-keyboard-response","315","332973","0.0-1.0-432.0","0","0","19149","","null","","","null","47","","","","","","","","","","","","","","","NaN",""
"","block_over","","html-keyboard-response","316","338195","0.0-1.0-433.0-0.0","0","0","19149","","5217","","","32","47","","","","","","","","","","","","","","","",""
"","S1","","html-keyboard-response","317","338455","0.0-1.0-434.0","0","0","19149","","null","","","null","48","","","","","","","","","","","","","","","",""
"","ISI","","html-keyboard-response","318","338611","0.0-1.0-435.0","0","0","19149","","null","","","null","48","NaN","","","","","","","","","","","","","","",""
"","S2","","html-keyboard-response","319","338877","0.0-1.0-436.0","0","0","19149","","null","","","null","48","","NaN","","","","","","","","","","","","","",""
"","response","","html-keyboard-response","320","339424","0.0-1.0-437.0-0.0","0","0","19149","","542","","","68","48","","","2","48","training","adjacent","CB","3","2","P.jpg","N.jpg","0","0","1","",""
"","feedback","","html-keyboard-response","321","340436","0.0-1.0-438.0-0.0","0","0","19149","","null","","","null","48","","","","","","","","","","","","","","","",""
"","ITI","","html-keyboard-response","322","341442","0.0-1.0-441.0","0","0","19149","","null","","","null","48","","","","","","","","","","","","","","","NaN",""
"","S1","","html-keyboard-response","323","341698","0.0-1.0-443.0","0","0","19149","","null","","","null","49","","","","","","","","","","","","","","","",""
"","ISI","","html-keyboard-response","324","341859","0.0-1.0-444.0","0","0","19149","","null","","","null","49","NaN","","","","","","","","","","","","","","",""
"","S2","","html-keyboard-response","325","342121","0.0-1.0-445.0","0","0","19149","","null","","","null","49","","NaN","","","","","","","","","","","","","",""
"","response","","html-keyboard-response","326","342674","0.0-1.0-446.0-0.0","0","0","19149","","550","","","75","49","","","2","49","training","adjacent","BC","2","3","N.jpg","P.jpg","1","1","1","",""
"","feedback","","html-keyboard-response","327","343682","0.0-1.0-447.0-0.0","0","0","19149","","null","","","null","49","","","","","","","","","","","","","","","",""
"","ITI","","html-keyboard-response","328","344697","0.0-1.0-450.0","0","0","19149","","null","","","null","49","","","","","","","","","","","","","","","NaN",""
"","S1","","html-keyboard-response","329","344956","0.0-1.0-452.0","0","0","19149","","null","","","null","50","","","","","","","","","","","","","","","",""
"","ISI","","html-keyboard-response","330","345118","0.0-1.0-453.0","0","0","19149","","null","","","null","50","NaN","","","","","","","","","","","","","","",""
"","S2","","html-keyboard-response","331","345381","0.0-1.0-454.0","0","0","19149","","null","","","null","50","","NaN","","","","","","","","","","","","","",""
"","response","","html-keyboard-response","332","345804","0.0-1.0-455.0-0.0","0","0","19149","","420","","","75","50","","","2","50","training","adjacent","BC","2","3","N.jpg","P.jpg","1","1","1","",""
"","feedback","","html-keyboard-response","333","346816","0.0-1.0-456.0-0.0","0","0","19149","","null","","","null","50","","","","","","","","","","","","","","","",""
"","ITI","","html-keyboard-response","334","347829","0.0-1.0-459.0","0","0","19149","","null","","","null","50","","","","","","","","","","","","","","","NaN",""
"","S1","","html-keyboard-response","335","348091","0.0-1.0-461.0","0","0","19149","","null","","","null","51","","","","","","","","","","","","","","","",""
"","ISI","","html-keyboard-response","336","348251","0.0-1.0-462.0","0","0","19149","","null","","","null","51","NaN","","","","","","","","","","","","","","",""
"","S2","","html-keyboard-response","337","348518","0.0-1.0-463.0","0","0","19149","","null","","","null","51","","NaN","","","","","","","","","","","","","",""
"","response","","html-keyboard-response","338","348811","0.0-1.0-464.0-0.0","0","0","19149","","289","","","75","51","","","2","51","training","adjacent","BC","2","3","N.jpg","P.jpg","1","1","1","",""
"","feedback","","html-keyboard-response","339","349822","0.0-1.0-465.0-0.0","0","0","19149","","null","","","null","51","","","","","","","","","","","","","","","",""
"","ITI","","html-keyboard-response","340","350828","0.0-1.0-468.0","0","0","19149","","null","","","null","51","","","","","","","","","","","","","","","NaN",""
"","S1","","html-keyboard-response","341","351085","0.0-1.0-470.0","0","0","19149","","null","","","null","52","","","","","","","","","","","","","","","",""
"","ISI","","html-keyboard-response","342","351248","0.0-1.0-471.0","0","0","19149","","null","","","null","52","NaN","","","","","","","","","","","","","","",""
"","S2","","html-keyboard-response","343","351505","0.0-1.0-472.0","0","0","19149","","null","","","null","52","","NaN","","","","","","","","","","","","","",""
"","response","","html-keyboard-response","344","351865","0.0-1.0-473.0-0.0","0","0","19149","","356","","","68","52","","","2","52","training","adjacent","AB","1","2","L.jpg","N.jpg","0","1","0","",""
"","feedback","","html-keyboard-response","345","352878","0.0-1.0-474.0-0.0","0","0","19149","","null","","","null","52","","","","","","","","","","","","","","","",""
"","time_out","","html-keyboard-response","346","354890","0.0-1.0-476.0-0.0","0","0","19149","","null","","","null","52","","","","","","","","","","","","","","","",""
"","ITI","","html-keyboard-response","347","355898","0.0-1.0-477.0","0","0","19149","","null","","","null","52","","","","","","","","","","","","","","","NaN",""
"","S1","","html-keyboard-response","348","356153","0.0-1.0-479.0","0","0","19149","","null","","","null","53","","","","","","","","","","","","","","","",""
"","ISI","","html-keyboard-response","349","356307","0.0-1.0-480.0","0","0","19149","","null","","","null","53","NaN","","","","","","","","","","","","","","",""
"","S2","","html-keyboard-response","350","356571","0.0-1.0-481.0","0","0","19149","","null","","","null","53","","NaN","","","","","","","","","","","","","",""
"","response","","html-keyboard-response","351","356901","0.0-1.0-482.0-0.0","0","0","19149","","326","","","75","53","","","2","53","training","adjacent","GF","7","6","M.jpg","R.jpg","1","0","0","",""
"","feedback","","html-keyboard-response","352","357908","0.0-1.0-483.0-0.0","0","0","19149","","null","","","null","53","","","","","","","","","","","","","","","",""
"","time_out","","html-keyboard-response","353","359914","0.0-1.0-485.0-0.0","0","0","19149","","null","","","null","53","","","","","","","","","","","","","","","",""
"","ITI","","html-keyboard-response","354","360919","0.0-1.0-486.0","0","0","19149","","null","","","null","53","","","","","","","","","","","","","","","NaN",""
"","S1","","html-keyboard-response","355","361175","0.0-1.0-488.0","0","0","19149","","null","","","null","54","","","","","","","","","","","","","","","",""
"","ISI","","html-keyboard-response","356","361336","0.0-1.0-489.0","0","0","19149","","null","","","null","54","NaN","","","","","","","","","","","","","","",""
"","S2","","html-keyboard-response","357","361592","0.0-1.0-490.0","0","0","19149","","null","","","null","54","","NaN","","","","","","","","","","","","","",""
"","response","","html-keyboard-response","358","361872","0.0-1.0-491.0-0.0","0","0","19149","","276","","","68","54","","","2","54","training","adjacent","CD","3","4","P.jpg","Q.jpg","0","1","0","",""
"","feedback","","html-keyboard-response","359","362885","0.0-1.0-492.0-0.0","0","0","19149","","null","","","null","54","","","","","","","","","","","","","","","",""
"","time_out","","html-keyboard-response","360","364902","0.0-1.0-494.0-0.0","0","0","19149","","null","","","null","54","","","","","","","","","","","","","","","",""
"","ITI","","html-keyboard-response","361","365910","0.0-1.0-495.0","0","0","19149","","null","","","null","54","","","","","","","","","","","","","","","NaN",""
"","S1","","html-keyboard-response","362","366167","0.0-1.0-497.0","0","0","19149","","null","","","null","55","","","","","","","","","","","","","","","",""
"","ISI","","html-keyboard-response","363","366321","0.0-1.0-498.0","0","0","19149","","null","","","null","55","NaN","","","","","","","","","","","","","","",""
"","S2","","html-keyboard-response","364","366584","0.0-1.0-499.0","0","0","19149","","null","","","null","55","","NaN","","","","","","","","","","","","","",""
"","response","","html-keyboard-response","365","366963","0.0-1.0-500.0-0.0","0","0","19149","","375","","","75","55","","","2","55","training","adjacent","BA","2","1","N.jpg","L.jpg","1","0","0","",""
"","feedback","","html-keyboard-response","366","367972","0.0-1.0-501.0-0.0","0","0","19149","","null","","","null","55","","","","","","","","","","","","","","","",""
"","time_out","","html-keyboard-response","367","369978","0.0-1.0-503.0-0.0","0","0","19149","","null","","","null","55","","","","","","","","","","","","","","","",""
"","ITI","","html-keyboard-response","368","370989","0.0-1.0-504.0","0","0","19149","","null","","","null","55","","","","","","","","","","","","","","","NaN",""
"","S1","","html-keyboard-response","369","371244","0.0-1.0-506.0","0","0","19149","","null","","","null","56","","","","","","","","","","","","","","","",""
"","ISI","","html-keyboard-response","370","371400","0.0-1.0-507.0","0","0","19149","","null","","","null","56","NaN","","","","","","","","","","","","","","",""
"","S2","","html-keyboard-response","371","371655","0.0-1.0-508.0","0","0","19149","","null","","","null","56","","NaN","","","","","","","","","","","","","",""
"","response","","html-keyboard-response","372","371921","0.0-1.0-509.0-0.0","0","0","19149","","262","","","68","56","","","2","56","training","adjacent","FG","6","7","R.jpg","M.jpg","0","1","0","",""
"","feedback","","html-keyboard-response","373","372928","0.0-1.0-510.0-0.0","0","0","19149","","null","","","null","56","","","","","","","","","","","","","","","",""
"","time_out","","html-keyboard-response","374","374933","0.0-1.0-512.0-0.0","0","0","19149","","null","","","null","56","","","","","","","","","","","","","","","",""
"","ITI","","html-keyboard-response","375","375944","0.0-1.0-513.0","0","0","19149","","null","","","null","56","","","","","","","","","","","","","","","NaN",""
"","S1","","html-keyboard-response","376","376201","0.0-1.0-515.0","0","0","19149","","null","","","null","57","","","","","","","","","","","","","","","",""
"","ISI","","html-keyboard-response","377","376356","0.0-1.0-516.0","0","0","19149","","null","","","null","57","NaN","","","","","","","","","","","","","","",""
"","S2","","html-keyboard-response","378","376619","0.0-1.0-517.0","0","0","19149","","null","","","null","57","","NaN","","","","","","","","","","","","","",""
"","response","","html-keyboard-response","379","376856","0.0-1.0-518.0-0.0","0","0","19149","","233","","","75","57","","","2","57","training","adjacent","EF","5","6","O.jpg","R.jpg","1","1","1","",""
"","feedback","","html-keyboard-response","380","377869","0.0-1.0-519.0-0.0","0","0","19149","","null","","","null","57","","","","","","","","","","","","","","","",""
"","ITI","","html-keyboard-response","381","378878","0.0-1.0-522.0","0","0","19149","","null","","","null","57","","","","","","","","","","","","","","","NaN",""
"","S1","","html-keyboard-response","382","379142","0.0-1.0-524.0","0","0","19149","","null","","","null","58","","","","","","","","","","","","","","","",""
"","ISI","","html-keyboard-response","383","379303","0.0-1.0-525.0","0","0","19149","","null","","","null","58","NaN","","","","","","","","","","","","","","",""
"","S2","","html-keyboard-response","384","379563","0.0-1.0-526.0","0","0","19149","","null","","","null","58","","NaN","","","","","","","","","","","","","",""
"","response","","html-keyboard-response","385","379753","0.0-1.0-527.0-0.0","0","0","19149","","187","","","75","58","","","2","58","training","adjacent","DC","4","3","Q.jpg","P.jpg","1","0","0","",""
"","feedback","","html-keyboard-response","386","380765","0.0-1.0-528.0-0.0","0","0","19149","","null","","","null","58","","","","","","","","","","","","","","","",""
"","time_out","","html-keyboard-response","387","382778","0.0-1.0-530.0-0.0","0","0","19149","","null","","","null","58","","","","","","","","","","","","","","","",""
"","ITI","","html-keyboard-response","388","383784","0.0-1.0-531.0","0","0","19149","","null","","","null","58","","","","","","","","","","","","","","","NaN",""
"","S1","","html-keyboard-response","389","384041","0.0-1.0-533.0","0","0","19149","","null","","","null","59","","","","","","","","","","","","","","","",""
"","ISI","","html-keyboard-response","390","384199","0.0-1.0-534.0","0","0","19149","","null","","","null","59","NaN","","","","","","","","","","","","","","",""
"","S2","","html-keyboard-response","391","384457","0.0-1.0-535.0","0","0","19149","","null","","","null","59","","NaN","","","","","","","","","","","","","",""
"","response","","html-keyboard-response","392","384747","0.0-1.0-536.0-0.0","0","0","19149","","285","","","68","59","","","2","59","training","adjacent","FE","6","5","R.jpg","O.jpg","0","0","1","",""
"","feedback","","html-keyboard-response","393","385760","0.0-1.0-537.0-0.0","0","0","19149","","null","","","null","59","","","","","","","","","","","","","","","",""
"","ITI","","html-keyboard-response","394","386765","0.0-1.0-540.0","0","0","19149","","null","","","null","59","","","","","","","","","","","","","","","NaN",""
"","S1","","html-keyboard-response","395","387025","0.0-1.0-542.0","0","0","19149","","null","","","null","60","","","","","","","","","","","","","","","",""
"","ISI","","html-keyboard-response","396","387185","0.0-1.0-543.0","0","0","19149","","null","","","null","60","NaN","","","","","","","","","","","","","","",""
"","S2","","html-keyboard-response","397","387448","0.0-1.0-544.0","0","0","19149","","null","","","null","60","","NaN","","","","","","","","","","","","","",""
"","response","","html-keyboard-response","398","387882","0.0-1.0-545.0-0.0","0","0","19149","","431","","","68","60","","","2","60","training","adjacent","CB","3","2","P.jpg","N.jpg","0","0","1","",""
"","feedback","","html-keyboard-response","399","388895","0.0-1.0-546.0-0.0","0","0","19149","","null","","","null","60","","","","","","","","","","","","","","","",""
"","ITI","","html-keyboard-response","400","389906","0.0-1.0-549.0","0","0","19149","","null","","","null","60","","","","","","","","","","","","","","","NaN",""
"","S1","","html-keyboard-response","401","390164","0.0-1.0-551.0","0","0","19149","","null","","","null","61","","","","","","","","","","","","","","","",""
"","ISI","","html-keyboard-response","402","390333","0.0-1.0-552.0","0","0","19149","","null","","","null","61","NaN","","","","","","","","","","","","","","",""
"","S2","","html-keyboard-response","403","390588","0.0-1.0-553.0","0","0","19149","","null","","","null","61","","NaN","","","","","","","","","","","","","",""
"","response","","html-keyboard-response","404","390851","0.0-1.0-554.0-0.0","0","0","19149","","258","","","75","61","","","2","61","training","adjacent","FG","6","7","R.jpg","M.jpg","1","1","1","",""
"","feedback","","html-keyboard-response","405","391858","0.0-1.0-555.0-0.0","0","0","19149","","null","","","null","61","","","","","","","","","","","","","","","",""
"","ITI","","html-keyboard-response","406","392871","0.0-1.0-558.0","0","0","19149","","null","","","null","61","","","","","","","","","","","","","","","NaN",""
"","S1","","html-keyboard-response","407","393135","0.0-1.0-560.0","0","0","19149","","null","","","null","62","","","","","","","","","","","","","","","",""
"","ISI","","html-keyboard-response","408","393294","0.0-1.0-561.0","0","0","19149","","null","","","null","62","NaN","","","","","","","","","","","","","","",""
"","S2","","html-keyboard-response","409","393551","0.0-1.0-562.0","0","0","19149","","null","","","null","62","","NaN","","","","","","","","","","","","","",""
"","response","","html-keyboard-response","410","393949","0.0-1.0-563.0-0.0","0","0","19149","","394","","","75","62","","","2","62","training","adjacent","AB","1","2","L.jpg","N.jpg","1","1","1","",""
"","feedback","","html-keyboard-response","411","394964","0.0-1.0-564.0-0.0","0","0","19149","","null","","","null","62","","","","","","","","","","","","","","","",""
"","ITI","","html-keyboard-response","412","395984","0.0-1.0-567.0","0","0","19149","","null","","","null","62","","","","","","","","","","","","","","","NaN",""
"","S1","","html-keyboard-response","413","396242","0.0-1.0-569.0","0","0","19149","","null","","","null","63","","","","","","","","","","","","","","","",""
"","ISI","","html-keyboard-response","414","396411","0.0-1.0-570.0","0","0","19149","","null","","","null","63","NaN","","","","","","","","","","","","","","",""
"","S2","","html-keyboard-response","415","396672","0.0-1.0-571.0","0","0","19149","","null","","","null","63","","NaN","","","","","","","","","","","","","",""
"","response","","html-keyboard-response","416","396938","0.0-1.0-572.0-0.0","0","0","19149","","262","","","75","63","","","2","63","training","adjacent","EF","5","6","O.jpg","R.jpg","1","1","1","",""
"","feedback","","html-keyboard-response","417","397956","0.0-1.0-573.0-0.0","0","0","19149","","null","","","null","63","","","","","","","","","","","","","","","",""
"","ITI","","html-keyboard-response","418","398963","0.0-1.0-576.0","0","0","19149","","null","","","null","63","","","","","","","","","","","","","","","NaN",""
"","S1","","html-keyboard-response","419","399219","0.0-1.0-578.0","0","0","19149","","null","","","null","64","","","","","","","","","","","","","","","",""
"","ISI","","html-keyboard-response","420","399381","0.0-1.0-579.0","0","0","19149","","null","","","null","64","NaN","","","","","","","","","","","","","","",""
"","S2","","html-keyboard-response","421","399645","0.0-1.0-580.0","0","0","19149","","null","","","null","64","","NaN","","","","","","","","","","","","","",""
"","response","","html-keyboard-response","422","399729","0.0-1.0-581.0-0.0","0","0","19149","","80","","","75","64","","","2","64","training","adjacent","BA","2","1","N.jpg","L.jpg","1","0","0","",""
"","feedback","","html-keyboard-response","423","400737","0.0-1.0-582.0-0.0","0","0","19149","","null","","","null","64","","","","","","","","","","","","","","","",""
"","time_out","","html-keyboard-response","424","402744","0.0-1.0-584.0-0.0","0","0","19149","","null","","","null","64","","","","","","","","","","","","","","","",""
"","ITI","","html-keyboard-response","425","403754","0.0-1.0-585.0","0","0","19149","","null","","","null","64","","","","","","","","","","","","","","","NaN",""
"","S1","","html-keyboard-response","426","404010","0.0-1.0-587.0","0","0","19149","","null","","","null","65","","","","","","","","","","","","","","","",""
"","ISI","","html-keyboard-response","427","404181","0.0-1.0-588.0","0","0","19149","","null","","","null","65","NaN","","","","","","","","","","","","","","",""
"","S2","","html-keyboard-response","428","404445","0.0-1.0-589.0","0","0","19149","","null","","","null","65","","NaN","","","","","","","","","","","","","",""
"","response","","html-keyboard-response","429","404670","0.0-1.0-590.0-0.0","0","0","19149","","221","","","68","65","","","2","65","training","adjacent","FE","6","5","R.jpg","O.jpg","0","0","1","",""
"","feedback","","html-keyboard-response","430","405683","0.0-1.0-591.0-0.0","0","0","19149","","null","","","null","65","","","","","","","","","","","","","","","",""
"","ITI","","html-keyboard-response","431","406699","0.0-1.0-594.0","0","0","19149","","null","","","null","65","","","","","","","","","","","","","","","NaN",""
"","S1","","html-keyboard-response","432","406963","0.0-1.0-596.0","0","0","19149","","null","","","null","66","","","","","","","","","","","","","","","",""
"","ISI","","html-keyboard-response","433","407125","0.0-1.0-597.0","0","0","19149","","null","","","null","66","NaN","","","","","","","","","","","","","","",""
"","S2","","html-keyboard-response","434","407397","0.0-1.0-598.0","0","0","19149","","null","","","null","66","","NaN","","","","","","","","","","","","","",""
"","response","","html-keyboard-response","435","407703","0.0-1.0-599.0-0.0","0","0","19149","","302","","","75","66","","","2","66","training","adjacent","DE","4","5","Q.jpg","O.jpg","1","1","1","",""
"","feedback","","html-keyboard-response","436","408716","0.0-1.0-600.0-0.0","0","0","19149","","null","","","null","66","","","","","","","","","","","","","","","",""
"","ITI","","html-keyboard-response","437","409728","0.0-1.0-603.0","0","0","19149","","null","","","null","66","","","","","","","","","","","","","","","NaN",""
"","S1","","html-keyboard-response","438","409985","0.0-1.0-605.0","0","0","19149","","null","","","null","67","","","","","","","","","","","","","","","",""
"","ISI","","html-keyboard-response","439","410145","0.0-1.0-606.0","0","0","19149","","null","","","null","67","NaN","","","","","","","","","","","","","","",""
"","S2","","html-keyboard-response","440","410402","0.0-1.0-607.0","0","0","19149","","null","","","null","67","","NaN","","","","","","","","","","","","","",""
"","response","","html-keyboard-response","441","410755","0.0-1.0-608.0-0.0","0","0","19149","","350","","","75","67","","","2","67","training","adjacent","BC","2","3","N.jpg","P.jpg","1","1","1","",""
"","feedback","","html-keyboard-response","442","411765","0.0-1.0-609.0-0.0","0","0","19149","","null","","","null","67","","","","","","","","","","","","","","","",""
"","ITI","","html-keyboard-response","443","412782","0.0-1.0-612.0","0","0","19149","","null","","","null","67","","","","","","","","","","","","","","","NaN",""
"","S1","","html-keyboard-response","444","413037","0.0-1.0-614.0","0","0","19149","","null","","","null","68","","","","","","","","","","","","","","","",""
"","ISI","","html-keyboard-response","445","413197","0.0-1.0-615.0","0","0","19149","","null","","","null","68","NaN","","","","","","","","","","","","","","",""
"","S2","","html-keyboard-response","446","413459","0.0-1.0-616.0","0","0","19149","","null","","","null","68","","NaN","","","","","","","","","","","","","",""
"","response","","html-keyboard-response","447","413711","0.0-1.0-617.0-0.0","0","0","19149","","248","","","75","68","","","2","68","training","adjacent","DE","4","5","Q.jpg","O.jpg","1","1","1","",""
"","feedback","","html-keyboard-response","448","414717","0.0-1.0-618.0-0.0","0","0","19149","","null","","","null","68","","","","","","","","","","","","","","","",""
"","ITI","","html-keyboard-response","449","415727","0.0-1.0-621.0","0","0","19149","","null","","","null","68","","","","","","","","","","","","","","","NaN",""
"","S1","","html-keyboard-response","450","415984","0.0-1.0-623.0","0","0","19149","","null","","","null","69","","","","","","","","","","","","","","","",""
"","ISI","","html-keyboard-response","451","416152","0.0-1.0-624.0","0","0","19149","","null","","","null","69","NaN","","","","","","","","","","","","","","",""
"","S2","","html-keyboard-response","452","416417","0.0-1.0-625.0","0","0","19149","","null","","","null","69","","NaN","","","","","","","","","","","","","",""
"","response","","html-keyboard-response","453","416651","0.0-1.0-626.0-0.0","0","0","19149","","230","","","75","69","","","2","69","training","adjacent","EF","5","6","O.jpg","R.jpg","1","1","1","",""
"","feedback","","html-keyboard-response","454","417673","0.0-1.0-627.0-0.0","0","0","19149","","null","","","null","69","","","","","","","","","","","","","","","",""
"","ITI","","html-keyboard-response","455","418681","0.0-1.0-630.0","0","0","19149","","null","","","null","69","","","","","","","","","","","","","","","NaN",""
"","S1","","html-keyboard-response","456","418944","0.0-1.0-632.0","0","0","19149","","null","","","null","70","","","","","","","","","","","","","","","",""
"","ISI","","html-keyboard-response","457","419098","0.0-1.0-633.0","0","0","19149","","null","","","null","70","NaN","","","","","","","","","","","","","","",""
"","S2","","html-keyboard-response","458","419361","0.0-1.0-634.0","0","0","19149","","null","","","null","70","","NaN","","","","","","","","","","","","","",""
"","response","","html-keyboard-response","459","419627","0.0-1.0-635.0-0.0","0","0","19149","","263","","","75","70","","","2","70","training","adjacent","FG","6","7","R.jpg","M.jpg","1","1","1","",""
"","feedback","","html-keyboard-response","460","420635","0.0-1.0-636.0-0.0","0","0","19149","","null","","","null","70","","","","","","","","","","","","","","","",""
"","ITI","","html-keyboard-response","461","421644","0.0-1.0-639.0","0","0","19149","","null","","","null","70","","","","","","","","","","","","","","","NaN",""
"","S1","","html-keyboard-response","462","421906","0.0-1.0-641.0","0","0","19149","","null","","","null","71","","","","","","","","","","","","","","","",""
"","ISI","","html-keyboard-response","463","422069","0.0-1.0-642.0","0","0","19149","","null","","","null","71","NaN","","","","","","","","","","","","","","",""
"","S2","","html-keyboard-response","464","422331","0.0-1.0-643.0","0","0","19149","","null","","","null","71","","NaN","","","","","","","","","","","","","",""
"","response","","html-keyboard-response","465","422522","0.0-1.0-644.0-0.0","0","0","19149","","186","","","75","71","","","2","71","training","adjacent","DE","4","5","Q.jpg","O.jpg","1","1","1","",""
"","feedback","","html-keyboard-response","466","423537","0.0-1.0-645.0-0.0","0","0","19149","","null","","","null","71","","","","","","","","","","","","","","","",""
"","ITI","","html-keyboard-response","467","424548","0.0-1.0-648.0","0","0","19149","","null","","","null","71","","","","","","","","","","","","","","","NaN",""
"","S1","","html-keyboard-response","468","424806","0.0-1.0-650.0","0","0","19149","","null","","","null","72","","","","","","","","","","","","","","","",""
"","ISI","","html-keyboard-response","469","424968","0.0-1.0-651.0","0","0","19149","","null","","","null","72","NaN","","","","","","","","","","","","","","",""
"","S2","","html-keyboard-response","470","425223","0.0-1.0-652.0","0","0","19149","","null","","","null","72","","NaN","","","","","","","","","","","","","",""
"","response","","html-keyboard-response","471","425501","0.0-1.0-653.0-0.0","0","0","19149","","272","","","75","72","","","2","72","training","adjacent","CB","3","2","P.jpg","N.jpg","1","0","0","",""
"","feedback","","html-keyboard-response","472","426513","0.0-1.0-654.0-0.0","0","0","19149","","null","","","null","72","","","","","","","","","","","","","","","",""
"","time_out","","html-keyboard-response","473","428522","0.0-1.0-656.0-0.0","0","0","19149","","null","","","null","72","","","","","","","","","","","","","","","",""
"","ITI","","html-keyboard-response","474","429527","0.0-1.0-657.0","0","0","19149","","null","","","null","72","","","","","","","","","","","","","","","NaN",""
"","S1","","html-keyboard-response","475","429796","0.0-1.0-659.0","0","0","19149","","null","","","null","73","","","","","","","","","","","","","","","",""
"","ISI","","html-keyboard-response","476","429958","0.0-1.0-660.0","0","0","19149","","null","","","null","73","NaN","","","","","","","","","","","","","","",""
"","S2","","html-keyboard-response","477","430214","0.0-1.0-661.0","0","0","19149","","null","","","null","73","","NaN","","","","","","","","","","","","","",""
"","response","","html-keyboard-response","478","430560","0.0-1.0-662.0-0.0","0","0","19149","","343","","","68","73","","","2","73","training","adjacent","CD","3","4","P.jpg","Q.jpg","0","1","0","",""
"","feedback","","html-keyboard-response","479","431572","0.0-1.0-663.0-0.0","0","0","19149","","null","","","null","73","","","","","","","","","","","","","","","",""
"","time_out","","html-keyboard-response","480","433583","0.0-1.0-665.0-0.0","0","0","19149","","null","","","null","73","","","","","","","","","","","","","","","",""
"","ITI","","html-keyboard-response","481","434597","0.0-1.0-666.0","0","0","19149","","null","","","null","73","","","","","","","","","","","","","","","NaN",""
"","S1","","html-keyboard-response","482","434852","0.0-1.0-668.0","0","0","19149","","null","","","null","74","","","","","","","","","","","","","","","",""
"","ISI","","html-keyboard-response","483","435011","0.0-1.0-669.0","0","0","19149","","null","","","null","74","NaN","","","","","","","","","","","","","","",""
"","S2","","html-keyboard-response","484","435280","0.0-1.0-670.0","0","0","19149","","null","","","null","74","","NaN","","","","","","","","","","","","","",""
"","response","","html-keyboard-response","485","435538","0.0-1.0-671.0-0.0","0","0","19149","","255","","","68","74","","","2","74","training","adjacent","AB","1","2","L.jpg","N.jpg","0","1","0","",""
"","feedback","","html-keyboard-response","486","436546","0.0-1.0-672.0-0.0","0","0","19149","","null","","","null","74","","","","","","","","","","","","","","","",""
"","time_out","","html-keyboard-response","487","438556","0.0-1.0-674.0-0.0","0","0","19149","","null","","","null","74","","","","","","","","","","","","","","","",""
"","ITI","","html-keyboard-response","488","439569","0.0-1.0-675.0","0","0","19149","","null","","","null","74","","","","","","","","","","","","","","","NaN",""
"","S1","","html-keyboard-response","489","439826","0.0-1.0-677.0","0","0","19149","","null","","","null","75","","","","","","","","","","","","","","","",""
"","ISI","","html-keyboard-response","490","439981","0.0-1.0-678.0","0","0","19149","","null","","","null","75","NaN","","","","","","","","","","","","","","",""
"","S2","","html-keyboard-response","491","440251","0.0-1.0-679.0","0","0","19149","","null","","","null","75","","NaN","","","","","","","","","","","","","",""
"","response","","html-keyboard-response","492","440557","0.0-1.0-680.0-0.0","0","0","19149","","302","","","75","75","","","2","75","training","adjacent","GF","7","6","M.jpg","R.jpg","1","0","0","",""
"","feedback","","html-keyboard-response","493","441566","0.0-1.0-681.0-0.0","0","0","19149","","null","","","null","75","","","","","","","","","","","","","","","",""
"","time_out","","html-keyboard-response","494","443574","0.0-1.0-683.0-0.0","0","0","19149","","null","","","null","75","","","","","","","","","","","","","","","",""
"","ITI","","html-keyboard-response","495","444582","0.0-1.0-684.0","0","0","19149","","null","","","null","75","","","","","","","","","","","","","","","NaN",""
"","S1","","html-keyboard-response","496","444846","0.0-1.0-686.0","0","0","19149","","null","","","null","76","","","","","","","","","","","","","","","",""
"","ISI","","html-keyboard-response","497","445008","0.0-1.0-687.0","0","0","19149","","null","","","null","76","NaN","","","","","","","","","","","","","","",""
"","S2","","html-keyboard-response","498","445266","0.0-1.0-688.0","0","0","19149","","null","","","null","76","","NaN","","","","","","","","","","","","","",""
"","response","","html-keyboard-response","499","445522","0.0-1.0-689.0-0.0","0","0","19149","","251","","","68","76","","","2","76","training","adjacent","CD","3","4","P.jpg","Q.jpg","0","1","0","",""
"","feedback","","html-keyboard-response","500","446536","0.0-1.0-690.0-0.0","0","0","19149","","null","","","null","76","","","","","","","","","","","","","","","",""
"","time_out","","html-keyboard-response","501","448545","0.0-1.0-692.0-0.0","0","0","19149","","null","","","null","76","","","","","","","","","","","","","","","",""
"","ITI","","html-keyboard-response","502","449551","0.0-1.0-693.0","0","0","19149","","null","","","null","76","","","","","","","","","","","","","","","NaN",""
"","S1","","html-keyboard-response","503","449807","0.0-1.0-695.0","0","0","19149","","null","","","null","77","","","","","","","","","","","","","","","",""
"","ISI","","html-keyboard-response","504","449965","0.0-1.0-696.0","0","0","19149","","null","","","null","77","NaN","","","","","","","","","","","","","","",""
"","S2","","html-keyboard-response","505","450228","0.0-1.0-697.0","0","0","19149","","null","","","null","77","","NaN","","","","","","","","","","","","","",""
"","response","","html-keyboard-response","506","450493","0.0-1.0-698.0-0.0","0","0","19149","","261","","","75","77","","","2","77","training","adjacent","EF","5","6","O.jpg","R.jpg","1","1","1","",""
"","feedback","","html-keyboard-response","507","451499","0.0-1.0-699.0-0.0","0","0","19149","","null","","","null","77","","","","","","","","","","","","","","","",""
"","ITI","","html-keyboard-response","508","452505","0.0-1.0-702.0","0","0","19149","","null","","","null","77","","","","","","","","","","","","","","","NaN",""
"","S1","","html-keyboard-response","509","452764","0.0-1.0-704.0","0","0","19149","","null","","","null","78","","","","","","","","","","","","","","","",""
"","ISI","","html-keyboard-response","510","452923","0.0-1.0-705.0","0","0","19149","","null","","","null","78","NaN","","","","","","","","","","","","","","",""
"","S2","","html-keyboard-response","511","453177","0.0-1.0-706.0","0","0","19149","","null","","","null","78","","NaN","","","","","","","","","","","","","",""
"","response","","html-keyboard-response","512","453542","0.0-1.0-707.0-0.0","0","0","19149","","361","","","75","78","","","2","78","training","adjacent","BA","2","1","N.jpg","L.jpg","1","0","0","",""
"","feedback","","html-keyboard-response","513","454554","0.0-1.0-708.0-0.0","0","0","19149","","null","","","null","78","","","","","","","","","","","","","","","",""
"","time_out","","html-keyboard-response","514","456561","0.0-1.0-710.0-0.0","0","0","19149","","null","","","null","78","","","","","","","","","","","","","","","",""
"","ITI","","html-keyboard-response","515","457571","0.0-1.0-711.0","0","0","19149","","null","","","null","78","","","","","","","","","","","","","","","NaN",""
"","S1","","html-keyboard-response","516","457827","0.0-1.0-713.0","0","0","19149","","null","","","null","79","","","","","","","","","","","","","","","",""
"","ISI","","html-keyboard-response","517","457983","0.0-1.0-714.0","0","0","19149","","null","","","null","79","NaN","","","","","","","","","","","","","","",""
"","S2","","html-keyboard-response","518","458245","0.0-1.0-715.0","0","0","19149","","null","","","null","79","","NaN","","","","","","","","","","","","","",""
"","response","","html-keyboard-response","519","458600","0.0-1.0-716.0-0.0","0","0","19149","","352","","","68","79","","","2","79","training","adjacent","FG","6","7","R.jpg","M.jpg","0","1","0","",""
"","feedback","","html-keyboard-response","520","459614","0.0-1.0-717.0-0.0","0","0","19149","","null","","","null","79","","","","","","","","","","","","","","","",""
"","time_out","","html-keyboard-response","521","461626","0.0-1.0-719.0-0.0","0","0","19149","","null","","","null","79","","","","","","","","","","","","","","","",""
"","ITI","","html-keyboard-response","522","462636","0.0-1.0-720.0","0","0","19149","","null","","","null","79","","","","","","","","","","","","","","","NaN",""
"","S1","","html-keyboard-response","523","462895","0.0-1.0-722.0","0","0","19149","","null","","","null","80","","","","","","","","","","","","","","","",""
"","ISI","","html-keyboard-response","524","463064","0.0-1.0-723.0","0","0","19149","","null","","","null","80","NaN","","","","","","","","","","","","","","",""
"","S2","","html-keyboard-response","525","463320","0.0-1.0-724.0","0","0","19149","","null","","","null","80","","NaN","","","","","","","","","","","","","",""
"","response","","html-keyboard-response","526","463605","0.0-1.0-725.0-0.0","0","0","19149","","281","","","75","80","","","2","80","training","adjacent","GF","7","6","M.jpg","R.jpg","1","0","0","",""
"","feedback","","html-keyboard-response","527","464616","0.0-1.0-726.0-0.0","0","0","19149","","null","","","null","80","","","","","","","","","","","","","","","",""
"","time_out","","html-keyboard-response","528","466626","0.0-1.0-728.0-0.0","0","0","19149","","null","","","null","80","","","","","","","","","","","","","","","",""
"","ITI","","html-keyboard-response","529","467636","0.0-1.0-729.0","0","0","19149","","null","","","null","80","","","","","","","","","","","","","","","NaN",""
"","S1","","html-keyboard-response","530","467899","0.0-1.0-731.0","0","0","19149","","null","","","null","81","","","","","","","","","","","","","","","",""
"","ISI","","html-keyboard-response","531","468055","0.0-1.0-732.0","0","0","19149","","null","","","null","81","NaN","","","","","","","","","","","","","","",""
"","S2","","html-keyboard-response","532","468311","0.0-1.0-733.0","0","0","19149","","null","","","null","81","","NaN","","","","","","","","","","","","","",""
"","response","","html-keyboard-response","533","468615","0.0-1.0-734.0-0.0","0","0","19149","","300","","","68","81","","","2","81","training","adjacent","FE","6","5","R.jpg","O.jpg","0","0","1","",""
"","feedback","","html-keyboard-response","534","469629","0.0-1.0-735.0-0.0","0","0","19149","","null","","","null","81","","","","","","","","","","","","","","","",""
"","ITI","","html-keyboard-response","535","470638","0.0-1.0-738.0","0","0","19149","","null","","","null","81","","","","","","","","","","","","","","","NaN",""
"","S1","","html-keyboard-response","536","470897","0.0-1.0-740.0","0","0","19149","","null","","","null","82","","","","","","","","","","","","","","","",""
"","ISI","","html-keyboard-response","537","471056","0.0-1.0-741.0","0","0","19149","","null","","","null","82","NaN","","","","","","","","","","","","","","",""
"","S2","","html-keyboard-response","538","471314","0.0-1.0-742.0","0","0","19149","","null","","","null","82","","NaN","","","","","","","","","","","","","",""
"","response","","html-keyboard-response","539","471884","0.0-1.0-743.0-0.0","0","0","19149","","566","","","68","82","","","2","82","training","adjacent","ED","5","4","O.jpg","Q.jpg","0","0","1","",""
"","feedback","","html-keyboard-response","540","472894","0.0-1.0-744.0-0.0","0","0","19149","","null","","","null","82","","","","","","","","","","","","","","","",""
"","ITI","","html-keyboard-response","541","473907","0.0-1.0-747.0","0","0","19149","","null","","","null","82","","","","","","","","","","","","","","","NaN",""
"","S1","","html-keyboard-response","542","474163","0.0-1.0-749.0","0","0","19149","","null","","","null","83","","","","","","","","","","","","","","","",""
"","ISI","","html-keyboard-response","543","474320","0.0-1.0-750.0","0","0","19149","","null","","","null","83","NaN","","","","","","","","","","","","","","",""
"","S2","","html-keyboard-response","544","474584","0.0-1.0-751.0","0","0","19149","","null","","","null","83","","NaN","","","","","","","","","","","","","",""
"","response","","html-keyboard-response","545","474856","0.0-1.0-752.0-0.0","0","0","19149","","268","","","75","83","","","2","83","training","adjacent","DC","4","3","Q.jpg","P.jpg","1","0","0","",""
"","feedback","","html-keyboard-response","546","475864","0.0-1.0-753.0-0.0","0","0","19149","","null","","","null","83","","","","","","","","","","","","","","","",""
"","time_out","","html-keyboard-response","547","477875","0.0-1.0-755.0-0.0","0","0","19149","","null","","","null","83","","","","","","","","","","","","","","","",""
"","ITI","","html-keyboard-response","548","478883","0.0-1.0-756.0","0","0","19149","","null","","","null","83","","","","","","","","","","","","","","","NaN",""
"","S1","","html-keyboard-response","549","479140","0.0-1.0-758.0","0","0","19149","","null","","","null","84","","","","","","","","","","","","","","","",""
"","ISI","","html-keyboard-response","550","479299","0.0-1.0-759.0","0","0","19149","","null","","","null","84","NaN","","","","","","","","","","","","","","",""
"","S2","","html-keyboard-response","551","479556","0.0-1.0-760.0","0","0","19149","","null","","","null","84","","NaN","","","","","","","","","","","","","",""
"","response","","html-keyboard-response","552","479791","0.0-1.0-761.0-0.0","0","0","19149","","231","","","75","84","","","2","84","training","adjacent","DE","4","5","Q.jpg","O.jpg","1","1","1","",""
"","feedback","","html-keyboard-response","553","480807","0.0-1.0-762.0-0.0","0","0","19149","","null","","","null","84","","","","","","","","","","","","","","","",""
"","ITI","","html-keyboard-response","554","481828","0.0-1.0-765.0","0","0","19149","","null","","","null","84","","","","","","","","","","","","","","","NaN",""
"","S1","","html-keyboard-response","555","482090","0.0-1.0-767.0","0","0","19149","","null","","","null","85","","","","","","","","","","","","","","","",""
"","ISI","","html-keyboard-response","556","482260","0.0-1.0-768.0","0","0","19149","","null","","","null","85","NaN","","","","","","","","","","","","","","",""
"","S2","","html-keyboard-response","557","482524","0.0-1.0-769.0","0","0","19149","","null","","","null","85","","NaN","","","","","","","","","","","","","",""
"","response","","html-keyboard-response","558","482726","0.0-1.0-770.0-0.0","0","0","19149","","197","","","75","85","","","2","85","training","adjacent","ED","5","4","O.jpg","Q.jpg","1","0","0","",""
"","feedback","","html-keyboard-response","559","483740","0.0-1.0-771.0-0.0","0","0","19149","","null","","","null","85","","","","","","","","","","","","","","","",""
"","time_out","","html-keyboard-response","560","485746","0.0-1.0-773.0-0.0","0","0","19149","","null","","","null","85","","","","","","","","","","","","","","","",""
"","ITI","","html-keyboard-response","561","486758","0.0-1.0-774.0","0","0","19149","","null","","","null","85","","","","","","","","","","","","","","","NaN",""
"","S1","","html-keyboard-response","562","487021","0.0-1.0-776.0","0","0","19149","","null","","","null","86","","","","","","","","","","","","","","","",""
"","ISI","","html-keyboard-response","563","487175","0.0-1.0-777.0","0","0","19149","","null","","","null","86","NaN","","","","","","","","","","","","","","",""
"","S2","","html-keyboard-response","564","487434","0.0-1.0-778.0","0","0","19149","","null","","","null","86","","NaN","","","","","","","","","","","","","",""
"","response","","html-keyboard-response","565","487661","0.0-1.0-779.0-0.0","0","0","19149","","222","","","68","86","","","2","86","training","adjacent","CD","3","4","P.jpg","Q.jpg","0","1","0","",""
"","feedback","","html-keyboard-response","566","488670","0.0-1.0-780.0-0.0","0","0","19149","","null","","","null","86","","","","","","","","","","","","","","","",""
"","time_out","","html-keyboard-response","567","490683","0.0-1.0-782.0-0.0","0","0","19149","","null","","","null","86","","","","","","","","","","","","","","","",""
"","ITI","","html-keyboard-response","568","491692","0.0-1.0-783.0","0","0","19149","","null","","","null","86","","","","","","","","","","","","","","","NaN",""
"","S1","","html-keyboard-response","569","491954","0.0-1.0-785.0","0","0","19149","","null","","","null","87","","","","","","","","","","","","","","","",""
"","ISI","","html-keyboard-response","570","492115","0.0-1.0-786.0","0","0","19149","","null","","","null","87","NaN","","","","","","","","","","","","","","",""
"","S2","","html-keyboard-response","571","492373","0.0-1.0-787.0","0","0","19149","","null","","","null","87","","NaN","","","","","","","","","","","","","",""
"","response","","html-keyboard-response","572","492512","0.0-1.0-788.0-0.0","0","0","19149","","133","","","75","87","","","2","87","training","adjacent","GF","7","6","M.jpg","R.jpg","1","0","0","",""
"","feedback","","html-keyboard-response","573","493526","0.0-1.0-789.0-0.0","0","0","19149","","null","","","null","87","","","","","","","","","","","","","","","",""
"","time_out","","html-keyboard-response","574","495531","0.0-1.0-791.0-0.0","0","0","19149","","null","","","null","87","","","","","","","","","","","","","","","",""
"","ITI","","html-keyboard-response","575","496551","0.0-1.0-792.0","0","0","19149","","null","","","null","87","","","","","","","","","","","","","","","NaN",""
"","S1","","html-keyboard-response","576","496811","0.0-1.0-794.0","0","0","19149","","null","","","null","88","","","","","","","","","","","","","","","",""
"","ISI","","html-keyboard-response","577","496974","0.0-1.0-795.0","0","0","19149","","null","","","null","88","NaN","","","","","","","","","","","","","","",""
"","S2","","html-keyboard-response","578","497236","0.0-1.0-796.0","0","0","19149","","null","","","null","88","","NaN","","","","","","","","","","","","","",""
"","response","","html-keyboard-response","579","497407","0.0-1.0-797.0-0.0","0","0","19149","","167","","","68","88","","","2","88","training","adjacent","ED","5","4","O.jpg","Q.jpg","0","0","1","",""
"","feedback","","html-keyboard-response","580","498419","0.0-1.0-798.0-0.0","0","0","19149","","null","","","null","88","","","","","","","","","","","","","","","",""
"","ITI","","html-keyboard-response","581","499426","0.0-1.0-801.0","0","0","19149","","null","","","null","88","","","","","","","","","","","","","","","NaN",""
"","S1","","html-keyboard-response","582","499681","0.0-1.0-803.0","0","0","19149","","null","","","null","89","","","","","","","","","","","","","","","",""
