"success","ttype","start_time","trial_type","trial_index","time_elapsed","internal_node_id","warning","missed_checkup","PID","view_history","rt","responses","repeat_instructions","key_press","index","keypress_isi","keypress_S2","block","trial_num","phase","group_type","pair_type","S1_stim","S2_stim","S1_img","S2_img","S1_chosen","S1_higher","accuracy","keypress_iti","total_bonus_tally"
"true","full_screen","d03082023hr1752","fullscreen","0","7237","0.0-0.0","0","0","16175","","","","","","","","","","","","","","","","","","","","","",""
"","instructions","","instructions","1","79729","0.0-1.0-0.0-0.0","0","0","16175","[{""page_index"":0,""viewing_time"":25565},{""page_index"":1,""viewing_time"":22955},{""page_index"":2,""viewing_time"":6834},{""page_index"":1,""viewing_time"":11513},{""page_index"":2,""viewing_time"":4480},{""page_index"":3,""viewing_time"":1141}]","72489","","","","","","","","","","","","","","","","","","","",""
"","comprehension_check","","survey-multi-choice","2","95617","0.0-1.0-0.0-1.0","0","0","16175","","15883","{""Q0"":""True"",""Q1"":""D"",""Q2"":""Only when the screen 'MAKE A CHOICE' is shown"",""Q3"":""Green mark"",""Q4"":""either D or K""}","1","","","","","","","","","","","","","","","","","",""
"","missed_instruction_checkup","","html-keyboard-response","3","97625","0.0-1.0-0.0-2.0-0.0","0","1","16175","","2000","","","32","","","","","","","","","","","","","","","","",""
"","instructions","","instructions","4","105397","0.0-1.0-0.1-0.1","0","0","16175","[{""page_index"":0,""viewing_time"":1838},{""page_index"":1,""viewing_time"":4383},{""page_index"":2,""viewing_time"":743},{""page_index"":3,""viewing_time"":806}]","7770","","","","","","","","","","","","","","","","","","","",""
"","comprehension_check","","survey-multi-choice","5","112081","0.0-1.0-0.1-1.1","0","0","16175","","6678","{""Q0"":""True"",""Q1"":""K"",""Q2"":""Only when the screen 'MAKE A CHOICE' is shown"",""Q3"":""Green mark"",""Q4"":""either D or K""}","1","","","","","","","","","","","","","","","","","",""
"","missed_instruction_checkup","","html-keyboard-response","6","113193","0.0-1.0-0.1-2.1-0.1","0","1","16175","","1106","","","32","","","","","","","","","","","","","","","","",""
"","instructions","","instructions","7","139786","0.0-1.0-0.2-0.2","0","0","16175","[{""page_index"":0,""viewing_time"":2734},{""page_index"":1,""viewing_time"":12176},{""page_index"":2,""viewing_time"":7713},{""page_index"":1,""viewing_time"":2579},{""page_index"":2,""viewing_time"":391},{""page_index"":3,""viewing_time"":998}]","26591","","","","","","","","","","","","","","","","","","","",""
"","comprehension_check","","survey-multi-choice","8","154486","0.0-1.0-0.2-1.2","0","0","16175","","14695","{""Q0"":""True"",""Q1"":""K"",""Q2"":""Only when the screen 'MAKE A CHOICE' is shown"",""Q3"":""Green mark"",""Q4"":""either D or K""}","1","","","","","","","","","","","","","","","","","",""
"","missed_instruction_checkup","","html-keyboard-response","9","155630","0.0-1.0-0.2-2.2-0.2","0","1","16175","","1138","","","32","","","","","","","","","","","","","","","","",""
"","instructions","","instructions","10","166526","0.0-1.0-0.3-0.3","0","0","16175","[{""page_index"":0,""viewing_time"":2199},{""page_index"":1,""viewing_time"":7777},{""page_index"":2,""viewing_time"":455},{""page_index"":3,""viewing_time"":463}]","10895","","","","","","","","","","","","","","","","","","","",""
"","comprehension_check","","survey-multi-choice","11","175995","0.0-1.0-0.3-1.3","0","0","16175","","9462","{""Q0"":""True"",""Q1"":""K"",""Q2"":""Once the second image appears and while the screen 'MAKE A CHOICE' is shown"",""Q3"":""Green mark"",""Q4"":""either D or K""}","0","","","","","","","","","","","","","","","","","",""
"","start_exp","","html-keyboard-response","12","176805","0.0-1.0-1.0","0","0","16175","","805","","","32","","","","","","","","","","","","","","","","",""
"","S1","","html-keyboard-response","13","177060","0.0-1.0-2.0","0","0","16175","","null","","","null","0","","","","","","","","","","","","","","","",""
"","ISI","","html-keyboard-response","14","177213","0.0-1.0-3.0","0","0","16175","","null","","","null","0","NaN","","","","","","","","","","","","","","",""
"","S2","","html-keyboard-response","15","177467","0.0-1.0-4.0","0","0","16175","","null","","","null","0","","NaN","","","","","","","","","","","","","",""
"","response","","html-keyboard-response","16","179223","0.0-1.0-5.0-0.0","0","0","16175","","null","","","null","0","","","1","0","training","adjacent","FG","6","7","P.jpg","O.jpg","NaN","1","0","",""
"","too_slow_prompt","","html-keyboard-response","17","180228","0.0-1.0-7.0-0.0","1","0","16175","","null","","","null","","","","","","","","","","","","","","","","",""
"","time_out","","html-keyboard-response","18","182232","0.0-1.0-8.0-0.0","0","0","16175","","null","","","null","0","","","","","","","","","","","","","","","",""
"","ITI","","html-keyboard-response","19","183236","0.0-1.0-9.0","0","0","16175","","null","","","null","0","","","","","","","","","","","","","","","NaN",""
"","S1","","html-keyboard-response","20","183490","0.0-1.0-11.0","0","0","16175","","null","","","null","1","","","","","","","","","","","","","","","",""
"","ISI","","html-keyboard-response","21","183645","0.0-1.0-12.0","0","0","16175","","null","","","null","1","NaN","","","","","","","","","","","","","","",""
"","S2","","html-keyboard-response","22","183902","0.0-1.0-13.0","0","0","16175","","null","","","null","1","","NaN","","","","","","","","","","","","","",""
"","response","","html-keyboard-response","23","184511","0.0-1.0-14.0-0.0","0","0","16175","","603","","","75","1","","","1","1","training","adjacent","FE","6","5","P.jpg","Q.jpg","1","0","0","",""
"","feedback","","html-keyboard-response","24","185517","0.0-1.0-15.0-0.0","0","0","16175","","null","","","null","1","","","","","","","","","","","","","","","",""
"","time_out","","html-keyboard-response","25","187521","0.0-1.0-17.0-0.0","0","0","16175","","null","","","null","1","","","","","","","","","","","","","","","",""
"","ITI","","html-keyboard-response","26","188527","0.0-1.0-18.0","0","0","16175","","null","","","null","1","","","","","","","","","","","","","","","NaN",""
"","S1","","html-keyboard-response","27","188782","0.0-1.0-20.0","0","0","16175","","null","","","null","2","","","","","","","","","","","","","","","",""
"","ISI","","html-keyboard-response","28","188936","0.0-1.0-21.0","0","0","16175","","null","","","null","2","NaN","","","","","","","","","","","","","","",""
"","S2","","html-keyboard-response","29","189192","0.0-1.0-22.0","0","0","16175","","null","","","null","2","","NaN","","","","","","","","","","","","","",""
"","response","","html-keyboard-response","30","189308","0.0-1.0-23.0-0.0","0","0","16175","","113","","","75","2","","","1","2","training","adjacent","EF","5","6","Q.jpg","P.jpg","1","1","1","",""
"","feedback","","html-keyboard-response","31","190315","0.0-1.0-24.0-0.0","0","0","16175","","null","","","null","2","","","","","","","","","","","","","","","",""
"","ITI","","html-keyboard-response","32","191318","0.0-1.0-27.0","0","0","16175","","null","","","null","2","","","","","","","","","","","","","","","NaN",""
"","S1","","html-keyboard-response","33","191572","0.0-1.0-29.0","0","0","16175","","null","","","null","3","","","","","","","","","","","","","","","",""
"","ISI","","html-keyboard-response","34","191726","0.0-1.0-30.0","0","0","16175","","null","","","null","3","NaN","","","","","","","","","","","","","","",""
"","S2","","html-keyboard-response","35","191982","0.0-1.0-31.0","0","0","16175","","null","","","null","3","","NaN","","","","","","","","","","","","","",""
"","response","","html-keyboard-response","36","192438","0.0-1.0-32.0-0.0","0","0","16175","","451","","","75","3","","","1","3","training","adjacent","BA","2","1","N.jpg","M.jpg","1","0","0","",""
"","feedback","","html-keyboard-response","37","193444","0.0-1.0-33.0-0.0","0","0","16175","","null","","","null","3","","","","","","","","","","","","","","","",""
"","time_out","","html-keyboard-response","38","195448","0.0-1.0-35.0-0.0","0","0","16175","","null","","","null","3","","","","","","","","","","","","","","","",""
"","ITI","","html-keyboard-response","39","196454","0.0-1.0-36.0","0","0","16175","","null","","","null","3","","","","","","","","","","","","","","","NaN",""
"","S1","","html-keyboard-response","40","196723","0.0-1.0-38.0","0","0","16175","","null","","","null","4","","","","","","","","","","","","","","","",""
"","ISI","","html-keyboard-response","41","196876","0.0-1.0-39.0","0","0","16175","","null","","","null","4","NaN","","","","","","","","","","","","","","",""
"","S2","","html-keyboard-response","42","197132","0.0-1.0-40.0","0","0","16175","","null","","","null","4","","NaN","","","","","","","","","","","","","",""
"","response","","html-keyboard-response","43","197509","0.0-1.0-41.0-0.0","0","0","16175","","371","","","68","4","","","1","4","training","adjacent","DE","4","5","L.jpg","Q.jpg","0","1","0","",""
"","feedback","","html-keyboard-response","44","198513","0.0-1.0-42.0-0.0","0","0","16175","","null","","","null","4","","","","","","","","","","","","","","","",""
"","time_out","","html-keyboard-response","45","200519","0.0-1.0-44.0-0.0","0","0","16175","","null","","","null","4","","","","","","","","","","","","","","","",""
"","ITI","","html-keyboard-response","46","201523","0.0-1.0-45.0","0","0","16175","","null","","","null","4","","","","","","","","","","","","","","","NaN",""
"","S1","","html-keyboard-response","47","201776","0.0-1.0-47.0","0","0","16175","","null","","","null","5","","","","","","","","","","","","","","","",""
"","ISI","","html-keyboard-response","48","201929","0.0-1.0-48.0","0","0","16175","","null","","","null","5","NaN","","","","","","","","","","","","","","",""
"","S2","","html-keyboard-response","49","202184","0.0-1.0-49.0","0","0","16175","","null","","","null","5","","NaN","","","","","","","","","","","","","",""
"","response","","html-keyboard-response","50","202553","0.0-1.0-50.0-0.0","0","0","16175","","365","","","68","5","","","1","5","training","adjacent","AB","1","2","M.jpg","N.jpg","0","1","0","",""
"","feedback","","html-keyboard-response","51","203558","0.0-1.0-51.0-0.0","0","0","16175","","null","","","null","5","","","","","","","","","","","","","","","",""
"","time_out","","html-keyboard-response","52","205563","0.0-1.0-53.0-0.0","0","0","16175","","null","","","null","5","","","","","","","","","","","","","","","",""
"","ITI","","html-keyboard-response","53","206567","0.0-1.0-54.0","0","0","16175","","null","","","null","5","","","","","","","","","","","","","","","NaN",""
"","S1","","html-keyboard-response","54","206821","0.0-1.0-56.0","0","0","16175","","null","","","null","6","","","","","","","","","","","","","","","",""
"","ISI","","html-keyboard-response","55","206975","0.0-1.0-57.0","0","0","16175","","null","","","null","6","NaN","","","","","","","","","","","","","","",""
"","S2","","html-keyboard-response","56","207128","0.0-1.0-58.0","0","0","16175","","149","","","68","6","","d","1","6","training","adjacent","FG","6","7","P.jpg","O.jpg","0","1","0","",""
"","feedback","","html-keyboard-response","57","208135","0.0-1.0-60.0-0.0","0","0","16175","","null","","","null","6","","","","","","","","","","","","","","","",""
"","time_out","","html-keyboard-response","58","210143","0.0-1.0-62.0-0.0","0","0","16175","","null","","","null","6","","","","","","","","","","","","","","","",""
"","ITI","","html-keyboard-response","59","211146","0.0-1.0-63.0","0","0","16175","","null","","","null","6","","","","","","","","","","","","","","","NaN",""
"","S1","","html-keyboard-response","60","211400","0.0-1.0-65.0","0","0","16175","","null","","","null","7","","","","","","","","","","","","","","","",""
"","ISI","","html-keyboard-response","61","211553","0.0-1.0-66.0","0","0","16175","","null","","","null","7","NaN","","","","","","","","","","","","","","",""
"","S2","","html-keyboard-response","62","211809","0.0-1.0-67.0","0","0","16175","","null","","","null","7","","NaN","","","","","","","","","","","","","",""
"","response","","html-keyboard-response","63","212071","0.0-1.0-68.0-0.0","0","0","16175","","257","","","68","7","","","1","7","training","adjacent","DC","4","3","L.jpg","R.jpg","0","0","1","",""
"","feedback","","html-keyboard-response","64","213076","0.0-1.0-69.0-0.0","0","0","16175","","null","","","null","7","","","","","","","","","","","","","","","",""
"","ITI","","html-keyboard-response","65","214094","0.0-1.0-72.0","0","0","16175","","null","","","null","7","","","","","","","","","","","","","","","NaN",""
"","S1","","html-keyboard-response","66","214347","0.0-1.0-74.0","0","0","16175","","null","","","null","8","","","","","","","","","","","","","","","",""
"","ISI","","html-keyboard-response","67","214501","0.0-1.0-75.0","0","0","16175","","null","","","null","8","NaN","","","","","","","","","","","","","","",""
"","S2","","html-keyboard-response","68","214756","0.0-1.0-76.0","0","0","16175","","null","","","null","8","","NaN","","","","","","","","","","","","","",""
"","response","","html-keyboard-response","69","214985","0.0-1.0-77.0-0.0","0","0","16175","","224","","","68","8","","","1","8","training","adjacent","BC","2","3","N.jpg","R.jpg","0","1","0","",""
"","feedback","","html-keyboard-response","70","215990","0.0-1.0-78.0-0.0","0","0","16175","","null","","","null","8","","","","","","","","","","","","","","","",""
"","time_out","","html-keyboard-response","71","217994","0.0-1.0-80.0-0.0","0","0","16175","","null","","","null","8","","","","","","","","","","","","","","","",""
"","ITI","","html-keyboard-response","72","218998","0.0-1.0-81.0","0","0","16175","","null","","","null","8","","","","","","","","","","","","","","","NaN",""
"","S1","","html-keyboard-response","73","219252","0.0-1.0-83.0","0","0","16175","","null","","","null","9","","","","","","","","","","","","","","","",""
"","ISI","","html-keyboard-response","74","219408","0.0-1.0-84.0","0","0","16175","","null","","","null","9","NaN","","","","","","","","","","","","","","",""
"","S2","","html-keyboard-response","75","219664","0.0-1.0-85.0","0","0","16175","","null","","","null","9","","NaN","","","","","","","","","","","","","",""
"","response","","html-keyboard-response","76","220014","0.0-1.0-86.0-0.0","0","0","16175","","346","","","75","9","","","1","9","training","adjacent","GF","7","6","O.jpg","P.jpg","1","0","0","",""
"","feedback","","html-keyboard-response","77","221020","0.0-1.0-87.0-0.0","0","0","16175","","null","","","null","9","","","","","","","","","","","","","","","",""
"","time_out","","html-keyboard-response","78","223024","0.0-1.0-89.0-0.0","0","0","16175","","null","","","null","9","","","","","","","","","","","","","","","",""
"","ITI","","html-keyboard-response","79","224028","0.0-1.0-90.0","0","0","16175","","null","","","null","9","","","","","","","","","","","","","","","NaN",""
"","S1","","html-keyboard-response","80","224282","0.0-1.0-92.0","0","0","16175","","null","","","null","10","","","","","","","","","","","","","","","",""
"","ISI","","html-keyboard-response","81","224434","0.0-1.0-93.0","0","0","16175","","null","","","null","10","NaN","","","","","","","","","","","","","","",""
"","S2","","html-keyboard-response","82","224700","0.0-1.0-94.0","0","0","16175","","null","","","null","10","","NaN","","","","","","","","","","","","","",""
"","response","","html-keyboard-response","83","224830","0.0-1.0-95.0-0.0","0","0","16175","","126","","","68","10","","","1","10","training","adjacent","DC","4","3","L.jpg","R.jpg","0","0","1","",""
"","feedback","","html-keyboard-response","84","225848","0.0-1.0-96.0-0.0","0","0","16175","","null","","","null","10","","","","","","","","","","","","","","","",""
"","ITI","","html-keyboard-response","85","226851","0.0-1.0-99.0","0","0","16175","","null","","","null","10","","","","","","","","","","","","","","","NaN",""
"","S1","","html-keyboard-response","86","227103","0.0-1.0-101.0","0","0","16175","","null","","","null","11","","","","","","","","","","","","","","","",""
"","ISI","","html-keyboard-response","87","227258","0.0-1.0-102.0","0","0","16175","","null","","","null","11","NaN","","","","","","","","","","","","","","",""
"","S2","","html-keyboard-response","88","227514","0.0-1.0-103.0","0","0","16175","","null","","","null","11","","NaN","","","","","","","","","","","","","",""
"","response","","html-keyboard-response","89","227841","0.0-1.0-104.0-0.0","0","0","16175","","321","","","68","11","","","1","11","training","adjacent","AB","1","2","M.jpg","N.jpg","0","1","0","",""
"","feedback","","html-keyboard-response","90","228845","0.0-1.0-105.0-0.0","0","0","16175","","null","","","null","11","","","","","","","","","","","","","","","",""
"","time_out","","html-keyboard-response","91","230850","0.0-1.0-107.0-0.0","0","0","16175","","null","","","null","11","","","","","","","","","","","","","","","",""
"","ITI","","html-keyboard-response","92","231854","0.0-1.0-108.0","0","0","16175","","null","","","null","11","","","","","","","","","","","","","","","NaN",""
"","S1","","html-keyboard-response","93","232107","0.0-1.0-110.0","0","0","16175","","null","","","null","12","","","","","","","","","","","","","","","",""
"","ISI","","html-keyboard-response","94","232261","0.0-1.0-111.0","0","0","16175","","null","","","null","12","NaN","","","","","","","","","","","","","","",""
"","S2","","html-keyboard-response","95","232520","0.0-1.0-112.0","0","0","16175","","null","","","null","12","","NaN","","","","","","","","","","","","","",""
"","response","","html-keyboard-response","96","232741","0.0-1.0-113.0-0.0","0","0","16175","","217","","","68","12","","","1","12","training","adjacent","ED","5","4","Q.jpg","L.jpg","0","0","1","",""
"","feedback","","html-keyboard-response","97","233746","0.0-1.0-114.0-0.0","0","0","16175","","null","","","null","12","","","","","","","","","","","","","","","",""
"","ITI","","html-keyboard-response","98","234750","0.0-1.0-117.0","0","0","16175","","null","","","null","12","","","","","","","","","","","","","","","NaN",""
"","S1","","html-keyboard-response","99","235004","0.0-1.0-119.0","0","0","16175","","null","","","null","13","","","","","","","","","","","","","","","",""
"","ISI","","html-keyboard-response","100","235160","0.0-1.0-120.0","0","0","16175","","null","","","null","13","NaN","","","","","","","","","","","","","","",""
"","S2","","html-keyboard-response","101","235417","0.0-1.0-121.0","0","0","16175","","null","","","null","13","","NaN","","","","","","","","","","","","","",""
"","response","","html-keyboard-response","102","235681","0.0-1.0-122.0-0.0","0","0","16175","","259","","","68","13","","","1","13","training","adjacent","FE","6","5","P.jpg","Q.jpg","0","0","1","",""
"","feedback","","html-keyboard-response","103","236685","0.0-1.0-123.0-0.0","0","0","16175","","null","","","null","13","","","","","","","","","","","","","","","",""
"","ITI","","html-keyboard-response","104","237690","0.0-1.0-126.0","0","0","16175","","null","","","null","13","","","","","","","","","","","","","","","NaN",""
"","S1","","html-keyboard-response","105","237944","0.0-1.0-128.0","0","0","16175","","null","","","null","14","","","","","","","","","","","","","","","",""
"","ISI","","html-keyboard-response","106","238097","0.0-1.0-129.0","0","0","16175","","null","","","null","14","NaN","","","","","","","","","","","","","","",""
"","S2","","html-keyboard-response","107","238353","0.0-1.0-130.0","0","0","16175","","null","","","null","14","","NaN","","","","","","","","","","","","","",""
"","response","","html-keyboard-response","108","238387","0.0-1.0-131.0-0.0","0","0","16175","","30","","","68","14","","","1","14","training","adjacent","CD","3","4","R.jpg","L.jpg","0","1","0","",""
"","feedback","","html-keyboard-response","109","239392","0.0-1.0-132.0-0.0","0","0","16175","","null","","","null","14","","","","","","","","","","","","","","","",""
"","time_out","","html-keyboard-response","110","241396","0.0-1.0-134.0-0.0","0","0","16175","","null","","","null","14","","","","","","","","","","","","","","","",""
"","ITI","","html-keyboard-response","111","242399","0.0-1.0-135.0","0","0","16175","","null","","","null","14","","","","","","","","","","","","","","","NaN",""
"","S1","","html-keyboard-response","112","242653","0.0-1.0-137.0","0","0","16175","","null","","","null","15","","","","","","","","","","","","","","","",""
"","ISI","","html-keyboard-response","113","242807","0.0-1.0-138.0","0","0","16175","","null","","","null","15","NaN","","","","","","","","","","","","","","",""
"","S2","","html-keyboard-response","114","243043","0.0-1.0-139.0","0","0","16175","","229","","","68","15","","d","1","15","training","adjacent","GF","7","6","O.jpg","P.jpg","0","0","1","",""
"","feedback","","html-keyboard-response","115","244047","0.0-1.0-141.0-0.0","0","0","16175","","null","","","null","15","","","","","","","","","","","","","","","",""
"","ITI","","html-keyboard-response","116","245051","0.0-1.0-144.0","0","0","16175","","null","","","null","15","","","","","","","","","","","","","","","NaN",""
"","S1","","html-keyboard-response","117","245306","0.0-1.0-146.0","0","0","16175","","null","","","null","16","","","","","","","","","","","","","","","",""
"","ISI","","html-keyboard-response","118","245465","0.0-1.0-147.0","0","0","16175","","null","","","null","16","NaN","","","","","","","","","","","","","","",""
"","S2","","html-keyboard-response","119","245718","0.0-1.0-148.0","0","0","16175","","null","","","null","16","","NaN","","","","","","","","","","","","","",""
"","response","","html-keyboard-response","120","245838","0.0-1.0-149.0-0.0","0","0","16175","","113","","","68","16","","","1","16","training","adjacent","CD","3","4","R.jpg","L.jpg","0","1","0","",""
"","feedback","","html-keyboard-response","121","246844","0.0-1.0-150.0-0.0","0","0","16175","","null","","","null","16","","","","","","","","","","","","","","","",""
"","time_out","","html-keyboard-response","122","248848","0.0-1.0-152.0-0.0","0","0","16175","","null","","","null","16","","","","","","","","","","","","","","","",""
"","ITI","","html-keyboard-response","123","249852","0.0-1.0-153.0","0","0","16175","","null","","","null","16","","","","","","","","","","","","","","","NaN",""
"","S1","","html-keyboard-response","124","250105","0.0-1.0-155.0","0","0","16175","","null","","","null","17","","","","","","","","","","","","","","","",""
"","ISI","","html-keyboard-response","125","250258","0.0-1.0-156.0","0","0","16175","","null","","","null","17","NaN","","","","","","","","","","","","","","",""
"","S2","","html-keyboard-response","126","250508","0.0-1.0-157.0","0","0","16175","","244","","","68","17","","d","1","17","training","adjacent","CB","3","2","R.jpg","N.jpg","0","0","1","",""
"","feedback","","html-keyboard-response","127","251515","0.0-1.0-159.0-0.0","0","0","16175","","null","","","null","17","","","","","","","","","","","","","","","",""
"","ITI","","html-keyboard-response","128","252519","0.0-1.0-162.0","0","0","16175","","null","","","null","17","","","","","","","","","","","","","","","NaN",""
"","S1","","html-keyboard-response","129","252777","0.0-1.0-164.0","0","0","16175","","null","","","null","18","","","","","","","","","","","","","","","",""
"","ISI","","html-keyboard-response","130","252930","0.0-1.0-165.0","0","0","16175","","null","","","null","18","NaN","","","","","","","","","","","","","","",""
"","S2","","html-keyboard-response","131","253185","0.0-1.0-166.0","0","0","16175","","null","","","null","18","","NaN","","","","","","","","","","","","","",""
"","response","","html-keyboard-response","132","253267","0.0-1.0-167.0-0.0","0","0","16175","","79","","","68","18","","","1","18","training","adjacent","ED","5","4","Q.jpg","L.jpg","0","0","1","",""
"","feedback","","html-keyboard-response","133","254272","0.0-1.0-168.0-0.0","0","0","16175","","null","","","null","18","","","","","","","","","","","","","","","",""
"","ITI","","html-keyboard-response","134","255278","0.0-1.0-171.0","0","0","16175","","null","","","null","18","","","","","","","","","","","","","","","NaN",""
"","S1","","html-keyboard-response","135","255531","0.0-1.0-173.0","0","0","16175","","null","","","null","19","","","","","","","","","","","","","","","",""
"","ISI","","html-keyboard-response","136","255684","0.0-1.0-174.0","0","0","16175","","null","","","null","19","NaN","","","","","","","","","","","","","","",""
"","S2","","html-keyboard-response","137","255938","0.0-1.0-175.0","0","0","16175","","null","","","null","19","","NaN","","","","","","","","","","","","","",""
"","response","","html-keyboard-response","138","256136","0.0-1.0-176.0-0.0","0","0","16175","","194","","","68","19","","","1","19","training","adjacent","ED","5","4","Q.jpg","L.jpg","0","0","1","",""
"","feedback","","html-keyboard-response","139","257141","0.0-1.0-177.0-0.0","0","0","16175","","null","","","null","19","","","","","","","","","","","","","","","",""
"","ITI","","html-keyboard-response","140","258147","0.0-1.0-180.0","0","0","16175","","null","","","null","19","","","","","","","","","","","","","","","NaN",""
"","S1","","html-keyboard-response","141","258401","0.0-1.0-182.0","0","0","16175","","null","","","null","20","","","","","","","","","","","","","","","",""
"","ISI","","html-keyboard-response","142","258555","0.0-1.0-183.0","0","0","16175","","null","","","null","20","NaN","","","","","","","","","","","","","","",""
"","S2","","html-keyboard-response","143","258820","0.0-1.0-184.0","0","0","16175","","null","","","null","20","","NaN","","","","","","","","","","","","","",""
"","response","","html-keyboard-response","144","258962","0.0-1.0-185.0-0.0","0","0","16175","","138","","","68","20","","","1","20","training","adjacent","CD","3","4","R.jpg","L.jpg","0","1","0","",""
"","feedback","","html-keyboard-response","145","259967","0.0-1.0-186.0-0.0","0","0","16175","","null","","","null","20","","","","","","","","","","","","","","","",""
"","time_out","","html-keyboard-response","146","261972","0.0-1.0-188.0-0.0","0","0","16175","","null","","","null","20","","","","","","","","","","","","","","","",""
"","ITI","","html-keyboard-response","147","262975","0.0-1.0-189.0","0","0","16175","","null","","","null","20","","","","","","","","","","","","","","","NaN",""
"","S1","","html-keyboard-response","148","263230","0.0-1.0-191.0","0","0","16175","","null","","","null","21","","","","","","","","","","","","","","","",""
"","ISI","","html-keyboard-response","149","263385","0.0-1.0-192.0","0","0","16175","","null","","","null","21","NaN","","","","","","","","","","","","","","",""
"","S2","","html-keyboard-response","150","263641","0.0-1.0-193.0","0","0","16175","","null","","","null","21","","NaN","","","","","","","","","","","","","",""
"","response","","html-keyboard-response","151","263770","0.0-1.0-194.0-0.0","0","0","16175","","126","","","68","21","","","1","21","training","adjacent","BC","2","3","N.jpg","R.jpg","0","1","0","",""
"","feedback","","html-keyboard-response","152","264779","0.0-1.0-195.0-0.0","0","0","16175","","null","","","null","21","","","","","","","","","","","","","","","",""
"","time_out","","html-keyboard-response","153","266783","0.0-1.0-197.0-0.0","0","0","16175","","null","","","null","21","","","","","","","","","","","","","","","",""
"","ITI","","html-keyboard-response","154","267786","0.0-1.0-198.0","0","0","16175","","null","","","null","21","","","","","","","","","","","","","","","NaN",""
"","S1","","html-keyboard-response","155","268041","0.0-1.0-200.0","0","0","16175","","null","","","null","22","","","","","","","","","","","","","","","",""
"","ISI","","html-keyboard-response","156","268195","0.0-1.0-201.0","0","0","16175","","null","","","null","22","NaN","","","","","","","","","","","","","","",""
"","S2","","html-keyboard-response","157","268431","0.0-1.0-202.0","0","0","16175","","232","","","68","22","","d","1","22","training","adjacent","FG","6","7","P.jpg","O.jpg","0","1","0","",""
"","feedback","","html-keyboard-response","158","269435","0.0-1.0-204.0-0.0","0","0","16175","","null","","","null","22","","","","","","","","","","","","","","","",""
"","time_out","","html-keyboard-response","159","271438","0.0-1.0-206.0-0.0","0","0","16175","","null","","","null","22","","","","","","","","","","","","","","","",""
"","ITI","","html-keyboard-response","160","272445","0.0-1.0-207.0","0","0","16175","","null","","","null","22","","","","","","","","","","","","","","","NaN",""
"","S1","","html-keyboard-response","161","272701","0.0-1.0-209.0","0","0","16175","","null","","","null","23","","","","","","","","","","","","","","","",""
"","ISI","","html-keyboard-response","162","272854","0.0-1.0-210.0","0","0","16175","","null","","","null","23","NaN","","","","","","","","","","","","","","",""
"","S2","","html-keyboard-response","163","273109","0.0-1.0-211.0","0","0","16175","","null","","","null","23","","NaN","","","","","","","","","","","","","",""
"","response","","html-keyboard-response","164","273268","0.0-1.0-212.0-0.0","0","0","16175","","157","","","68","23","","","1","23","training","adjacent","EF","5","6","Q.jpg","P.jpg","0","1","0","",""
"","feedback","","html-keyboard-response","165","274272","0.0-1.0-213.0-0.0","0","0","16175","","null","","","null","23","","","","","","","","","","","","","","","",""
"","time_out","","html-keyboard-response","166","276277","0.0-1.0-215.0-0.0","0","0","16175","","null","","","null","23","","","","","","","","","","","","","","","",""
"","ITI","","html-keyboard-response","167","277282","0.0-1.0-216.0","0","0","16175","","null","","","null","23","","","","","","","","","","","","","","","NaN",""
"","S1","","html-keyboard-response","168","277535","0.0-1.0-218.0","0","0","16175","","null","","","null","24","","","","","","","","","","","","","","","",""
"","ISI","","html-keyboard-response","169","277691","0.0-1.0-219.0","0","0","16175","","null","","","null","24","NaN","","","","","","","","","","","","","","",""
"","S2","","html-keyboard-response","170","277946","0.0-1.0-220.0","0","0","16175","","null","","","null","24","","NaN","","","","","","","","","","","","","",""
"","response","","html-keyboard-response","171","278237","0.0-1.0-221.0-0.0","0","0","16175","","288","","","68","24","","","1","24","training","adjacent","AB","1","2","M.jpg","N.jpg","0","1","0","",""
"","feedback","","html-keyboard-response","172","279243","0.0-1.0-222.0-0.0","0","0","16175","","null","","","null","24","","","","","","","","","","","","","","","",""
"","time_out","","html-keyboard-response","173","281246","0.0-1.0-224.0-0.0","0","0","16175","","null","","","null","24","","","","","","","","","","","","","","","",""
"","ITI","","html-keyboard-response","174","282251","0.0-1.0-225.0","0","0","16175","","null","","","null","24","","","","","","","","","","","","","","","NaN",""
"","S1","","html-keyboard-response","175","282504","0.0-1.0-227.0","0","0","16175","","null","","","null","25","","","","","","","","","","","","","","","",""
"","ISI","","html-keyboard-response","176","282657","0.0-1.0-228.0","0","0","16175","","null","","","null","25","NaN","","","","","","","","","","","","","","",""
"","S2","","html-keyboard-response","177","282859","0.0-1.0-229.0","0","0","16175","","197","","","68","25","","d","1","25","training","adjacent","GF","7","6","O.jpg","P.jpg","0","0","1","",""
"","feedback","","html-keyboard-response","178","283864","0.0-1.0-231.0-0.0","0","0","16175","","null","","","null","25","","","","","","","","","","","","","","","",""
"","ITI","","html-keyboard-response","179","284867","0.0-1.0-234.0","0","0","16175","","null","","","null","25","","","","","","","","","","","","","","","NaN",""
"","S1","","html-keyboard-response","180","285122","0.0-1.0-236.0","0","0","16175","","null","","","null","26","","","","","","","","","","","","","","","",""
"","ISI","","html-keyboard-response","181","285275","0.0-1.0-237.0","0","0","16175","","null","","","null","26","NaN","","","","","","","","","","","","","","",""
"","S2","","html-keyboard-response","182","285530","0.0-1.0-238.0","0","0","16175","","null","","","null","26","","NaN","","","","","","","","","","","","","",""
"","response","","html-keyboard-response","183","285614","0.0-1.0-239.0-0.0","0","0","16175","","79","","","75","26","","","1","26","training","adjacent","CB","3","2","R.jpg","N.jpg","1","0","0","",""
"","feedback","","html-keyboard-response","184","286619","0.0-1.0-240.0-0.0","0","0","16175","","null","","","null","26","","","","","","","","","","","","","","","",""
"","time_out","","html-keyboard-response","185","288623","0.0-1.0-242.0-0.0","0","0","16175","","null","","","null","26","","","","","","","","","","","","","","","",""
"","ITI","","html-keyboard-response","186","289626","0.0-1.0-243.0","0","0","16175","","null","","","null","26","","","","","","","","","","","","","","","NaN",""
"","S1","","html-keyboard-response","187","289880","0.0-1.0-245.0","0","0","16175","","null","","","null","27","","","","","","","","","","","","","","","",""
"","ISI","","html-keyboard-response","188","290034","0.0-1.0-246.0","0","0","16175","","null","","","null","27","NaN","","","","","","","","","","","","","","",""
"","S2","","html-keyboard-response","189","290289","0.0-1.0-247.0","0","0","16175","","null","","","null","27","","NaN","","","","","","","","","","","","","",""
"","response","","html-keyboard-response","190","290349","0.0-1.0-248.0-0.0","0","0","16175","","55","","","75","27","","","1","27","training","adjacent","BA","2","1","N.jpg","M.jpg","1","0","0","",""
"","feedback","","html-keyboard-response","191","291354","0.0-1.0-249.0-0.0","0","0","16175","","null","","","null","27","","","","","","","","","","","","","","","",""
"","time_out","","html-keyboard-response","192","293357","0.0-1.0-251.0-0.0","0","0","16175","","null","","","null","27","","","","","","","","","","","","","","","",""
"","ITI","","html-keyboard-response","193","294361","0.0-1.0-252.0","0","0","16175","","null","","","null","27","","","","","","","","","","","","","","","NaN",""
"","S1","","html-keyboard-response","194","294615","0.0-1.0-254.0","0","0","16175","","null","","","null","28","","","","","","","","","","","","","","","",""
"","ISI","","html-keyboard-response","195","294780","0.0-1.0-255.0","0","0","16175","","null","","","null","28","NaN","","","","","","","","","","","","","","",""
"","S2","","html-keyboard-response","196","295033","0.0-1.0-256.0","0","0","16175","","null","","","null","28","","NaN","","","","","","","","","","","","","",""
"","response","","html-keyboard-response","197","295083","0.0-1.0-257.0-0.0","0","0","16175","","47","","","68","28","","","1","28","training","adjacent","FE","6","5","P.jpg","Q.jpg","0","0","1","",""
"","feedback","","html-keyboard-response","198","296088","0.0-1.0-258.0-0.0","0","0","16175","","null","","","null","28","","","","","","","","","","","","","","","",""
"","ITI","","html-keyboard-response","199","297092","0.0-1.0-261.0","0","0","16175","","null","","","null","28","","","","","","","","","","","","","","","NaN",""
"","S1","","html-keyboard-response","200","297352","0.0-1.0-263.0","0","0","16175","","null","","","null","29","","","","","","","","","","","","","","","",""
"","ISI","","html-keyboard-response","201","297505","0.0-1.0-264.0","0","0","16175","","null","","","null","29","NaN","","","","","","","","","","","","","","",""
"","S2","","html-keyboard-response","202","297760","0.0-1.0-265.0","0","0","16175","","null","","","null","29","","NaN","","","","","","","","","","","","","",""
"","response","","html-keyboard-response","203","298092","0.0-1.0-266.0-0.0","0","0","16175","","329","","","68","29","","","1","29","training","adjacent","BC","2","3","N.jpg","R.jpg","0","1","0","",""
"","feedback","","html-keyboard-response","204","299097","0.0-1.0-267.0-0.0","0","0","16175","","null","","","null","29","","","","","","","","","","","","","","","",""
"","time_out","","html-keyboard-response","205","301102","0.0-1.0-269.0-0.0","0","0","16175","","null","","","null","29","","","","","","","","","","","","","","","",""
"","ITI","","html-keyboard-response","206","302105","0.0-1.0-270.0","0","0","16175","","null","","","null","29","","","","","","","","","","","","","","","NaN",""
"","S1","","html-keyboard-response","207","302360","0.0-1.0-272.0","0","0","16175","","null","","","null","30","","","","","","","","","","","","","","","",""
"","ISI","","html-keyboard-response","208","302514","0.0-1.0-273.0","0","0","16175","","null","","","null","30","NaN","","","","","","","","","","","","","","",""
"","S2","","html-keyboard-response","209","302769","0.0-1.0-274.0","0","0","16175","","null","","","null","30","","NaN","","","","","","","","","","","","","",""
"","response","","html-keyboard-response","210","302796","0.0-1.0-275.0-0.0","0","0","16175","","23","","","68","30","","","1","30","training","adjacent","BA","2","1","N.jpg","M.jpg","0","0","1","",""
"","feedback","","html-keyboard-response","211","303801","0.0-1.0-276.0-0.0","0","0","16175","","null","","","null","30","","","","","","","","","","","","","","","",""
"","ITI","","html-keyboard-response","212","304804","0.0-1.0-279.0","0","0","16175","","null","","","null","30","","","","","","","","","","","","","","","NaN",""
"","S1","","html-keyboard-response","213","305058","0.0-1.0-281.0","0","0","16175","","null","","","null","31","","","","","","","","","","","","","","","",""
"","ISI","","html-keyboard-response","214","305211","0.0-1.0-282.0","0","0","16175","","null","","","null","31","NaN","","","","","","","","","","","","","","",""
"","S2","","html-keyboard-response","215","305466","0.0-1.0-283.0","0","0","16175","","null","","","null","31","","NaN","","","","","","","","","","","","","",""
"","response","","html-keyboard-response","216","305791","0.0-1.0-284.0-0.0","0","0","16175","","319","","","68","31","","","1","31","training","adjacent","CB","3","2","R.jpg","N.jpg","0","0","1","",""
"","feedback","","html-keyboard-response","217","306797","0.0-1.0-285.0-0.0","0","0","16175","","null","","","null","31","","","","","","","","","","","","","","","",""
"","ITI","","html-keyboard-response","218","307802","0.0-1.0-288.0","0","0","16175","","null","","","null","31","","","","","","","","","","","","","","","NaN",""
"","S1","","html-keyboard-response","219","308056","0.0-1.0-290.0","0","0","16175","","null","","","null","32","","","","","","","","","","","","","","","",""
"","ISI","","html-keyboard-response","220","308210","0.0-1.0-291.0","0","0","16175","","null","","","null","32","NaN","","","","","","","","","","","","","","",""
"","S2","","html-keyboard-response","221","308469","0.0-1.0-292.0","0","0","16175","","null","","","null","32","","NaN","","","","","","","","","","","","","",""
"","response","","html-keyboard-response","222","308584","0.0-1.0-293.0-0.0","0","0","16175","","112","","","68","32","","","1","32","training","adjacent","FG","6","7","P.jpg","O.jpg","0","1","0","",""
"","feedback","","html-keyboard-response","223","309589","0.0-1.0-294.0-0.0","0","0","16175","","null","","","null","32","","","","","","","","","","","","","","","",""
"","time_out","","html-keyboard-response","224","311593","0.0-1.0-296.0-0.0","0","0","16175","","null","","","null","32","","","","","","","","","","","","","","","",""
"","ITI","","html-keyboard-response","225","312606","0.0-1.0-297.0","0","0","16175","","null","","","null","32","","","","","","","","","","","","","","","NaN",""
"","S1","","html-keyboard-response","226","312860","0.0-1.0-299.0","0","0","16175","","null","","","null","33","","","","","","","","","","","","","","","",""
"","ISI","","html-keyboard-response","227","313014","0.0-1.0-300.0","0","0","16175","","null","","","null","33","NaN","","","","","","","","","","","","","","",""
"","S2","","html-keyboard-response","228","313249","0.0-1.0-301.0","0","0","16175","","229","","","68","33","","d","1","33","training","adjacent","CB","3","2","R.jpg","N.jpg","0","0","1","",""
"","feedback","","html-keyboard-response","229","314254","0.0-1.0-303.0-0.0","0","0","16175","","null","","","null","33","","","","","","","","","","","","","","","",""
"","ITI","","html-keyboard-response","230","315258","0.0-1.0-306.0","0","0","16175","","null","","","null","33","","","","","","","","","","","","","","","NaN",""
"","S1","","html-keyboard-response","231","315512","0.0-1.0-308.0","0","0","16175","","null","","","null","34","","","","","","","","","","","","","","","",""
"","ISI","","html-keyboard-response","232","315666","0.0-1.0-309.0","0","0","16175","","null","","","null","34","NaN","","","","","","","","","","","","","","",""
"","S2","","html-keyboard-response","233","315921","0.0-1.0-310.0","0","0","16175","","null","","","null","34","","NaN","","","","","","","","","","","","","",""
"","response","","html-keyboard-response","234","315947","0.0-1.0-311.0-0.0","0","0","16175","","21","","","68","34","","","1","34","training","adjacent","DC","4","3","L.jpg","R.jpg","0","0","1","",""
"","feedback","","html-keyboard-response","235","316952","0.0-1.0-312.0-0.0","0","0","16175","","null","","","null","34","","","","","","","","","","","","","","","",""
"","ITI","","html-keyboard-response","236","317956","0.0-1.0-315.0","0","0","16175","","null","","","null","34","","","","","","","","","","","","","","","NaN",""
"","S1","","html-keyboard-response","237","318210","0.0-1.0-317.0","0","0","16175","","null","","","null","35","","","","","","","","","","","","","","","",""
"","ISI","","html-keyboard-response","238","318363","0.0-1.0-318.0","0","0","16175","","null","","","null","35","NaN","","","","","","","","","","","","","","",""
"","S2","","html-keyboard-response","239","318619","0.0-1.0-319.0","0","0","16175","","null","","","null","35","","NaN","","","","","","","","","","","","","",""
"","response","","html-keyboard-response","240","318662","0.0-1.0-320.0-0.0","0","0","16175","","39","","","68","35","","","1","35","training","adjacent","FE","6","5","P.jpg","Q.jpg","0","0","1","",""
"","feedback","","html-keyboard-response","241","319667","0.0-1.0-321.0-0.0","0","0","16175","","null","","","null","35","","","","","","","","","","","","","","","",""
"","ITI","","html-keyboard-response","242","320672","0.0-1.0-324.0","0","0","16175","","null","","","null","35","","","","","","","","","","","","","","","NaN",""
"","S1","","html-keyboard-response","243","320925","0.0-1.0-326.0","0","0","16175","","null","","","null","36","","","","","","","","","","","","","","","",""
"","ISI","","html-keyboard-response","244","321078","0.0-1.0-327.0","0","0","16175","","null","","","null","36","NaN","","","","","","","","","","","","","","",""
"","S2","","html-keyboard-response","245","321313","0.0-1.0-328.0","0","0","16175","","229","","","68","36","","d","1","36","training","adjacent","EF","5","6","Q.jpg","P.jpg","0","1","0","",""
"","feedback","","html-keyboard-response","246","322318","0.0-1.0-330.0-0.0","0","0","16175","","null","","","null","36","","","","","","","","","","","","","","","",""
"","time_out","","html-keyboard-response","247","324322","0.0-1.0-332.0-0.0","0","0","16175","","null","","","null","36","","","","","","","","","","","","","","","",""
"","ITI","","html-keyboard-response","248","325326","0.0-1.0-333.0","0","0","16175","","null","","","null","36","","","","","","","","","","","","","","","NaN",""
"","S1","","html-keyboard-response","249","325583","0.0-1.0-335.0","0","0","16175","","null","","","null","37","","","","","","","","","","","","","","","",""
"","ISI","","html-keyboard-response","250","325735","0.0-1.0-336.0","0","0","16175","","126","","","68","37","d","","","","","","","","","","","","","","",""
"","S2","","html-keyboard-response","251","325990","0.0-1.0-337.0","0","0","16175","","null","","","null","37","","NaN","","","","","","","","","","","","","",""
"","response","","html-keyboard-response","252","326239","0.0-1.0-338.0-0.0","0","0","16175","","246","","","68","37","","","1","37","training","adjacent","DE","4","5","L.jpg","Q.jpg","0","1","0","",""
"","feedback","","html-keyboard-response","253","327245","0.0-1.0-339.0-0.0","0","0","16175","","null","","","null","37","","","","","","","","","","","","","","","",""
"","time_out","","html-keyboard-response","254","329248","0.0-1.0-341.0-0.0","0","0","16175","","null","","","null","37","","","","","","","","","","","","","","","",""
"","ITI","","html-keyboard-response","255","330255","0.0-1.0-342.0","0","0","16175","","null","","","null","37","","","","","","","","","","","","","","","NaN",""
"","S1","","html-keyboard-response","256","330509","0.0-1.0-344.0","0","0","16175","","null","","","null","38","","","","","","","","","","","","","","","",""
"","ISI","","html-keyboard-response","257","330663","0.0-1.0-345.0","0","0","16175","","null","","","null","38","NaN","","","","","","","","","","","","","","",""
"","S2","","html-keyboard-response","258","330917","0.0-1.0-346.0","0","0","16175","","249","","","68","38","","d","1","38","training","adjacent","ED","5","4","Q.jpg","L.jpg","0","0","1","",""
"","feedback","","html-keyboard-response","259","331922","0.0-1.0-348.0-0.0","0","0","16175","","null","","","null","38","","","","","","","","","","","","","","","",""
"","ITI","","html-keyboard-response","260","332926","0.0-1.0-351.0","0","0","16175","","null","","","null","38","","","","","","","","","","","","","","","NaN",""
"","S1","","html-keyboard-response","261","333181","0.0-1.0-353.0","0","0","16175","","null","","","null","39","","","","","","","","","","","","","","","",""
"","ISI","","html-keyboard-response","262","333335","0.0-1.0-354.0","0","0","16175","","null","","","null","39","NaN","","","","","","","","","","","","","","",""
"","S2","","html-keyboard-response","263","333590","0.0-1.0-355.0","0","0","16175","","null","","","null","39","","NaN","","","","","","","","","","","","","",""
"","response","","html-keyboard-response","264","333744","0.0-1.0-356.0-0.0","0","0","16175","","148","","","68","39","","","1","39","training","adjacent","EF","5","6","Q.jpg","P.jpg","0","1","0","",""
"","feedback","","html-keyboard-response","265","334749","0.0-1.0-357.0-0.0","0","0","16175","","null","","","null","39","","","","","","","","","","","","","","","",""
"","time_out","","html-keyboard-response","266","336754","0.0-1.0-359.0-0.0","0","0","16175","","null","","","null","39","","","","","","","","","","","","","","","",""
"","ITI","","html-keyboard-response","267","337759","0.0-1.0-360.0","0","0","16175","","null","","","null","39","","","","","","","","","","","","","","","NaN",""
"","S1","","html-keyboard-response","268","338012","0.0-1.0-362.0","0","0","16175","","null","","","null","40","","","","","","","","","","","","","","","",""
"","ISI","","html-keyboard-response","269","338166","0.0-1.0-363.0","0","0","16175","","null","","","null","40","NaN","","","","","","","","","","","","","","",""
"","S2","","html-keyboard-response","270","338387","0.0-1.0-364.0","0","0","16175","","215","","","68","40","","d","1","40","training","adjacent","GF","7","6","O.jpg","P.jpg","0","0","1","",""
"","feedback","","html-keyboard-response","271","339391","0.0-1.0-366.0-0.0","0","0","16175","","null","","","null","40","","","","","","","","","","","","","","","",""
"","ITI","","html-keyboard-response","272","340395","0.0-1.0-369.0","0","0","16175","","null","","","null","40","","","","","","","","","","","","","","","NaN",""
"","S1","","html-keyboard-response","273","340649","0.0-1.0-371.0","0","0","16175","","null","","","null","41","","","","","","","","","","","","","","","",""
"","ISI","","html-keyboard-response","274","340802","0.0-1.0-372.0","0","0","16175","","null","","","null","41","NaN","","","","","","","","","","","","","","",""
"","S2","","html-keyboard-response","275","341014","0.0-1.0-373.0","0","0","16175","","208","","","68","41","","d","1","41","training","adjacent","CD","3","4","R.jpg","L.jpg","0","1","0","",""
"","feedback","","html-keyboard-response","276","342017","0.0-1.0-375.0-0.0","0","0","16175","","null","","","null","41","","","","","","","","","","","","","","","",""
"","time_out","","html-keyboard-response","277","344021","0.0-1.0-377.0-0.0","0","0","16175","","null","","","null","41","","","","","","","","","","","","","","","",""
"","ITI","","html-keyboard-response","278","345025","0.0-1.0-378.0","0","0","16175","","null","","","null","41","","","","","","","","","","","","","","","NaN",""
"","S1","","html-keyboard-response","279","345279","0.0-1.0-380.0","0","0","16175","","null","","","null","42","","","","","","","","","","","","","","","",""
"","ISI","","html-keyboard-response","280","345432","0.0-1.0-381.0","0","0","16175","","null","","","null","42","NaN","","","","","","","","","","","","","","",""
"","S2","","html-keyboard-response","281","345632","0.0-1.0-382.0","0","0","16175","","194","","","68","42","","d","1","42","training","adjacent","DE","4","5","L.jpg","Q.jpg","0","1","0","",""
"","feedback","","html-keyboard-response","282","346637","0.0-1.0-384.0-0.0","0","0","16175","","null","","","null","42","","","","","","","","","","","","","","","",""
"","time_out","","html-keyboard-response","283","348651","0.0-1.0-386.0-0.0","0","0","16175","","null","","","null","42","","","","","","","","","","","","","","","",""
"","ITI","","html-keyboard-response","284","349655","0.0-1.0-387.0","0","0","16175","","null","","","null","42","","","","","","","","","","","","","","","NaN",""
"","S1","","html-keyboard-response","285","349909","0.0-1.0-389.0","0","0","16175","","null","","","null","43","","","","","","","","","","","","","","","",""
"","ISI","","html-keyboard-response","286","350064","0.0-1.0-390.0","0","0","16175","","null","","","null","43","NaN","","","","","","","","","","","","","","",""
"","S2","","html-keyboard-response","287","350295","0.0-1.0-391.0","0","0","16175","","225","","","68","43","","d","1","43","training","adjacent","BC","2","3","N.jpg","R.jpg","0","1","0","",""
"","feedback","","html-keyboard-response","288","351301","0.0-1.0-393.0-0.0","0","0","16175","","null","","","null","43","","","","","","","","","","","","","","","",""
"","time_out","","html-keyboard-response","289","353306","0.0-1.0-395.0-0.0","0","0","16175","","null","","","null","43","","","","","","","","","","","","","","","",""
"","ITI","","html-keyboard-response","290","354309","0.0-1.0-396.0","0","0","16175","","null","","","null","43","","","","","","","","","","","","","","","NaN",""
"","S1","","html-keyboard-response","291","354563","0.0-1.0-398.0","0","0","16175","","null","","","null","44","","","","","","","","","","","","","","","",""
"","ISI","","html-keyboard-response","292","354717","0.0-1.0-399.0","0","0","16175","","null","","","null","44","NaN","","","","","","","","","","","","","","",""
"","S2","","html-keyboard-response","293","354973","0.0-1.0-400.0","0","0","16175","","null","","","null","44","","NaN","","","","","","","","","","","","","",""
"","response","","html-keyboard-response","294","355060","0.0-1.0-401.0-0.0","0","0","16175","","83","","","68","44","","","1","44","training","adjacent","BA","2","1","N.jpg","M.jpg","0","0","1","",""
"","feedback","","html-keyboard-response","295","356066","0.0-1.0-402.0-0.0","0","0","16175","","null","","","null","44","","","","","","","","","","","","","","","",""
"","ITI","","html-keyboard-response","296","357071","0.0-1.0-405.0","0","0","16175","","null","","","null","44","","","","","","","","","","","","","","","NaN",""
"","S1","","html-keyboard-response","297","357326","0.0-1.0-407.0","0","0","16175","","null","","","null","45","","","","","","","","","","","","","","","",""
"","ISI","","html-keyboard-response","298","357480","0.0-1.0-408.0","0","0","16175","","null","","","null","45","NaN","","","","","","","","","","","","","","",""
"","S2","","html-keyboard-response","299","357735","0.0-1.0-409.0","0","0","16175","","null","","","null","45","","NaN","","","","","","","","","","","","","",""
"","response","","html-keyboard-response","300","357900","0.0-1.0-410.0-0.0","0","0","16175","","162","","","68","45","","","1","45","training","adjacent","DE","4","5","L.jpg","Q.jpg","0","1","0","",""
"","feedback","","html-keyboard-response","301","358916","0.0-1.0-411.0-0.0","0","0","16175","","null","","","null","45","","","","","","","","","","","","","","","",""
"","time_out","","html-keyboard-response","302","360932","0.0-1.0-413.0-0.0","0","0","16175","","null","","","null","45","","","","","","","","","","","","","","","",""
"","ITI","","html-keyboard-response","303","361937","0.0-1.0-414.0","0","0","16175","","null","","","null","45","","","","","","","","","","","","","","","NaN",""
"","S1","","html-keyboard-response","304","362190","0.0-1.0-416.0","0","0","16175","","null","","","null","46","","","","","","","","","","","","","","","",""
"","ISI","","html-keyboard-response","305","362344","0.0-1.0-417.0","0","0","16175","","null","","","null","46","NaN","","","","","","","","","","","","","","",""
"","S2","","html-keyboard-response","306","362550","0.0-1.0-418.0","0","0","16175","","202","","","68","46","","d","1","46","training","adjacent","AB","1","2","M.jpg","N.jpg","0","1","0","",""
"","feedback","","html-keyboard-response","307","363557","0.0-1.0-420.0-0.0","0","0","16175","","null","","","null","46","","","","","","","","","","","","","","","",""
"","time_out","","html-keyboard-response","308","365561","0.0-1.0-422.0-0.0","0","0","16175","","null","","","null","46","","","","","","","","","","","","","","","",""
"","ITI","","html-keyboard-response","309","366565","0.0-1.0-423.0","0","0","16175","","null","","","null","46","","","","","","","","","","","","","","","NaN",""
"","S1","","html-keyboard-response","310","366818","0.0-1.0-425.0","0","0","16175","","null","","","null","47","","","","","","","","","","","","","","","",""
"","ISI","","html-keyboard-response","311","366971","0.0-1.0-426.0","0","0","16175","","null","","","null","47","NaN","","","","","","","","","","","","","","",""
"","S2","","html-keyboard-response","312","367227","0.0-1.0-427.0","0","0","16175","","null","","","null","47","","NaN","","","","","","","","","","","","","",""
"","response","","html-keyboard-response","313","367268","0.0-1.0-428.0-0.0","0","0","16175","","37","","","68","47","","","1","47","training","adjacent","DC","4","3","L.jpg","R.jpg","0","0","1","",""
"","feedback","","html-keyboard-response","314","368273","0.0-1.0-429.0-0.0","0","0","16175","","null","","","null","47","","","","","","","","","","","","","","","",""
"","ITI","","html-keyboard-response","315","369278","0.0-1.0-432.0","0","0","16175","","null","","","null","47","","","","","","","","","","","","","","","NaN",""
"","block_over","","html-keyboard-response","316","373310","0.0-1.0-433.0-0.0","0","0","16175","","4030","","","32","47","","","","","","","","","","","","","","","",""
"","S1","","html-keyboard-response","317","373564","0.0-1.0-434.0","0","0","16175","","null","","","null","48","","","","","","","","","","","","","","","",""
"","ISI","","html-keyboard-response","318","373717","0.0-1.0-435.0","0","0","16175","","null","","","null","48","NaN","","","","","","","","","","","","","","",""
"","S2","","html-keyboard-response","319","373972","0.0-1.0-436.0","0","0","16175","","null","","","null","48","","NaN","","","","","","","","","","","","","",""
"","response","","html-keyboard-response","320","374040","0.0-1.0-437.0-0.0","0","0","16175","","63","","","68","48","","","2","48","training","adjacent","GF","7","6","O.jpg","P.jpg","0","0","1","",""
"","feedback","","html-keyboard-response","321","375046","0.0-1.0-438.0-0.0","0","0","16175","","null","","","null","48","","","","","","","","","","","","","","","",""
"","ITI","","html-keyboard-response","322","376049","0.0-1.0-441.0","0","0","16175","","null","","","null","48","","","","","","","","","","","","","","","NaN",""
"","S1","","html-keyboard-response","323","376303","0.0-1.0-443.0","0","0","16175","","null","","","null","49","","","","","","","","","","","","","","","",""
"","ISI","","html-keyboard-response","324","376458","0.0-1.0-444.0","0","0","16175","","null","","","null","49","NaN","","","","","","","","","","","","","","",""
"","S2","","html-keyboard-response","325","376714","0.0-1.0-445.0","0","0","16175","","null","","","null","49","","NaN","","","","","","","","","","","","","",""
"","response","","html-keyboard-response","326","376848","0.0-1.0-446.0-0.0","0","0","16175","","130","","","68","49","","","2","49","training","adjacent","FG","6","7","P.jpg","O.jpg","0","1","0","",""
"","feedback","","html-keyboard-response","327","377865","0.0-1.0-447.0-0.0","0","0","16175","","null","","","null","49","","","","","","","","","","","","","","","",""
"","time_out","","html-keyboard-response","328","379870","0.0-1.0-449.0-0.0","0","0","16175","","null","","","null","49","","","","","","","","","","","","","","","",""
"","ITI","","html-keyboard-response","329","380873","0.0-1.0-450.0","0","0","16175","","null","","","null","49","","","","","","","","","","","","","","","NaN",""
"","S1","","html-keyboard-response","330","381127","0.0-1.0-452.0","0","0","16175","","null","","","null","50","","","","","","","","","","","","","","","",""
"","ISI","","html-keyboard-response","331","381280","0.0-1.0-453.0","0","0","16175","","null","","","null","50","NaN","","","","","","","","","","","","","","",""
"","S2","","html-keyboard-response","332","381537","0.0-1.0-454.0","0","0","16175","","null","","","null","50","","NaN","","","","","","","","","","","","","",""
"","response","","html-keyboard-response","333","381585","0.0-1.0-455.0-0.0","0","0","16175","","44","","","68","50","","","2","50","training","adjacent","BA","2","1","N.jpg","M.jpg","0","0","1","",""
"","feedback","","html-keyboard-response","334","382591","0.0-1.0-456.0-0.0","0","0","16175","","null","","","null","50","","","","","","","","","","","","","","","",""
"","ITI","","html-keyboard-response","335","383595","0.0-1.0-459.0","0","0","16175","","null","","","null","50","","","","","","","","","","","","","","","NaN",""
"","S1","","html-keyboard-response","336","383850","0.0-1.0-461.0","0","0","16175","","null","","","null","51","","","","","","","","","","","","","","","",""
"","ISI","","html-keyboard-response","337","384003","0.0-1.0-462.0","0","0","16175","","null","","","null","51","NaN","","","","","","","","","","","","","","",""
"","S2","","html-keyboard-response","338","384260","0.0-1.0-463.0","0","0","16175","","null","","","null","51","","NaN","","","","","","","","","","","","","",""
"","response","","html-keyboard-response","339","384331","0.0-1.0-464.0-0.0","0","0","16175","","67","","","68","51","","","2","51","training","adjacent","FG","6","7","P.jpg","O.jpg","0","1","0","",""
"","feedback","","html-keyboard-response","340","385336","0.0-1.0-465.0-0.0","0","0","16175","","null","","","null","51","","","","","","","","","","","","","","","",""
"","time_out","","html-keyboard-response","341","387341","0.0-1.0-467.0-0.0","0","0","16175","","null","","","null","51","","","","","","","","","","","","","","","",""
"","ITI","","html-keyboard-response","342","388345","0.0-1.0-468.0","0","0","16175","","null","","","null","51","","","","","","","","","","","","","","","NaN",""
"","S1","","html-keyboard-response","343","388599","0.0-1.0-470.0","0","0","16175","","null","","","null","52","","","","","","","","","","","","","","","",""
"","ISI","","html-keyboard-response","344","388753","0.0-1.0-471.0","0","0","16175","","null","","","null","52","NaN","","","","","","","","","","","","","","",""
"","S2","","html-keyboard-response","345","388929","0.0-1.0-472.0","0","0","16175","","172","","","68","52","","d","2","52","training","adjacent","DC","4","3","L.jpg","R.jpg","0","0","1","",""
"","feedback","","html-keyboard-response","346","389935","0.0-1.0-474.0-0.0","0","0","16175","","null","","","null","52","","","","","","","","","","","","","","","",""
"","ITI","","html-keyboard-response","347","390940","0.0-1.0-477.0","0","0","16175","","null","","","null","52","","","","","","","","","","","","","","","NaN",""
"","S1","","html-keyboard-response","348","391196","0.0-1.0-479.0","0","0","16175","","null","","","null","53","","","","","","","","","","","","","","","",""
"","ISI","","html-keyboard-response","349","391349","0.0-1.0-480.0","0","0","16175","","null","","","null","53","NaN","","","","","","","","","","","","","","",""
"","S2","","html-keyboard-response","350","391605","0.0-1.0-481.0","0","0","16175","","null","","","null","53","","NaN","","","","","","","","","","","","","",""
"","response","","html-keyboard-response","351","391667","0.0-1.0-482.0-0.0","0","0","16175","","59","","","68","53","","","2","53","training","adjacent","CB","3","2","R.jpg","N.jpg","0","0","1","",""
"","feedback","","html-keyboard-response","352","392672","0.0-1.0-483.0-0.0","0","0","16175","","null","","","null","53","","","","","","","","","","","","","","","",""
"","ITI","","html-keyboard-response","353","393676","0.0-1.0-486.0","0","0","16175","","null","","","null","53","","","","","","","","","","","","","","","NaN",""
"","S1","","html-keyboard-response","354","393930","0.0-1.0-488.0","0","0","16175","","null","","","null","54","","","","","","","","","","","","","","","",""
"","ISI","","html-keyboard-response","355","394085","0.0-1.0-489.0","0","0","16175","","null","","","null","54","NaN","","","","","","","","","","","","","","",""
"","S2","","html-keyboard-response","356","394280","0.0-1.0-490.0","0","0","16175","","189","","","68","54","","d","2","54","training","adjacent","FE","6","5","P.jpg","Q.jpg","0","0","1","",""
"","feedback","","html-keyboard-response","357","395285","0.0-1.0-492.0-0.0","0","0","16175","","null","","","null","54","","","","","","","","","","","","","","","",""
"","ITI","","html-keyboard-response","358","396291","0.0-1.0-495.0","0","0","16175","","null","","","null","54","","","","","","","","","","","","","","","NaN",""
"","S1","","html-keyboard-response","359","396545","0.0-1.0-497.0","0","0","16175","","null","","","null","55","","","","","","","","","","","","","","","",""
"","ISI","","html-keyboard-response","360","396698","0.0-1.0-498.0","0","0","16175","","null","","","null","55","NaN","","","","","","","","","","","","","","",""
"","S2","","html-keyboard-response","361","396954","0.0-1.0-499.0","0","0","16175","","249","","","68","55","","d","2","55","training","adjacent","BA","2","1","N.jpg","M.jpg","0","0","1","",""
"","feedback","","html-keyboard-response","362","397959","0.0-1.0-501.0-0.0","0","0","16175","","null","","","null","55","","","","","","","","","","","","","","","",""
"","ITI","","html-keyboard-response","363","398965","0.0-1.0-504.0","0","0","16175","","null","","","null","55","","","","","","","","","","","","","","","NaN",""
"","S1","","html-keyboard-response","364","399219","0.0-1.0-506.0","0","0","16175","","null","","","null","56","","","","","","","","","","","","","","","",""
"","ISI","","html-keyboard-response","365","399372","0.0-1.0-507.0","0","0","16175","","null","","","null","56","NaN","","","","","","","","","","","","","","",""
"","S2","","html-keyboard-response","366","399581","0.0-1.0-508.0","0","0","16175","","205","","","68","56","","d","2","56","training","adjacent","CB","3","2","R.jpg","N.jpg","0","0","1","",""
"","feedback","","html-keyboard-response","367","400586","0.0-1.0-510.0-0.0","0","0","16175","","null","","","null","56","","","","","","","","","","","","","","","",""
"","ITI","","html-keyboard-response","368","401592","0.0-1.0-513.0","0","0","16175","","null","","","null","56","","","","","","","","","","","","","","","NaN",""
"","S1","","html-keyboard-response","369","401846","0.0-1.0-515.0","0","0","16175","","null","","","null","57","","","","","","","","","","","","","","","",""
"","ISI","","html-keyboard-response","370","402001","0.0-1.0-516.0","0","0","16175","","null","","","null","57","NaN","","","","","","","","","","","","","","",""
"","S2","","html-keyboard-response","371","402117","0.0-1.0-517.0","0","0","16175","","112","","","68","57","","d","2","57","training","adjacent","FE","6","5","P.jpg","Q.jpg","0","0","1","",""
"","feedback","","html-keyboard-response","372","403122","0.0-1.0-519.0-0.0","0","0","16175","","null","","","null","57","","","","","","","","","","","","","","","",""
"","ITI","","html-keyboard-response","373","404127","0.0-1.0-522.0","0","0","16175","","null","","","null","57","","","","","","","","","","","","","","","NaN",""
"","S1","","html-keyboard-response","374","404381","0.0-1.0-524.0","0","0","16175","","null","","","null","58","","","","","","","","","","","","","","","",""
"","ISI","","html-keyboard-response","375","404536","0.0-1.0-525.0","0","0","16175","","null","","","null","58","NaN","","","","","","","","","","","","","","",""
"","S2","","html-keyboard-response","376","404786","0.0-1.0-526.0","0","0","16175","","244","","","75","58","","k","2","58","training","adjacent","AB","1","2","M.jpg","N.jpg","1","1","1","",""
"","feedback","","html-keyboard-response","377","405792","0.0-1.0-528.0-0.0","0","0","16175","","null","","","null","58","","","","","","","","","","","","","","","",""
"","ITI","","html-keyboard-response","378","406795","0.0-1.0-531.0","0","0","16175","","null","","","null","58","","","","","","","","","","","","","","","NaN",""
"","S1","","html-keyboard-response","379","407050","0.0-1.0-533.0","0","0","16175","","null","","","null","59","","","","","","","","","","","","","","","",""
"","ISI","","html-keyboard-response","380","407204","0.0-1.0-534.0","0","0","16175","","null","","","null","59","NaN","","","","","","","","","","","","","","",""
"","S2","","html-keyboard-response","381","407423","0.0-1.0-535.0","0","0","16175","","215","","","68","59","","d","2","59","training","adjacent","BA","2","1","N.jpg","M.jpg","0","0","1","",""
"","feedback","","html-keyboard-response","382","408428","0.0-1.0-537.0-0.0","0","0","16175","","null","","","null","59","","","","","","","","","","","","","","","",""
"","ITI","","html-keyboard-response","383","409432","0.0-1.0-540.0","0","0","16175","","null","","","null","59","","","","","","","","","","","","","","","NaN",""
"","S1","","html-keyboard-response","384","409684","0.0-1.0-542.0","0","0","16175","","null","","","null","60","","","","","","","","","","","","","","","",""
"","ISI","","html-keyboard-response","385","409837","0.0-1.0-543.0","0","0","16175","","null","","","null","60","NaN","","","","","","","","","","","","","","",""
"","S2","","html-keyboard-response","386","410001","0.0-1.0-544.0","0","0","16175","","159","","","68","60","","d","2","60","training","adjacent","EF","5","6","Q.jpg","P.jpg","0","1","0","",""
"","feedback","","html-keyboard-response","387","411006","0.0-1.0-546.0-0.0","0","0","16175","","null","","","null","60","","","","","","","","","","","","","","","",""
"","time_out","","html-keyboard-response","388","413011","0.0-1.0-548.0-0.0","0","0","16175","","null","","","null","60","","","","","","","","","","","","","","","",""
"","ITI","","html-keyboard-response","389","414015","0.0-1.0-549.0","0","0","16175","","null","","","null","60","","","","","","","","","","","","","","","NaN",""
"","S1","","html-keyboard-response","390","414270","0.0-1.0-551.0","0","0","16175","","null","","","null","61","","","","","","","","","","","","","","","",""
"","ISI","","html-keyboard-response","391","414423","0.0-1.0-552.0","0","0","16175","","null","","","null","61","NaN","","","","","","","","","","","","","","",""
"","S2","","html-keyboard-response","392","414677","0.0-1.0-553.0","0","0","16175","","null","","","null","61","","NaN","","","","","","","","","","","","","",""
"","response","","html-keyboard-response","393","414727","0.0-1.0-554.0-0.0","0","0","16175","","45","","","75","61","","","2","61","training","adjacent","BC","2","3","N.jpg","R.jpg","1","1","1","",""
"","feedback","","html-keyboard-response","394","415733","0.0-1.0-555.0-0.0","0","0","16175","","null","","","null","61","","","","","","","","","","","","","","","",""
"","ITI","","html-keyboard-response","395","416736","0.0-1.0-558.0","0","0","16175","","null","","","null","61","","","","","","","","","","","","","","","NaN",""
"","S1","","html-keyboard-response","396","416990","0.0-1.0-560.0","0","0","16175","","null","","","null","62","","","","","","","","","","","","","","","",""
"","ISI","","html-keyboard-response","397","417144","0.0-1.0-561.0","0","0","16175","","null","","","null","62","NaN","","","","","","","","","","","","","","",""
"","S2","","html-keyboard-response","398","417399","0.0-1.0-562.0","0","0","16175","","null","","","null","62","","NaN","","","","","","","","","","","","","",""
"","response","","html-keyboard-response","399","417490","0.0-1.0-563.0-0.0","0","0","16175","","86","","","68","62","","","2","62","training","adjacent","CB","3","2","R.jpg","N.jpg","0","0","1","",""
"","feedback","","html-keyboard-response","400","418497","0.0-1.0-564.0-0.0","0","0","16175","","null","","","null","62","","","","","","","","","","","","","","","",""
"","ITI","","html-keyboard-response","401","419501","0.0-1.0-567.0","0","0","16175","","null","","","null","62","","","","","","","","","","","","","","","NaN",""
"","S1","","html-keyboard-response","402","419755","0.0-1.0-569.0","0","0","16175","","null","","","null","63","","","","","","","","","","","","","","","",""
"","ISI","","html-keyboard-response","403","419909","0.0-1.0-570.0","0","0","16175","","null","","","null","63","NaN","","","","","","","","","","","","","","",""
"","S2","","html-keyboard-response","404","420068","0.0-1.0-571.0","0","0","16175","","155","","","68","63","","d","2","63","training","adjacent","CD","3","4","R.jpg","L.jpg","0","1","0","",""
"","feedback","","html-keyboard-response","405","421075","0.0-1.0-573.0-0.0","0","0","16175","","null","","","null","63","","","","","","","","","","","","","","","",""
"","time_out","","html-keyboard-response","406","423078","0.0-1.0-575.0-0.0","0","0","16175","","null","","","null","63","","","","","","","","","","","","","","","",""
"","ITI","","html-keyboard-response","407","424083","0.0-1.0-576.0","0","0","16175","","null","","","null","63","","","","","","","","","","","","","","","NaN",""
"","S1","","html-keyboard-response","408","424338","0.0-1.0-578.0","0","0","16175","","null","","","null","64","","","","","","","","","","","","","","","",""
"","ISI","","html-keyboard-response","409","424491","0.0-1.0-579.0","0","0","16175","","null","","","null","64","NaN","","","","","","","","","","","","","","",""
"","S2","","html-keyboard-response","410","424747","0.0-1.0-580.0","0","0","16175","","null","","","null","64","","NaN","","","","","","","","","","","","","",""
"","response","","html-keyboard-response","411","424786","0.0-1.0-581.0-0.0","0","0","16175","","35","","","68","64","","","2","64","training","adjacent","ED","5","4","Q.jpg","L.jpg","0","0","1","",""
"","feedback","","html-keyboard-response","412","425793","0.0-1.0-582.0-0.0","0","0","16175","","null","","","null","64","","","","","","","","","","","","","","","",""
"","ITI","","html-keyboard-response","413","426798","0.0-1.0-585.0","0","0","16175","","null","","","null","64","","","","","","","","","","","","","","","NaN",""
"","S1","","html-keyboard-response","414","427052","0.0-1.0-587.0","0","0","16175","","null","","","null","65","","","","","","","","","","","","","","","",""
"","ISI","","html-keyboard-response","415","427205","0.0-1.0-588.0","0","0","16175","","null","","","null","65","NaN","","","","","","","","","","","","","","",""
"","S2","","html-keyboard-response","416","427269","0.0-1.0-589.0","0","0","16175","","59","","","68","65","","d","2","65","training","adjacent","GF","7","6","O.jpg","P.jpg","0","0","1","",""
"","feedback","","html-keyboard-response","417","428274","0.0-1.0-591.0-0.0","0","0","16175","","null","","","null","65","","","","","","","","","","","","","","","",""
"","ITI","","html-keyboard-response","418","429277","0.0-1.0-594.0","0","0","16175","","null","","","null","65","","","","","","","","","","","","","","","NaN",""
"","S1","","html-keyboard-response","419","429533","0.0-1.0-596.0","0","0","16175","","null","","","null","66","","","","","","","","","","","","","","","",""
"","ISI","","html-keyboard-response","420","429689","0.0-1.0-597.0","0","0","16175","","111","","","68","66","d","","","","","","","","","","","","","","",""
"","S2","","html-keyboard-response","421","429948","0.0-1.0-598.0","0","0","16175","","null","","","null","66","","NaN","","","","","","","","","","","","","",""
"","response","","html-keyboard-response","422","430129","0.0-1.0-599.0-0.0","0","0","16175","","175","","","68","66","","","2","66","training","adjacent","GF","7","6","O.jpg","P.jpg","0","0","1","",""
"","feedback","","html-keyboard-response","423","431134","0.0-1.0-600.0-0.0","0","0","16175","","null","","","null","66","","","","","","","","","","","","","","","",""
"","ITI","","html-keyboard-response","424","432139","0.0-1.0-603.0","0","0","16175","","null","","","null","66","","","","","","","","","","","","","","","NaN",""
"","S1","","html-keyboard-response","425","432392","0.0-1.0-605.0","0","0","16175","","null","","","null","67","","","","","","","","","","","","","","","",""
"","ISI","","html-keyboard-response","426","432546","0.0-1.0-606.0","0","0","16175","","null","","","null","67","NaN","","","","","","","","","","","","","","",""
"","S2","","html-keyboard-response","427","432768","0.0-1.0-607.0","0","0","16175","","216","","","68","67","","d","2","67","training","adjacent","ED","5","4","Q.jpg","L.jpg","0","0","1","",""
"","feedback","","html-keyboard-response","428","433775","0.0-1.0-609.0-0.0","0","0","16175","","null","","","null","67","","","","","","","","","","","","","","","",""
"","ITI","","html-keyboard-response","429","434781","0.0-1.0-612.0","0","0","16175","","null","","","null","67","","","","","","","","","","","","","","","NaN",""
"","S1","","html-keyboard-response","430","435036","0.0-1.0-614.0","0","0","16175","","null","","","null","68","","","","","","","","","","","","","","","",""
"","ISI","","html-keyboard-response","431","435191","0.0-1.0-615.0","0","0","16175","","null","","","null","68","NaN","","","","","","","","","","","","","","",""
"","S2","","html-keyboard-response","432","435436","0.0-1.0-616.0","0","0","16175","","242","","","75","68","","k","2","68","training","adjacent","DC","4","3","L.jpg","R.jpg","1","0","0","",""
"","feedback","","html-keyboard-response","433","436441","0.0-1.0-618.0-0.0","0","0","16175","","null","","","null","68","","","","","","","","","","","","","","","",""
"","time_out","","html-keyboard-response","434","438446","0.0-1.0-620.0-0.0","0","0","16175","","null","","","null","68","","","","","","","","","","","","","","","",""
"","ITI","","html-keyboard-response","435","439450","0.0-1.0-621.0","0","0","16175","","null","","","null","68","","","","","","","","","","","","","","","NaN",""
"","S1","","html-keyboard-response","436","439703","0.0-1.0-623.0","0","0","16175","","null","","","null","69","","","","","","","","","","","","","","","",""
"","ISI","","html-keyboard-response","437","439856","0.0-1.0-624.0","0","0","16175","","null","","","null","69","NaN","","","","","","","","","","","","","","",""
"","S2","","html-keyboard-response","438","440111","0.0-1.0-625.0","0","0","16175","","null","","","null","69","","NaN","","","","","","","","","","","","","",""
"","response","","html-keyboard-response","439","440325","0.0-1.0-626.0-0.0","0","0","16175","","208","","","75","69","","","2","69","training","adjacent","FG","6","7","P.jpg","O.jpg","1","1","1","",""
"","feedback","","html-keyboard-response","440","441330","0.0-1.0-627.0-0.0","0","0","16175","","null","","","null","69","","","","","","","","","","","","","","","",""
"","ITI","","html-keyboard-response","441","442333","0.0-1.0-630.0","0","0","16175","","null","","","null","69","","","","","","","","","","","","","","","NaN",""
"","S1","","html-keyboard-response","442","442587","0.0-1.0-632.0","0","0","16175","","null","","","null","70","","","","","","","","","","","","","","","",""
"","ISI","","html-keyboard-response","443","442747","0.0-1.0-633.0","0","0","16175","","null","","","null","70","NaN","","","","","","","","","","","","","","",""
"","S2","","html-keyboard-response","444","442813","0.0-1.0-634.0","0","0","16175","","56","","","68","70","","d","2","70","training","adjacent","CD","3","4","R.jpg","L.jpg","0","1","0","",""
"","feedback","","html-keyboard-response","445","443817","0.0-1.0-636.0-0.0","0","0","16175","","null","","","null","70","","","","","","","","","","","","","","","",""
"","time_out","","html-keyboard-response","446","445821","0.0-1.0-638.0-0.0","0","0","16175","","null","","","null","70","","","","","","","","","","","","","","","",""
"","ITI","","html-keyboard-response","447","446826","0.0-1.0-639.0","0","0","16175","","null","","","null","70","","","","","","","","","","","","","","","NaN",""
"","S1","","html-keyboard-response","448","447081","0.0-1.0-641.0","0","0","16175","","null","","","null","71","","","","","","","","","","","","","","","",""
"","ISI","","html-keyboard-response","449","447235","0.0-1.0-642.0","0","0","16175","","null","","","null","71","NaN","","","","","","","","","","","","","","",""
"","S2","","html-keyboard-response","450","447490","0.0-1.0-643.0","0","0","16175","","null","","","null","71","","NaN","","","","","","","","","","","","","",""
"","response","","html-keyboard-response","451","447709","0.0-1.0-644.0-0.0","0","0","16175","","215","","","68","71","","","2","71","training","adjacent","CB","3","2","R.jpg","N.jpg","0","0","1","",""
"","feedback","","html-keyboard-response","452","448715","0.0-1.0-645.0-0.0","0","0","16175","","null","","","null","71","","","","","","","","","","","","","","","",""
"","ITI","","html-keyboard-response","453","449719","0.0-1.0-648.0","0","0","16175","","null","","","null","71","","","","","","","","","","","","","","","NaN",""
"","S1","","html-keyboard-response","454","449974","0.0-1.0-650.0","0","0","16175","","null","","","null","72","","","","","","","","","","","","","","","",""
"","ISI","","html-keyboard-response","455","450128","0.0-1.0-651.0","0","0","16175","","null","","","null","72","NaN","","","","","","","","","","","","","","",""
"","S2","","html-keyboard-response","456","450384","0.0-1.0-652.0","0","0","16175","","null","","","null","72","","NaN","","","","","","","","","","","","","",""
"","response","","html-keyboard-response","457","450960","0.0-1.0-653.0-0.0","0","0","16175","","572","","","68","72","","","2","72","training","adjacent","DE","4","5","L.jpg","Q.jpg","0","1","0","",""
"","feedback","","html-keyboard-response","458","451966","0.0-1.0-654.0-0.0","0","0","16175","","null","","","null","72","","","","","","","","","","","","","","","",""
"","time_out","","html-keyboard-response","459","453972","0.0-1.0-656.0-0.0","0","0","16175","","null","","","null","72","","","","","","","","","","","","","","","",""
"","ITI","","html-keyboard-response","460","454976","0.0-1.0-657.0","0","0","16175","","null","","","null","72","","","","","","","","","","","","","","","NaN",""
"","S1","","html-keyboard-response","461","455237","0.0-1.0-659.0","0","0","16175","","null","","","null","73","","","","","","","","","","","","","","","",""
"","ISI","","html-keyboard-response","462","455390","0.0-1.0-660.0","0","0","16175","","null","","","null","73","NaN","","","","","","","","","","","","","","",""
"","S2","","html-keyboard-response","463","455623","0.0-1.0-661.0","0","0","16175","","229","","","68","73","","d","2","73","training","adjacent","ED","5","4","Q.jpg","L.jpg","0","0","1","",""
"","feedback","","html-keyboard-response","464","456628","0.0-1.0-663.0-0.0","0","0","16175","","null","","","null","73","","","","","","","","","","","","","","","",""
"","ITI","","html-keyboard-response","465","457633","0.0-1.0-666.0","0","0","16175","","null","","","null","73","","","","","","","","","","","","","","","NaN",""
"","S1","","html-keyboard-response","466","457887","0.0-1.0-668.0","0","0","16175","","null","","","null","74","","","","","","","","","","","","","","","",""
"","ISI","","html-keyboard-response","467","458041","0.0-1.0-669.0","0","0","16175","","null","","","null","74","NaN","","","","","","","","","","","","","","",""
"","S2","","html-keyboard-response","468","458297","0.0-1.0-670.0","0","0","16175","","null","","","null","74","","NaN","","","","","","","","","","","","","",""
"","response","","html-keyboard-response","469","458361","0.0-1.0-671.0-0.0","0","0","16175","","59","","","68","74","","","2","74","training","adjacent","EF","5","6","Q.jpg","P.jpg","0","1","0","",""
"","feedback","","html-keyboard-response","470","459365","0.0-1.0-672.0-0.0","0","0","16175","","null","","","null","74","","","","","","","","","","","","","","","",""
"","time_out","","html-keyboard-response","471","461369","0.0-1.0-674.0-0.0","0","0","16175","","null","","","null","74","","","","","","","","","","","","","","","",""
"","ITI","","html-keyboard-response","472","462372","0.0-1.0-675.0","0","0","16175","","null","","","null","74","","","","","","","","","","","","","","","NaN",""
"","S1","","html-keyboard-response","473","462626","0.0-1.0-677.0","0","0","16175","","null","","","null","75","","","","","","","","","","","","","","","",""
"","ISI","","html-keyboard-response","474","462780","0.0-1.0-678.0","0","0","16175","","null","","","null","75","NaN","","","","","","","","","","","","","","",""
"","S2","","html-keyboard-response","475","463036","0.0-1.0-679.0","0","0","16175","","null","","","null","75","","NaN","","","","","","","","","","","","","",""
"","response","","html-keyboard-response","476","463064","0.0-1.0-680.0-0.0","0","0","16175","","23","","","68","75","","","2","75","training","adjacent","FG","6","7","P.jpg","O.jpg","0","1","0","",""
"","feedback","","html-keyboard-response","477","464070","0.0-1.0-681.0-0.0","0","0","16175","","null","","","null","75","","","","","","","","","","","","","","","",""
"","time_out","","html-keyboard-response","478","466075","0.0-1.0-683.0-0.0","0","0","16175","","null","","","null","75","","","","","","","","","","","","","","","",""
"","ITI","","html-keyboard-response","479","467079","0.0-1.0-684.0","0","0","16175","","null","","","null","75","","","","","","","","","","","","","","","NaN",""
"","S1","","html-keyboard-response","480","467333","0.0-1.0-686.0","0","0","16175","","null","","","null","76","","","","","","","","","","","","","","","",""
"","ISI","","html-keyboard-response","481","467487","0.0-1.0-687.0","0","0","16175","","null","","","null","76","NaN","","","","","","","","","","","","","","",""
"","S2","","html-keyboard-response","482","467681","0.0-1.0-688.0","0","0","16175","","188","","","75","76","","k","2","76","training","adjacent","BC","2","3","N.jpg","R.jpg","1","1","1","",""
"","feedback","","html-keyboard-response","483","468687","0.0-1.0-690.0-0.0","0","0","16175","","null","","","null","76","","","","","","","","","","","","","","","",""
"","ITI","","html-keyboard-response","484","469690","0.0-1.0-693.0","0","0","16175","","null","","","null","76","","","","","","","","","","","","","","","NaN",""
"","S1","","html-keyboard-response","485","469945","0.0-1.0-695.0","0","0","16175","","null","","","null","77","","","","","","","","","","","","","","","",""
"","ISI","","html-keyboard-response","486","470098","0.0-1.0-696.0","0","0","16175","","null","","","null","77","NaN","","","","","","","","","","","","","","",""
"","S2","","html-keyboard-response","487","470354","0.0-1.0-697.0","0","0","16175","","null","","","null","77","","NaN","","","","","","","","","","","","","",""
"","response","","html-keyboard-response","488","470416","0.0-1.0-698.0-0.0","0","0","16175","","58","","","75","77","","","2","77","training","adjacent","DE","4","5","L.jpg","Q.jpg","1","1","1","",""
"","feedback","","html-keyboard-response","489","471421","0.0-1.0-699.0-0.0","0","0","16175","","null","","","null","77","","","","","","","","","","","","","","","",""
"","ITI","","html-keyboard-response","490","472426","0.0-1.0-702.0","0","0","16175","","null","","","null","77","","","","","","","","","","","","","","","NaN",""
"","S1","","html-keyboard-response","491","472679","0.0-1.0-704.0","0","0","16175","","null","","","null","78","","","","","","","","","","","","","","","",""
"","ISI","","html-keyboard-response","492","472834","0.0-1.0-705.0","0","0","16175","","null","","","null","78","NaN","","","","","","","","","","","","","","",""
"","S2","","html-keyboard-response","493","473089","0.0-1.0-706.0","0","0","16175","","null","","","null","78","","NaN","","","","","","","","","","","","","",""
"","response","","html-keyboard-response","494","473125","0.0-1.0-707.0-0.0","0","0","16175","","31","","","75","78","","","2","78","training","adjacent","EF","5","6","Q.jpg","P.jpg","1","1","1","",""
"","feedback","","html-keyboard-response","495","474132","0.0-1.0-708.0-0.0","0","0","16175","","null","","","null","78","","","","","","","","","","","","","","","",""
"","ITI","","html-keyboard-response","496","475136","0.0-1.0-711.0","0","0","16175","","null","","","null","78","","","","","","","","","","","","","","","NaN",""
"","S1","","html-keyboard-response","497","475390","0.0-1.0-713.0","0","0","16175","","null","","","null","79","","","","","","","","","","","","","","","",""
"","ISI","","html-keyboard-response","498","475546","0.0-1.0-714.0","0","0","16175","","null","","","null","79","NaN","","","","","","","","","","","","","","",""
"","S2","","html-keyboard-response","499","475801","0.0-1.0-715.0","0","0","16175","","null","","","null","79","","NaN","","","","","","","","","","","","","",""
"","response","","html-keyboard-response","500","475894","0.0-1.0-716.0-0.0","0","0","16175","","89","","","75","79","","","2","79","training","adjacent","DC","4","3","L.jpg","R.jpg","1","0","0","",""
"","feedback","","html-keyboard-response","501","476899","0.0-1.0-717.0-0.0","0","0","16175","","null","","","null","79","","","","","","","","","","","","","","","",""
"","time_out","","html-keyboard-response","502","478905","0.0-1.0-719.0-0.0","0","0","16175","","null","","","null","79","","","","","","","","","","","","","","","",""
"","ITI","","html-keyboard-response","503","479909","0.0-1.0-720.0","0","0","16175","","null","","","null","79","","","","","","","","","","","","","","","NaN",""
"","S1","","html-keyboard-response","504","480165","0.0-1.0-722.0","0","0","16175","","null","","","null","80","","","","","","","","","","","","","","","",""
"","ISI","","html-keyboard-response","505","480319","0.0-1.0-723.0","0","0","16175","","null","","","null","80","NaN","","","","","","","","","","","","","","",""
"","S2","","html-keyboard-response","506","480492","0.0-1.0-724.0","0","0","16175","","169","","","68","80","","d","2","80","training","adjacent","GF","7","6","O.jpg","P.jpg","0","0","1","",""
"","feedback","","html-keyboard-response","507","481499","0.0-1.0-726.0-0.0","0","0","16175","","null","","","null","80","","","","","","","","","","","","","","","",""
"","ITI","","html-keyboard-response","508","482504","0.0-1.0-729.0","0","0","16175","","null","","","null","80","","","","","","","","","","","","","","","NaN",""
"","S1","","html-keyboard-response","509","482758","0.0-1.0-731.0","0","0","16175","","null","","","null","81","","","","","","","","","","","","","","","",""
"","ISI","","html-keyboard-response","510","482913","0.0-1.0-732.0","0","0","16175","","null","","","null","81","NaN","","","","","","","","","","","","","","",""
"","S2","","html-keyboard-response","511","483129","0.0-1.0-733.0","0","0","16175","","210","","","68","81","","d","2","81","training","adjacent","DE","4","5","L.jpg","Q.jpg","0","1","0","",""
"","feedback","","html-keyboard-response","512","484133","0.0-1.0-735.0-0.0","0","0","16175","","null","","","null","81","","","","","","","","","","","","","","","",""
"","time_out","","html-keyboard-response","513","486136","0.0-1.0-737.0-0.0","0","0","16175","","null","","","null","81","","","","","","","","","","","","","","","",""
"","ITI","","html-keyboard-response","514","487141","0.0-1.0-738.0","0","0","16175","","null","","","null","81","","","","","","","","","","","","","","","NaN",""
"","S1","","html-keyboard-response","515","487395","0.0-1.0-740.0","0","0","16175","","null","","","null","82","","","","","","","","","","","","","","","",""
"","ISI","","html-keyboard-response","516","487549","0.0-1.0-741.0","0","0","16175","","null","","","null","82","NaN","","","","","","","","","","","","","","",""
"","S2","","html-keyboard-response","517","487672","0.0-1.0-742.0","0","0","16175","","118","","","68","82","","d","2","82","training","adjacent","AB","1","2","M.jpg","N.jpg","0","1","0","",""
"","feedback","","html-keyboard-response","518","488676","0.0-1.0-744.0-0.0","0","0","16175","","null","","","null","82","","","","","","","","","","","","","","","",""
"","time_out","","html-keyboard-response","519","490681","0.0-1.0-746.0-0.0","0","0","16175","","null","","","null","82","","","","","","","","","","","","","","","",""
"","ITI","","html-keyboard-response","520","491685","0.0-1.0-747.0","0","0","16175","","null","","","null","82","","","","","","","","","","","","","","","NaN",""
"","S1","","html-keyboard-response","521","491939","0.0-1.0-749.0","0","0","16175","","null","","","null","83","","","","","","","","","","","","","","","",""
"","ISI","","html-keyboard-response","522","492093","0.0-1.0-750.0","0","0","16175","","null","","","null","83","NaN","","","","","","","","","","","","","","",""
"","S2","","html-keyboard-response","523","492348","0.0-1.0-751.0","0","0","16175","","null","","","null","83","","NaN","","","","","","","","","","","","","",""
"","response","","html-keyboard-response","524","492421","0.0-1.0-752.0-0.0","0","0","16175","","68","","","68","83","","","2","83","training","adjacent","BA","2","1","N.jpg","M.jpg","0","0","1","",""
"","feedback","","html-keyboard-response","525","493426","0.0-1.0-753.0-0.0","0","0","16175","","null","","","null","83","","","","","","","","","","","","","","","",""
"","ITI","","html-keyboard-response","526","494430","0.0-1.0-756.0","0","0","16175","","null","","","null","83","","","","","","","","","","","","","","","NaN",""
"","S1","","html-keyboard-response","527","494685","0.0-1.0-758.0","0","0","16175","","null","","","null","84","","","","","","","","","","","","","","","",""
"","ISI","","html-keyboard-response","528","494847","0.0-1.0-759.0","0","0","16175","","null","","","null","84","NaN","","","","","","","","","","","","","","",""
"","S2","","html-keyboard-response","529","495102","0.0-1.0-760.0","0","0","16175","","null","","","null","84","","NaN","","","","","","","","","","","","","",""
"","response","","html-keyboard-response","530","495192","0.0-1.0-761.0-0.0","0","0","16175","","85","","","68","84","","","2","84","training","adjacent","FE","6","5","P.jpg","Q.jpg","0","0","1","",""
"","feedback","","html-keyboard-response","531","496197","0.0-1.0-762.0-0.0","0","0","16175","","null","","","null","84","","","","","","","","","","","","","","","",""
"","ITI","","html-keyboard-response","532","497202","0.0-1.0-765.0","0","0","16175","","null","","","null","84","","","","","","","","","","","","","","","NaN",""
"","S1","","html-keyboard-response","533","497457","0.0-1.0-767.0","0","0","16175","","null","","","null","85","","","","","","","","","","","","","","","",""
"","ISI","","html-keyboard-response","534","497610","0.0-1.0-768.0","0","0","16175","","null","","","null","85","NaN","","","","","","","","","","","","","","",""
"","S2","","html-keyboard-response","535","497866","0.0-1.0-769.0","0","0","16175","","null","","","null","85","","NaN","","","","","","","","","","","","","",""
"","response","","html-keyboard-response","536","498051","0.0-1.0-770.0-0.0","0","0","16175","","180","","","68","85","","","2","85","training","adjacent","AB","1","2","M.jpg","N.jpg","0","1","0","",""
"","feedback","","html-keyboard-response","537","499056","0.0-1.0-771.0-0.0","0","0","16175","","null","","","null","85","","","","","","","","","","","","","","","",""
"","time_out","","html-keyboard-response","538","501062","0.0-1.0-773.0-0.0","0","0","16175","","null","","","null","85","","","","","","","","","","","","","","","",""
"","ITI","","html-keyboard-response","539","502066","0.0-1.0-774.0","0","0","16175","","null","","","null","85","","","","","","","","","","","","","","","NaN",""
"","S1","","html-keyboard-response","540","502321","0.0-1.0-776.0","0","0","16175","","null","","","null","86","","","","","","","","","","","","","","","",""
"","ISI","","html-keyboard-response","541","502476","0.0-1.0-777.0","0","0","16175","","null","","","null","86","NaN","","","","","","","","","","","","","","",""
"","S2","","html-keyboard-response","542","502731","0.0-1.0-778.0","0","0","16175","","null","","","null","86","","NaN","","","","","","","","","","","","","",""
"","response","","html-keyboard-response","543","502973","0.0-1.0-779.0-0.0","0","0","16175","","235","","","68","86","","","2","86","training","adjacent","ED","5","4","Q.jpg","L.jpg","0","0","1","",""
"","feedback","","html-keyboard-response","544","503984","0.0-1.0-780.0-0.0","0","0","16175","","null","","","null","86","","","","","","","","","","","","","","","",""
"","ITI","","html-keyboard-response","545","504990","0.0-1.0-783.0","0","0","16175","","null","","","null","86","","","","","","","","","","","","","","","NaN",""
"","S1","","html-keyboard-response","546","505245","0.0-1.0-785.0","0","0","16175","","null","","","null","87","","","","","","","","","","","","","","","",""
"","ISI","","html-keyboard-response","547","505399","0.0-1.0-786.0","0","0","16175","","null","","","null","87","NaN","","","","","","","","","","","","","","",""
"","S2","","html-keyboard-response","548","505655","0.0-1.0-787.0","0","0","16175","","null","","","null","87","","NaN","","","","","","","","","","","","","",""
"","response","","html-keyboard-response","549","505748","0.0-1.0-788.0-0.0","0","0","16175","","88","","","68","87","","","2","87","training","adjacent","DE","4","5","L.jpg","Q.jpg","0","1","0","",""
"","feedback","","html-keyboard-response","550","506755","0.0-1.0-789.0-0.0","0","0","16175","","null","","","null","87","","","","","","","","","","","","","","","",""
"","time_out","","html-keyboard-response","551","508760","0.0-1.0-791.0-0.0","0","0","16175","","null","","","null","87","","","","","","","","","","","","","","","",""
"","ITI","","html-keyboard-response","552","509765","0.0-1.0-792.0","0","0","16175","","null","","","null","87","","","","","","","","","","","","","","","NaN",""
"","S1","","html-keyboard-response","553","510019","0.0-1.0-794.0","0","0","16175","","null","","","null","88","","","","","","","","","","","","","","","",""
"","ISI","","html-keyboard-response","554","510174","0.0-1.0-795.0","0","0","16175","","null","","","null","88","NaN","","","","","","","","","","","","","","",""
"","S2","","html-keyboard-response","555","510338","0.0-1.0-796.0","0","0","16175","","160","","","68","88","","d","2","88","training","adjacent","DC","4","3","L.jpg","R.jpg","0","0","1","",""
"","feedback","","html-keyboard-response","556","511344","0.0-1.0-798.0-0.0","0","0","16175","","null","","","null","88","","","","","","","","","","","","","","","",""
"","ITI","","html-keyboard-response","557","512348","0.0-1.0-801.0","0","0","16175","","null","","","null","88","","","","","","","","","","","","","","","NaN",""
"","S1","","html-keyboard-response","558","512604","0.0-1.0-803.0","0","0","16175","","null","","","null","89","","","","","","","","","","","","","","","",""
"","ISI","","html-keyboard-response","559","512758","0.0-1.0-804.0","0","0","16175","","null","","","null","89","NaN","","","","","","","","","","","","","","",""
"","S2","","html-keyboard-response","560","513013","0.0-1.0-805.0","0","0","16175","","null","","","null","89","","NaN","","","","","","","","","","","","","",""
"","response","","html-keyboard-response","561","513083","0.0-1.0-806.0-0.0","0","0","16175","","66","","","68","89","","","2","89","training","adjacent","FE","6","5","P.jpg","Q.jpg","0","0","1","",""
"","feedback","","html-keyboard-response","562","514088","0.0-1.0-807.0-0.0","0","0","16175","","null","","","null","89","","","","","","","","","","","","","","","",""
"","ITI","","html-keyboard-response","563","515092","0.0-1.0-810.0","0","0","16175","","null","","","null","89","","","","","","","","","","","","","","","NaN",""
"","S1","","html-keyboard-response","564","515347","0.0-1.0-812.0","0","0","16175","","null","","","null","90","","","","","","","","","","","","","","","",""
"","ISI","","html-keyboard-response","565","515502","0.0-1.0-813.0","0","0","16175","","null","","","null","90","NaN","","","","","","","","","","","","","","",""
"","S2","","html-keyboard-response","566","515757","0.0-1.0-814.0","0","0","16175","","null","","","null","90","","NaN","","","","","","","","","","","","","",""
"","response","","html-keyboard-response","567","515791","0.0-1.0-815.0-0.0","0","0","16175","","30","","","68","90","","","2","90","training","adjacent","BC","2","3","N.jpg","R.jpg","0","1","0","",""
"","feedback","","html-keyboard-response","568","516797","0.0-1.0-816.0-0.0","0","0","16175","","null","","","null","90","","","","","","","","","","","","","","","",""
"","time_out","","html-keyboard-response","569","518802","0.0-1.0-818.0-0.0","0","0","16175","","null","","","null","90","","","","","","","","","","","","","","","",""
"","ITI","","html-keyboard-response","570","519807","0.0-1.0-819.0","0","0","16175","","null","","","null","90","","","","","","","","","","","","","","","NaN",""
"","S1","","html-keyboard-response","571","520061","0.0-1.0-821.0","0","0","16175","","null","","","null","91","","","","","","","","","","","","","","","",""
"","ISI","","html-keyboard-response","572","520215","0.0-1.0-822.0","0","0","16175","","null","","","null","91","NaN","","","","","","","","","","","","","","",""
"","S2","","html-keyboard-response","573","520479","0.0-1.0-823.0","0","0","16175","","null","","","null","91","","NaN","","","","","","","","","","","","","",""
"","response","","html-keyboard-response","574","520815","0.0-1.0-824.0-0.0","0","0","16175","","331","","","68","91","","","2","91","training","adjacent","CD","3","4","R.jpg","L.jpg","0","1","0","",""
"","feedback","","html-keyboard-response","575","521822","0.0-1.0-825.0-0.0","0","0","16175","","null","","","null","91","","","","","","","","","","","","","","","",""
"","time_out","","html-keyboard-response","576","523826","0.0-1.0-827.0-0.0","0","0","16175","","null","","","null","91","","","","","","","","","","","","","","","",""
