"success","ttype","start_time","trial_type","trial_index","time_elapsed","internal_node_id","warning","missed_checkup","PID","view_history","rt","responses","repeat_instructions","key_press","index","keypress_isi","keypress_S2","block","trial_num","phase","group_type","pair_type","S1_stim","S2_stim","S1_img","S2_img","S1_chosen","S1_higher","accuracy","keypress_iti","total_bonus_tally"
"true","full_screen","d04132023hr2056","fullscreen","0","3945","0.0-0.0","0","0","55293","","","","","","","","","","","","","","","","","","","","","",""
"","instructions","","instructions","1","21555","0.0-1.0-0.0-0.0","0","0","55293","[{""page_index"":0,""viewing_time"":3970},{""page_index"":1,""viewing_time"":9775},{""page_index"":2,""viewing_time"":1707},{""page_index"":3,""viewing_time"":2156}]","17608","","","","","","","","","","","","","","","","","","","",""
"","comprehension_check","","survey-multi-choice","2","40215","0.0-1.0-0.0-1.0","0","0","55293","","18654","{""Q0"":""False"",""Q1"":""D"",""Q2"":""Only when the screen 'MAKE A CHOICE' is shown"",""Q3"":""Green mark"",""Q4"":""either D or K""}","1","","","","","","","","","","","","","","","","","",""
"","missed_instruction_checkup","","html-keyboard-response","3","41948","0.0-1.0-0.0-2.0-0.0","0","1","55293","","1731","","","32","","","","","","","","","","","","","","","","",""
"","instructions","","instructions","4","57158","0.0-1.0-0.1-0.1","0","0","55293","[{""page_index"":0,""viewing_time"":2576},{""page_index"":1,""viewing_time"":5113},{""page_index"":2,""viewing_time"":6673},{""page_index"":3,""viewing_time"":847}]","15209","","","","","","","","","","","","","","","","","","","",""
"","comprehension_check","","survey-multi-choice","5","71493","0.0-1.0-0.1-1.1","0","0","55293","","14329","{""Q0"":""True"",""Q1"":""D"",""Q2"":""Only when the screen 'MAKE A CHOICE' is shown"",""Q3"":""Green mark"",""Q4"":""either D or K""}","1","","","","","","","","","","","","","","","","","",""
"","missed_instruction_checkup","","html-keyboard-response","6","72811","0.0-1.0-0.1-2.1-0.1","0","1","55293","","1316","","","32","","","","","","","","","","","","","","","","",""
"","instructions","","instructions","7","85378","0.0-1.0-0.2-0.2","0","0","55293","[{""page_index"":0,""viewing_time"":3161},{""page_index"":1,""viewing_time"":7394},{""page_index"":2,""viewing_time"":1363},{""page_index"":3,""viewing_time"":646}]","12564","","","","","","","","","","","","","","","","","","","",""
"","comprehension_check","","survey-multi-choice","8","95812","0.0-1.0-0.2-1.2","0","0","55293","","10431","{""Q0"":""True"",""Q1"":""K"",""Q2"":""Once the second image appears and while the screen 'MAKE A CHOICE' is shown"",""Q3"":""Green mark"",""Q4"":""either D or K""}","0","","","","","","","","","","","","","","","","","",""
"","start_exp","","html-keyboard-response","9","96602","0.0-1.0-1.0","0","0","55293","","788","","","32","","","","","","","","","","","","","","","","",""
"","S1","","html-keyboard-response","10","96855","0.0-1.0-2.0","0","0","55293","","null","","","null","0","","","","","","","","","","","","","","","",""
"","ISI","","html-keyboard-response","11","97857","0.0-1.0-3.0","0","0","55293","","null","","","null","0","NaN","","","","","","","","","","","","","","",""
"","S2","","html-keyboard-response","12","98109","0.0-1.0-4.0","0","0","55293","","null","","","null","0","","NaN","","","","","","","","","","","","","",""
"","response","","html-keyboard-response","13","98934","0.0-1.0-5.0-0.0","0","0","55293","","822","","","68","0","","","1","0","training","adjacent","DE","4","5","Q.jpg","P.jpg","0","1","0","",""
"","feedback","","html-keyboard-response","14","99936","0.0-1.0-6.0-0.0","0","0","55293","","null","","","null","0","","","","","","","","","","","","","","","",""
"","time_out","","html-keyboard-response","15","101938","0.0-1.0-8.0-0.0","0","0","55293","","null","","","null","0","","","","","","","","","","","","","","","",""
"","ITI","","html-keyboard-response","16","102940","0.0-1.0-9.0","0","0","55293","","null","","","null","0","","","","","","","","","","","","","","","NaN",""
"","S1","","html-keyboard-response","17","103193","0.0-1.0-11.0","0","0","55293","","null","","","null","1","","","","","","","","","","","","","","","",""
"","ISI","","html-keyboard-response","18","104196","0.0-1.0-12.0","0","0","55293","","null","","","null","1","NaN","","","","","","","","","","","","","","",""
"","S2","","html-keyboard-response","19","104449","0.0-1.0-13.0","0","0","55293","","null","","","null","1","","NaN","","","","","","","","","","","","","",""
"","response","","html-keyboard-response","20","104956","0.0-1.0-14.0-0.0","0","0","55293","","505","","","68","1","","","1","1","training","adjacent","ED","5","4","P.jpg","Q.jpg","0","0","1","",""
"","feedback","","html-keyboard-response","21","105959","0.0-1.0-15.0-0.0","0","0","55293","","null","","","null","1","","","","","","","","","","","","","","","",""
"","ITI","","html-keyboard-response","22","106961","0.0-1.0-18.0","0","0","55293","","null","","","null","1","","","","","","","","","","","","","","","NaN",""
"","S1","","html-keyboard-response","23","107213","0.0-1.0-20.0","0","0","55293","","null","","","null","2","","","","","","","","","","","","","","","",""
"","ISI","","html-keyboard-response","24","108215","0.0-1.0-21.0","0","0","55293","","616","","","255","2","","","","","","","","","","","","","","","",""
"","S2","","html-keyboard-response","25","108468","0.0-1.0-22.0","0","0","55293","","null","","","null","2","","NaN","","","","","","","","","","","","","",""
"","response","","html-keyboard-response","26","109680","0.0-1.0-23.0-0.0","0","0","55293","","1211","","","68","2","","","1","2","training","adjacent","BA","2","1","M.jpg","O.jpg","0","0","1","",""
"","feedback","","html-keyboard-response","27","110683","0.0-1.0-24.0-0.0","0","0","55293","","null","","","null","2","","","","","","","","","","","","","","","",""
"","ITI","","html-keyboard-response","28","111685","0.0-1.0-27.0","0","0","55293","","293","","","255","2","","","","","","","","","","","","","","","",""
"","S1","","html-keyboard-response","29","111938","0.0-1.0-29.0","0","0","55293","","null","","","null","3","","","","","","","","","","","","","","","",""
"","ISI","","html-keyboard-response","30","112941","0.0-1.0-30.0","0","0","55293","","null","","","null","3","NaN","","","","","","","","","","","","","","",""
"","S2","","html-keyboard-response","31","113194","0.0-1.0-31.0","0","0","55293","","null","","","null","3","","NaN","","","","","","","","","","","","","",""
"","response","","html-keyboard-response","32","114100","0.0-1.0-32.0-0.0","0","0","55293","","905","","","75","3","","","1","3","training","adjacent","FE","6","5","R.jpg","P.jpg","1","0","0","",""
"","feedback","","html-keyboard-response","33","115103","0.0-1.0-33.0-0.0","0","0","55293","","null","","","null","3","","","","","","","","","","","","","","","",""
"","time_out","","html-keyboard-response","34","117105","0.0-1.0-35.0-0.0","0","0","55293","","null","","","null","3","","","","","","","","","","","","","","","",""
"","ITI","","html-keyboard-response","35","118108","0.0-1.0-36.0","0","0","55293","","null","","","null","3","","","","","","","","","","","","","","","NaN",""
"","S1","","html-keyboard-response","36","118361","0.0-1.0-38.0","0","0","55293","","null","","","null","4","","","","","","","","","","","","","","","",""
"","ISI","","html-keyboard-response","37","119364","0.0-1.0-39.0","0","0","55293","","null","","","null","4","NaN","","","","","","","","","","","","","","",""
"","S2","","html-keyboard-response","38","119616","0.0-1.0-40.0","0","0","55293","","null","","","null","4","","NaN","","","","","","","","","","","","","",""
"","response","","html-keyboard-response","39","120114","0.0-1.0-41.0-0.0","0","0","55293","","495","","","68","4","","","1","4","training","adjacent","BC","2","3","M.jpg","N.jpg","0","1","0","",""
"","feedback","","html-keyboard-response","40","121116","0.0-1.0-42.0-0.0","0","0","55293","","null","","","null","4","","","","","","","","","","","","","","","",""
"","time_out","","html-keyboard-response","41","123118","0.0-1.0-44.0-0.0","0","0","55293","","null","","","null","4","","","","","","","","","","","","","","","",""
"","ITI","","html-keyboard-response","42","124120","0.0-1.0-45.0","0","0","55293","","null","","","null","4","","","","","","","","","","","","","","","NaN",""
"","S1","","html-keyboard-response","43","124373","0.0-1.0-47.0","0","0","55293","","null","","","null","5","","","","","","","","","","","","","","","",""
"","ISI","","html-keyboard-response","44","125376","0.0-1.0-48.0","0","0","55293","","null","","","null","5","NaN","","","","","","","","","","","","","","",""
"","S2","","html-keyboard-response","45","125628","0.0-1.0-49.0","0","0","55293","","null","","","null","5","","NaN","","","","","","","","","","","","","",""
"","response","","html-keyboard-response","46","125991","0.0-1.0-50.0-0.0","0","0","55293","","361","","","68","5","","","1","5","training","adjacent","AB","1","2","O.jpg","M.jpg","0","1","0","",""
"","feedback","","html-keyboard-response","47","126994","0.0-1.0-51.0-0.0","0","0","55293","","null","","","null","5","","","","","","","","","","","","","","","",""
"","time_out","","html-keyboard-response","48","128997","0.0-1.0-53.0-0.0","0","0","55293","","null","","","null","5","","","","","","","","","","","","","","","",""
"","ITI","","html-keyboard-response","49","130000","0.0-1.0-54.0","0","0","55293","","null","","","null","5","","","","","","","","","","","","","","","NaN",""
"","S1","","html-keyboard-response","50","130252","0.0-1.0-56.0","0","0","55293","","null","","","null","6","","","","","","","","","","","","","","","",""
"","ISI","","html-keyboard-response","51","131255","0.0-1.0-57.0","0","0","55293","","null","","","null","6","NaN","","","","","","","","","","","","","","",""
"","S2","","html-keyboard-response","52","131508","0.0-1.0-58.0","0","0","55293","","null","","","null","6","","NaN","","","","","","","","","","","","","",""
"","response","","html-keyboard-response","53","131846","0.0-1.0-59.0-0.0","0","0","55293","","336","","","68","6","","","1","6","training","adjacent","DE","4","5","Q.jpg","P.jpg","0","1","0","",""
"","feedback","","html-keyboard-response","54","132849","0.0-1.0-60.0-0.0","0","0","55293","","null","","","null","6","","","","","","","","","","","","","","","",""
"","time_out","","html-keyboard-response","55","134852","0.0-1.0-62.0-0.0","0","0","55293","","null","","","null","6","","","","","","","","","","","","","","","",""
"","ITI","","html-keyboard-response","56","135855","0.0-1.0-63.0","0","0","55293","","null","","","null","6","","","","","","","","","","","","","","","NaN",""
"","S1","","html-keyboard-response","57","136107","0.0-1.0-65.0","0","0","55293","","null","","","null","7","","","","","","","","","","","","","","","",""
"","ISI","","html-keyboard-response","58","137109","0.0-1.0-66.0","0","0","55293","","null","","","null","7","NaN","","","","","","","","","","","","","","",""
"","S2","","html-keyboard-response","59","137362","0.0-1.0-67.0","0","0","55293","","null","","","null","7","","NaN","","","","","","","","","","","","","",""
"","response","","html-keyboard-response","60","137749","0.0-1.0-68.0-0.0","0","0","55293","","386","","","75","7","","","1","7","training","adjacent","BA","2","1","M.jpg","O.jpg","1","0","0","",""
"","feedback","","html-keyboard-response","61","138753","0.0-1.0-69.0-0.0","0","0","55293","","null","","","null","7","","","","","","","","","","","","","","","",""
"","time_out","","html-keyboard-response","62","140755","0.0-1.0-71.0-0.0","0","0","55293","","null","","","null","7","","","","","","","","","","","","","","","",""
"","ITI","","html-keyboard-response","63","141758","0.0-1.0-72.0","0","0","55293","","null","","","null","7","","","","","","","","","","","","","","","NaN",""
"","S1","","html-keyboard-response","64","142010","0.0-1.0-74.0","0","0","55293","","null","","","null","8","","","","","","","","","","","","","","","",""
"","ISI","","html-keyboard-response","65","143014","0.0-1.0-75.0","0","0","55293","","null","","","null","8","NaN","","","","","","","","","","","","","","",""
"","S2","","html-keyboard-response","66","143267","0.0-1.0-76.0","0","0","55293","","null","","","null","8","","NaN","","","","","","","","","","","","","",""
"","response","","html-keyboard-response","67","143290","0.0-1.0-77.0-0.0","0","0","55293","","21","","","68","8","","","1","8","training","adjacent","AB","1","2","O.jpg","M.jpg","0","1","0","",""
"","feedback","","html-keyboard-response","68","144292","0.0-1.0-78.0-0.0","0","0","55293","","null","","","null","8","","","","","","","","","","","","","","","",""
"","time_out","","html-keyboard-response","69","146295","0.0-1.0-80.0-0.0","0","0","55293","","null","","","null","8","","","","","","","","","","","","","","","",""
"","ITI","","html-keyboard-response","70","147297","0.0-1.0-81.0","0","0","55293","","null","","","null","8","","","","","","","","","","","","","","","NaN",""
"","S1","","html-keyboard-response","71","147550","0.0-1.0-83.0","0","0","55293","","null","","","null","9","","","","","","","","","","","","","","","",""
"","ISI","","html-keyboard-response","72","148553","0.0-1.0-84.0","0","0","55293","","139","","","75","9","k","","","","","","","","","","","","","","",""
"","S2","","html-keyboard-response","73","148805","0.0-1.0-85.0","0","0","55293","","null","","","null","9","","NaN","","","","","","","","","","","","","",""
"","response","","html-keyboard-response","74","148880","0.0-1.0-86.0-0.0","0","0","55293","","73","","","75","9","","","1","9","training","adjacent","CD","3","4","N.jpg","Q.jpg","1","1","1","",""
"","feedback","","html-keyboard-response","75","149883","0.0-1.0-87.0-0.0","0","0","55293","","null","","","null","9","","","","","","","","","","","","","","","",""
"","ITI","","html-keyboard-response","76","150886","0.0-1.0-90.0","0","0","55293","","null","","","null","9","","","","","","","","","","","","","","","NaN",""
"","S1","","html-keyboard-response","77","151138","0.0-1.0-92.0","0","0","55293","","null","","","null","10","","","","","","","","","","","","","","","",""
"","ISI","","html-keyboard-response","78","152141","0.0-1.0-93.0","0","0","55293","","null","","","null","10","NaN","","","","","","","","","","","","","","",""
"","S2","","html-keyboard-response","79","152254","0.0-1.0-94.0","0","0","55293","","111","","","75","10","","k","1","10","training","adjacent","FG","6","7","R.jpg","L.jpg","1","1","1","",""
"","feedback","","html-keyboard-response","80","153257","0.0-1.0-96.0-0.0","0","0","55293","","null","","","null","10","","","","","","","","","","","","","","","",""
"","ITI","","html-keyboard-response","81","154260","0.0-1.0-99.0","0","0","55293","","null","","","null","10","","","","","","","","","","","","","","","NaN",""
"","S1","","html-keyboard-response","82","154513","0.0-1.0-101.0","0","0","55293","","null","","","null","11","","","","","","","","","","","","","","","",""
"","ISI","","html-keyboard-response","83","155514","0.0-1.0-102.0","0","0","55293","","null","","","null","11","NaN","","","","","","","","","","","","","","",""
"","S2","","html-keyboard-response","84","155768","0.0-1.0-103.0","0","0","55293","","null","","","null","11","","NaN","","","","","","","","","","","","","",""
"","response","","html-keyboard-response","85","155805","0.0-1.0-104.0-0.0","0","0","55293","","35","","","75","11","","","1","11","training","adjacent","EF","5","6","P.jpg","R.jpg","1","1","1","",""
"","feedback","","html-keyboard-response","86","156807","0.0-1.0-105.0-0.0","0","0","55293","","null","","","null","11","","","","","","","","","","","","","","","",""
"","ITI","","html-keyboard-response","87","157811","0.0-1.0-108.0","0","0","55293","","null","","","null","11","","","","","","","","","","","","","","","NaN",""
"","S1","","html-keyboard-response","88","158063","0.0-1.0-110.0","0","0","55293","","null","","","null","12","","","","","","","","","","","","","","","",""
"","ISI","","html-keyboard-response","89","159066","0.0-1.0-111.0","0","0","55293","","null","","","null","12","NaN","","","","","","","","","","","","","","",""
"","S2","","html-keyboard-response","90","159318","0.0-1.0-112.0","0","0","55293","","null","","","null","12","","NaN","","","","","","","","","","","","","",""
"","response","","html-keyboard-response","91","159906","0.0-1.0-113.0-0.0","0","0","55293","","586","","","75","12","","","1","12","training","adjacent","FE","6","5","R.jpg","P.jpg","1","0","0","",""
"","feedback","","html-keyboard-response","92","160910","0.0-1.0-114.0-0.0","0","0","55293","","null","","","null","12","","","","","","","","","","","","","","","",""
"","time_out","","html-keyboard-response","93","162912","0.0-1.0-116.0-0.0","0","0","55293","","null","","","null","12","","","","","","","","","","","","","","","",""
"","ITI","","html-keyboard-response","94","163915","0.0-1.0-117.0","0","0","55293","","381","","","68","12","","","","","","","","","","","","","","","d",""
"","S1","","html-keyboard-response","95","164168","0.0-1.0-119.0","0","0","55293","","null","","","null","13","","","","","","","","","","","","","","","",""
"","ISI","","html-keyboard-response","96","165173","0.0-1.0-120.0","0","0","55293","","null","","","null","13","NaN","","","","","","","","","","","","","","",""
"","S2","","html-keyboard-response","97","165426","0.0-1.0-121.0","0","0","55293","","null","","","null","13","","NaN","","","","","","","","","","","","","",""
"","response","","html-keyboard-response","98","165685","0.0-1.0-122.0-0.0","0","0","55293","","257","","","68","13","","","1","13","training","adjacent","BC","2","3","M.jpg","N.jpg","0","1","0","",""
"","feedback","","html-keyboard-response","99","166688","0.0-1.0-123.0-0.0","0","0","55293","","null","","","null","13","","","","","","","","","","","","","","","",""
"","time_out","","html-keyboard-response","100","168690","0.0-1.0-125.0-0.0","0","0","55293","","null","","","null","13","","","","","","","","","","","","","","","",""
"","ITI","","html-keyboard-response","101","169692","0.0-1.0-126.0","0","0","55293","","null","","","null","13","","","","","","","","","","","","","","","NaN",""
"","S1","","html-keyboard-response","102","169951","0.0-1.0-128.0","0","0","55293","","null","","","null","14","","","","","","","","","","","","","","","",""
"","ISI","","html-keyboard-response","103","170954","0.0-1.0-129.0","0","0","55293","","null","","","null","14","NaN","","","","","","","","","","","","","","",""
"","S2","","html-keyboard-response","104","171206","0.0-1.0-130.0","0","0","55293","","null","","","null","14","","NaN","","","","","","","","","","","","","",""
"","response","","html-keyboard-response","105","171477","0.0-1.0-131.0-0.0","0","0","55293","","268","","","75","14","","","1","14","training","adjacent","BA","2","1","M.jpg","O.jpg","1","0","0","",""
"","feedback","","html-keyboard-response","106","172479","0.0-1.0-132.0-0.0","0","0","55293","","null","","","null","14","","","","","","","","","","","","","","","",""
"","time_out","","html-keyboard-response","107","174480","0.0-1.0-134.0-0.0","0","0","55293","","null","","","null","14","","","","","","","","","","","","","","","",""
"","ITI","","html-keyboard-response","108","175483","0.0-1.0-135.0","0","0","55293","","null","","","null","14","","","","","","","","","","","","","","","NaN",""
"","S1","","html-keyboard-response","109","175736","0.0-1.0-137.0","0","0","55293","","null","","","null","15","","","","","","","","","","","","","","","",""
"","ISI","","html-keyboard-response","110","176738","0.0-1.0-138.0","0","0","55293","","null","","","null","15","NaN","","","","","","","","","","","","","","",""
"","S2","","html-keyboard-response","111","176990","0.0-1.0-139.0","0","0","55293","","null","","","null","15","","NaN","","","","","","","","","","","","","",""
"","response","","html-keyboard-response","112","177667","0.0-1.0-140.0-0.0","0","0","55293","","675","","","75","15","","","1","15","training","adjacent","DE","4","5","Q.jpg","P.jpg","1","1","1","",""
"","feedback","","html-keyboard-response","113","178670","0.0-1.0-141.0-0.0","0","0","55293","","null","","","null","15","","","","","","","","","","","","","","","",""
"","ITI","","html-keyboard-response","114","179671","0.0-1.0-144.0","0","0","55293","","null","","","null","15","","","","","","","","","","","","","","","NaN",""
"","S1","","html-keyboard-response","115","179923","0.0-1.0-146.0","0","0","55293","","null","","","null","16","","","","","","","","","","","","","","","",""
"","ISI","","html-keyboard-response","116","180926","0.0-1.0-147.0","0","0","55293","","null","","","null","16","NaN","","","","","","","","","","","","","","",""
"","S2","","html-keyboard-response","117","181179","0.0-1.0-148.0","0","0","55293","","null","","","null","16","","NaN","","","","","","","","","","","","","",""
"","response","","html-keyboard-response","118","182931","0.0-1.0-149.0-0.0","0","0","55293","","null","","","null","16","","","1","16","training","adjacent","ED","5","4","P.jpg","Q.jpg","NaN","0","0","",""
"","too_slow_prompt","","html-keyboard-response","119","183934","0.0-1.0-151.0-0.0","1","0","55293","","null","","","null","","","","","","","","","","","","","","","","",""
"","time_out","","html-keyboard-response","120","185937","0.0-1.0-152.0-0.0","0","0","55293","","null","","","null","16","","","","","","","","","","","","","","","",""
"","ITI","","html-keyboard-response","121","186940","0.0-1.0-153.0","0","0","55293","","null","","","null","16","","","","","","","","","","","","","","","NaN",""
"","S1","","html-keyboard-response","122","187192","0.0-1.0-155.0","0","0","55293","","null","","","null","17","","","","","","","","","","","","","","","",""
"","ISI","","html-keyboard-response","123","188194","0.0-1.0-156.0","0","0","55293","","198","","","75","17","k","","","","","","","","","","","","","","",""
"","S2","","html-keyboard-response","124","188446","0.0-1.0-157.0","0","0","55293","","null","","","null","17","","NaN","","","","","","","","","","","","","",""
"","response","","html-keyboard-response","125","188508","0.0-1.0-158.0-0.0","0","0","55293","","61","","","68","17","","","1","17","training","adjacent","GF","7","6","L.jpg","R.jpg","0","0","1","",""
"","feedback","","html-keyboard-response","126","189510","0.0-1.0-159.0-0.0","0","0","55293","","null","","","null","17","","","","","","","","","","","","","","","",""
"","ITI","","html-keyboard-response","127","190512","0.0-1.0-162.0","0","0","55293","","null","","","null","17","","","","","","","","","","","","","","","NaN",""
"","S1","","html-keyboard-response","128","190764","0.0-1.0-164.0","0","0","55293","","null","","","null","18","","","","","","","","","","","","","","","",""
"","ISI","","html-keyboard-response","129","191767","0.0-1.0-165.0","0","0","55293","","null","","","null","18","NaN","","","","","","","","","","","","","","",""
"","S2","","html-keyboard-response","130","192021","0.0-1.0-166.0","0","0","55293","","null","","","null","18","","NaN","","","","","","","","","","","","","",""
"","response","","html-keyboard-response","131","192387","0.0-1.0-167.0-0.0","0","0","55293","","365","","","75","18","","","1","18","training","adjacent","ED","5","4","P.jpg","Q.jpg","1","0","0","",""
"","feedback","","html-keyboard-response","132","193390","0.0-1.0-168.0-0.0","0","0","55293","","null","","","null","18","","","","","","","","","","","","","","","",""
"","time_out","","html-keyboard-response","133","195392","0.0-1.0-170.0-0.0","0","0","55293","","null","","","null","18","","","","","","","","","","","","","","","",""
"","ITI","","html-keyboard-response","134","196396","0.0-1.0-171.0","0","0","55293","","null","","","null","18","","","","","","","","","","","","","","","NaN",""
"","S1","","html-keyboard-response","135","196648","0.0-1.0-173.0","0","0","55293","","null","","","null","19","","","","","","","","","","","","","","","",""
"","ISI","","html-keyboard-response","136","197650","0.0-1.0-174.0","0","0","55293","","null","","","null","19","NaN","","","","","","","","","","","","","","",""
"","S2","","html-keyboard-response","137","197902","0.0-1.0-175.0","0","0","55293","","null","","","null","19","","NaN","","","","","","","","","","","","","",""
"","response","","html-keyboard-response","138","198402","0.0-1.0-176.0-0.0","0","0","55293","","498","","","75","19","","","1","19","training","adjacent","BC","2","3","M.jpg","N.jpg","1","1","1","",""
"","feedback","","html-keyboard-response","139","199405","0.0-1.0-177.0-0.0","0","0","55293","","null","","","null","19","","","","","","","","","","","","","","","",""
"","ITI","","html-keyboard-response","140","200407","0.0-1.0-180.0","0","0","55293","","null","","","null","19","","","","","","","","","","","","","","","NaN",""
"","S1","","html-keyboard-response","141","200660","0.0-1.0-182.0","0","0","55293","","null","","","null","20","","","","","","","","","","","","","","","",""
"","ISI","","html-keyboard-response","142","201663","0.0-1.0-183.0","0","0","55293","","null","","","null","20","NaN","","","","","","","","","","","","","","",""
"","S2","","html-keyboard-response","143","201915","0.0-1.0-184.0","0","0","55293","","null","","","null","20","","NaN","","","","","","","","","","","","","",""
"","response","","html-keyboard-response","144","202488","0.0-1.0-185.0-0.0","0","0","55293","","571","","","75","20","","","1","20","training","adjacent","FG","6","7","R.jpg","L.jpg","1","1","1","",""
"","feedback","","html-keyboard-response","145","203491","0.0-1.0-186.0-0.0","0","0","55293","","null","","","null","20","","","","","","","","","","","","","","","",""
"","ITI","","html-keyboard-response","146","204493","0.0-1.0-189.0","0","0","55293","","null","","","null","20","","","","","","","","","","","","","","","NaN",""
"","S1","","html-keyboard-response","147","204746","0.0-1.0-191.0","0","0","55293","","null","","","null","21","","","","","","","","","","","","","","","",""
"","ISI","","html-keyboard-response","148","205748","0.0-1.0-192.0","0","0","55293","","null","","","null","21","NaN","","","","","","","","","","","","","","",""
"","S2","","html-keyboard-response","149","206000","0.0-1.0-193.0","0","0","55293","","null","","","null","21","","NaN","","","","","","","","","","","","","",""
"","response","","html-keyboard-response","150","207325","0.0-1.0-194.0-0.0","0","0","55293","","1324","","","68","21","","","1","21","training","adjacent","CB","3","2","N.jpg","M.jpg","0","0","1","",""
"","feedback","","html-keyboard-response","151","208328","0.0-1.0-195.0-0.0","0","0","55293","","null","","","null","21","","","","","","","","","","","","","","","",""
"","ITI","","html-keyboard-response","152","209331","0.0-1.0-198.0","0","0","55293","","null","","","null","21","","","","","","","","","","","","","","","NaN",""
"","S1","","html-keyboard-response","153","209585","0.0-1.0-200.0","0","0","55293","","null","","","null","22","","","","","","","","","","","","","","","",""
"","ISI","","html-keyboard-response","154","210587","0.0-1.0-201.0","0","0","55293","","null","","","null","22","NaN","","","","","","","","","","","","","","",""
"","S2","","html-keyboard-response","155","210839","0.0-1.0-202.0","0","0","55293","","null","","","null","22","","NaN","","","","","","","","","","","","","",""
"","response","","html-keyboard-response","156","211419","0.0-1.0-203.0-0.0","0","0","55293","","579","","","68","22","","","1","22","training","adjacent","EF","5","6","P.jpg","R.jpg","0","1","0","",""
"","feedback","","html-keyboard-response","157","212422","0.0-1.0-204.0-0.0","0","0","55293","","null","","","null","22","","","","","","","","","","","","","","","",""
"","time_out","","html-keyboard-response","158","214423","0.0-1.0-206.0-0.0","0","0","55293","","null","","","null","22","","","","","","","","","","","","","","","",""
"","ITI","","html-keyboard-response","159","215427","0.0-1.0-207.0","0","0","55293","","null","","","null","22","","","","","","","","","","","","","","","NaN",""
"","S1","","html-keyboard-response","160","215680","0.0-1.0-209.0","0","0","55293","","null","","","null","23","","","","","","","","","","","","","","","",""
"","ISI","","html-keyboard-response","161","216681","0.0-1.0-210.0","0","0","55293","","null","","","null","23","NaN","","","","","","","","","","","","","","",""
"","S2","","html-keyboard-response","162","216934","0.0-1.0-211.0","0","0","55293","","null","","","null","23","","NaN","","","","","","","","","","","","","",""
"","response","","html-keyboard-response","163","217172","0.0-1.0-212.0-0.0","0","0","55293","","235","","","75","23","","","1","23","training","adjacent","BA","2","1","M.jpg","O.jpg","1","0","0","",""
"","feedback","","html-keyboard-response","164","218175","0.0-1.0-213.0-0.0","0","0","55293","","null","","","null","23","","","","","","","","","","","","","","","",""
"","time_out","","html-keyboard-response","165","220177","0.0-1.0-215.0-0.0","0","0","55293","","null","","","null","23","","","","","","","","","","","","","","","",""
"","ITI","","html-keyboard-response","166","221179","0.0-1.0-216.0","0","0","55293","","null","","","null","23","","","","","","","","","","","","","","","NaN",""
"","S1","","html-keyboard-response","167","221432","0.0-1.0-218.0","0","0","55293","","null","","","null","24","","","","","","","","","","","","","","","",""
"","ISI","","html-keyboard-response","168","222435","0.0-1.0-219.0","0","0","55293","","231","","","68","24","d","","","","","","","","","","","","","","",""
"","S2","","html-keyboard-response","169","222687","0.0-1.0-220.0","0","0","55293","","null","","","null","24","","NaN","","","","","","","","","","","","","",""
"","response","","html-keyboard-response","170","222766","0.0-1.0-221.0-0.0","0","0","55293","","77","","","68","24","","","1","24","training","adjacent","AB","1","2","O.jpg","M.jpg","0","1","0","",""
"","feedback","","html-keyboard-response","171","223770","0.0-1.0-222.0-0.0","0","0","55293","","null","","","null","24","","","","","","","","","","","","","","","",""
"","time_out","","html-keyboard-response","172","225774","0.0-1.0-224.0-0.0","0","0","55293","","null","","","null","24","","","","","","","","","","","","","","","",""
"","ITI","","html-keyboard-response","173","226777","0.0-1.0-225.0","0","0","55293","","null","","","null","24","","","","","","","","","","","","","","","NaN",""
"","S1","","html-keyboard-response","174","227030","0.0-1.0-227.0","0","0","55293","","null","","","null","25","","","","","","","","","","","","","","","",""
"","ISI","","html-keyboard-response","175","228032","0.0-1.0-228.0","0","0","55293","","null","","","null","25","NaN","","","","","","","","","","","","","","",""
"","S2","","html-keyboard-response","176","228285","0.0-1.0-229.0","0","0","55293","","null","","","null","25","","NaN","","","","","","","","","","","","","",""
"","response","","html-keyboard-response","177","228742","0.0-1.0-230.0-0.0","0","0","55293","","456","","","75","25","","","1","25","training","adjacent","EF","5","6","P.jpg","R.jpg","1","1","1","",""
"","feedback","","html-keyboard-response","178","229744","0.0-1.0-231.0-0.0","0","0","55293","","null","","","null","25","","","","","","","","","","","","","","","",""
"","ITI","","html-keyboard-response","179","230746","0.0-1.0-234.0","0","0","55293","","null","","","null","25","","","","","","","","","","","","","","","NaN",""
"","S1","","html-keyboard-response","180","230999","0.0-1.0-236.0","0","0","55293","","null","","","null","26","","","","","","","","","","","","","","","",""
"","ISI","","html-keyboard-response","181","232001","0.0-1.0-237.0","0","0","55293","","null","","","null","26","NaN","","","","","","","","","","","","","","",""
"","S2","","html-keyboard-response","182","232254","0.0-1.0-238.0","0","0","55293","","null","","","null","26","","NaN","","","","","","","","","","","","","",""
"","response","","html-keyboard-response","183","232851","0.0-1.0-239.0-0.0","0","0","55293","","596","","","68","26","","","1","26","training","adjacent","CB","3","2","N.jpg","M.jpg","0","0","1","",""
"","feedback","","html-keyboard-response","184","233854","0.0-1.0-240.0-0.0","0","0","55293","","null","","","null","26","","","","","","","","","","","","","","","",""
"","ITI","","html-keyboard-response","185","234857","0.0-1.0-243.0","0","0","55293","","null","","","null","26","","","","","","","","","","","","","","","NaN",""
"","S1","","html-keyboard-response","186","235109","0.0-1.0-245.0","0","0","55293","","null","","","null","27","","","","","","","","","","","","","","","",""
"","ISI","","html-keyboard-response","187","236112","0.0-1.0-246.0","0","0","55293","","null","","","null","27","NaN","","","","","","","","","","","","","","",""
"","S2","","html-keyboard-response","188","236364","0.0-1.0-247.0","0","0","55293","","null","","","null","27","","NaN","","","","","","","","","","","","","",""
"","response","","html-keyboard-response","189","236514","0.0-1.0-248.0-0.0","0","0","55293","","148","","","75","27","","","1","27","training","adjacent","FE","6","5","R.jpg","P.jpg","1","0","0","",""
"","feedback","","html-keyboard-response","190","237516","0.0-1.0-249.0-0.0","0","0","55293","","null","","","null","27","","","","","","","","","","","","","","","",""
"","time_out","","html-keyboard-response","191","239519","0.0-1.0-251.0-0.0","0","0","55293","","null","","","null","27","","","","","","","","","","","","","","","",""
"","ITI","","html-keyboard-response","192","240521","0.0-1.0-252.0","0","0","55293","","null","","","null","27","","","","","","","","","","","","","","","NaN",""
"","S1","","html-keyboard-response","193","240773","0.0-1.0-254.0","0","0","55293","","null","","","null","28","","","","","","","","","","","","","","","",""
"","ISI","","html-keyboard-response","194","241777","0.0-1.0-255.0","0","0","55293","","633","","","75","28","k","","","","","","","","","","","","","","",""
"","S2","","html-keyboard-response","195","242029","0.0-1.0-256.0","0","0","55293","","null","","","null","28","","NaN","","","","","","","","","","","","","",""
"","response","","html-keyboard-response","196","242237","0.0-1.0-257.0-0.0","0","0","55293","","206","","","68","28","","","1","28","training","adjacent","FE","6","5","R.jpg","P.jpg","0","0","1","",""
"","feedback","","html-keyboard-response","197","243239","0.0-1.0-258.0-0.0","0","0","55293","","null","","","null","28","","","","","","","","","","","","","","","",""
"","ITI","","html-keyboard-response","198","244242","0.0-1.0-261.0","0","0","55293","","null","","","null","28","","","","","","","","","","","","","","","NaN",""
"","S1","","html-keyboard-response","199","244494","0.0-1.0-263.0","0","0","55293","","null","","","null","29","","","","","","","","","","","","","","","",""
"","ISI","","html-keyboard-response","200","245497","0.0-1.0-264.0","0","0","55293","","null","","","null","29","NaN","","","","","","","","","","","","","","",""
"","S2","","html-keyboard-response","201","245749","0.0-1.0-265.0","0","0","55293","","null","","","null","29","","NaN","","","","","","","","","","","","","",""
"","response","","html-keyboard-response","202","246268","0.0-1.0-266.0-0.0","0","0","55293","","517","","","68","29","","","1","29","training","adjacent","GF","7","6","L.jpg","R.jpg","0","0","1","",""
"","feedback","","html-keyboard-response","203","247270","0.0-1.0-267.0-0.0","0","0","55293","","null","","","null","29","","","","","","","","","","","","","","","",""
"","ITI","","html-keyboard-response","204","248273","0.0-1.0-270.0","0","0","55293","","null","","","null","29","","","","","","","","","","","","","","","NaN",""
"","S1","","html-keyboard-response","205","248526","0.0-1.0-272.0","0","0","55293","","null","","","null","30","","","","","","","","","","","","","","","",""
"","ISI","","html-keyboard-response","206","249529","0.0-1.0-273.0","0","0","55293","","null","","","null","30","NaN","","","","","","","","","","","","","","",""
"","S2","","html-keyboard-response","207","249782","0.0-1.0-274.0","0","0","55293","","null","","","null","30","","NaN","","","","","","","","","","","","","",""
"","response","","html-keyboard-response","208","250394","0.0-1.0-275.0-0.0","0","0","55293","","611","","","68","30","","","1","30","training","adjacent","GF","7","6","L.jpg","R.jpg","0","0","1","",""
"","feedback","","html-keyboard-response","209","251396","0.0-1.0-276.0-0.0","0","0","55293","","null","","","null","30","","","","","","","","","","","","","","","",""
"","ITI","","html-keyboard-response","210","252399","0.0-1.0-279.0","0","0","55293","","null","","","null","30","","","","","","","","","","","","","","","NaN",""
"","S1","","html-keyboard-response","211","252652","0.0-1.0-281.0","0","0","55293","","null","","","null","31","","","","","","","","","","","","","","","",""
"","ISI","","html-keyboard-response","212","253655","0.0-1.0-282.0","0","0","55293","","null","","","null","31","NaN","","","","","","","","","","","","","","",""
"","S2","","html-keyboard-response","213","253908","0.0-1.0-283.0","0","0","55293","","null","","","null","31","","NaN","","","","","","","","","","","","","",""
"","response","","html-keyboard-response","214","254256","0.0-1.0-284.0-0.0","0","0","55293","","346","","","68","31","","","1","31","training","adjacent","FG","6","7","R.jpg","L.jpg","0","1","0","",""
"","feedback","","html-keyboard-response","215","255260","0.0-1.0-285.0-0.0","0","0","55293","","null","","","null","31","","","","","","","","","","","","","","","",""
"","time_out","","html-keyboard-response","216","257263","0.0-1.0-287.0-0.0","0","0","55293","","null","","","null","31","","","","","","","","","","","","","","","",""
"","ITI","","html-keyboard-response","217","258266","0.0-1.0-288.0","0","0","55293","","null","","","null","31","","","","","","","","","","","","","","","NaN",""
"","S1","","html-keyboard-response","218","258519","0.0-1.0-290.0","0","0","55293","","null","","","null","32","","","","","","","","","","","","","","","",""
"","ISI","","html-keyboard-response","219","259522","0.0-1.0-291.0","0","0","55293","","null","","","null","32","NaN","","","","","","","","","","","","","","",""
"","S2","","html-keyboard-response","220","259776","0.0-1.0-292.0","0","0","55293","","null","","","null","32","","NaN","","","","","","","","","","","","","",""
"","response","","html-keyboard-response","221","260160","0.0-1.0-293.0-0.0","0","0","55293","","383","","","75","32","","","1","32","training","adjacent","DC","4","3","Q.jpg","N.jpg","1","0","0","",""
"","feedback","","html-keyboard-response","222","261163","0.0-1.0-294.0-0.0","0","0","55293","","null","","","null","32","","","","","","","","","","","","","","","",""
"","time_out","","html-keyboard-response","223","263166","0.0-1.0-296.0-0.0","0","0","55293","","null","","","null","32","","","","","","","","","","","","","","","",""
"","ITI","","html-keyboard-response","224","264168","0.0-1.0-297.0","0","0","55293","","null","","","null","32","","","","","","","","","","","","","","","NaN",""
"","S1","","html-keyboard-response","225","264421","0.0-1.0-299.0","0","0","55293","","null","","","null","33","","","","","","","","","","","","","","","",""
"","ISI","","html-keyboard-response","226","265426","0.0-1.0-300.0","0","0","55293","","null","","","null","33","NaN","","","","","","","","","","","","","","",""
"","S2","","html-keyboard-response","227","265678","0.0-1.0-301.0","0","0","55293","","null","","","null","33","","NaN","","","","","","","","","","","","","",""
"","response","","html-keyboard-response","228","266076","0.0-1.0-302.0-0.0","0","0","55293","","397","","","68","33","","","1","33","training","adjacent","DC","4","3","Q.jpg","N.jpg","0","0","1","",""
"","feedback","","html-keyboard-response","229","267079","0.0-1.0-303.0-0.0","0","0","55293","","null","","","null","33","","","","","","","","","","","","","","","",""
"","ITI","","html-keyboard-response","230","268082","0.0-1.0-306.0","0","0","55293","","null","","","null","33","","","","","","","","","","","","","","","NaN",""
"","S1","","html-keyboard-response","231","268334","0.0-1.0-308.0","0","0","55293","","null","","","null","34","","","","","","","","","","","","","","","",""
"","ISI","","html-keyboard-response","232","269338","0.0-1.0-309.0","0","0","55293","","null","","","null","34","NaN","","","","","","","","","","","","","","",""
"","S2","","html-keyboard-response","233","269590","0.0-1.0-310.0","0","0","55293","","null","","","null","34","","NaN","","","","","","","","","","","","","",""
"","response","","html-keyboard-response","234","269867","0.0-1.0-311.0-0.0","0","0","55293","","275","","","68","34","","","1","34","training","adjacent","DE","4","5","Q.jpg","P.jpg","0","1","0","",""
"","feedback","","html-keyboard-response","235","270870","0.0-1.0-312.0-0.0","0","0","55293","","null","","","null","34","","","","","","","","","","","","","","","",""
"","time_out","","html-keyboard-response","236","272873","0.0-1.0-314.0-0.0","0","0","55293","","null","","","null","34","","","","","","","","","","","","","","","",""
"","ITI","","html-keyboard-response","237","273876","0.0-1.0-315.0","0","0","55293","","null","","","null","34","","","","","","","","","","","","","","","NaN",""
"","S1","","html-keyboard-response","238","274128","0.0-1.0-317.0","0","0","55293","","null","","","null","35","","","","","","","","","","","","","","","",""
"","ISI","","html-keyboard-response","239","275130","0.0-1.0-318.0","0","0","55293","","null","","","null","35","NaN","","","","","","","","","","","","","","",""
"","S2","","html-keyboard-response","240","275382","0.0-1.0-319.0","0","0","55293","","null","","","null","35","","NaN","","","","","","","","","","","","","",""
"","response","","html-keyboard-response","241","276363","0.0-1.0-320.0-0.0","0","0","55293","","979","","","75","35","","","1","35","training","adjacent","CD","3","4","N.jpg","Q.jpg","1","1","1","",""
"","feedback","","html-keyboard-response","242","277365","0.0-1.0-321.0-0.0","0","0","55293","","null","","","null","35","","","","","","","","","","","","","","","",""
"","ITI","","html-keyboard-response","243","278368","0.0-1.0-324.0","0","0","55293","","null","","","null","35","","","","","","","","","","","","","","","NaN",""
"","S1","","html-keyboard-response","244","278620","0.0-1.0-326.0","0","0","55293","","null","","","null","36","","","","","","","","","","","","","","","",""
"","ISI","","html-keyboard-response","245","279622","0.0-1.0-327.0","0","0","55293","","null","","","null","36","NaN","","","","","","","","","","","","","","",""
"","S2","","html-keyboard-response","246","279875","0.0-1.0-328.0","0","0","55293","","null","","","null","36","","NaN","","","","","","","","","","","","","",""
"","response","","html-keyboard-response","247","280497","0.0-1.0-329.0-0.0","0","0","55293","","621","","","75","36","","","1","36","training","adjacent","FG","6","7","R.jpg","L.jpg","1","1","1","",""
"","feedback","","html-keyboard-response","248","281499","0.0-1.0-330.0-0.0","0","0","55293","","null","","","null","36","","","","","","","","","","","","","","","",""
"","ITI","","html-keyboard-response","249","282504","0.0-1.0-333.0","0","0","55293","","null","","","null","36","","","","","","","","","","","","","","","NaN",""
"","S1","","html-keyboard-response","250","282759","0.0-1.0-335.0","0","0","55293","","null","","","null","37","","","","","","","","","","","","","","","",""
"","ISI","","html-keyboard-response","251","283761","0.0-1.0-336.0","0","0","55293","","null","","","null","37","NaN","","","","","","","","","","","","","","",""
"","S2","","html-keyboard-response","252","284014","0.0-1.0-337.0","0","0","55293","","null","","","null","37","","NaN","","","","","","","","","","","","","",""
"","response","","html-keyboard-response","253","284319","0.0-1.0-338.0-0.0","0","0","55293","","303","","","75","37","","","1","37","training","adjacent","AB","1","2","O.jpg","M.jpg","1","1","1","",""
"","feedback","","html-keyboard-response","254","285322","0.0-1.0-339.0-0.0","0","0","55293","","null","","","null","37","","","","","","","","","","","","","","","",""
"","ITI","","html-keyboard-response","255","286324","0.0-1.0-342.0","0","0","55293","","null","","","null","37","","","","","","","","","","","","","","","NaN",""
"","S1","","html-keyboard-response","256","286576","0.0-1.0-344.0","0","0","55293","","null","","","null","38","","","","","","","","","","","","","","","",""
"","ISI","","html-keyboard-response","257","287578","0.0-1.0-345.0","0","0","55293","","null","","","null","38","NaN","","","","","","","","","","","","","","",""
"","S2","","html-keyboard-response","258","287831","0.0-1.0-346.0","0","0","55293","","null","","","null","38","","NaN","","","","","","","","","","","","","",""
"","response","","html-keyboard-response","259","288334","0.0-1.0-347.0-0.0","0","0","55293","","502","","","75","38","","","1","38","training","adjacent","CB","3","2","N.jpg","M.jpg","1","0","0","",""
"","feedback","","html-keyboard-response","260","289337","0.0-1.0-348.0-0.0","0","0","55293","","null","","","null","38","","","","","","","","","","","","","","","",""
"","time_out","","html-keyboard-response","261","291339","0.0-1.0-350.0-0.0","0","0","55293","","null","","","null","38","","","","","","","","","","","","","","","",""
"","ITI","","html-keyboard-response","262","292341","0.0-1.0-351.0","0","0","55293","","null","","","null","38","","","","","","","","","","","","","","","NaN",""
"","S1","","html-keyboard-response","263","292593","0.0-1.0-353.0","0","0","55293","","null","","","null","39","","","","","","","","","","","","","","","",""
"","ISI","","html-keyboard-response","264","293595","0.0-1.0-354.0","0","0","55293","","null","","","null","39","NaN","","","","","","","","","","","","","","",""
"","S2","","html-keyboard-response","265","293847","0.0-1.0-355.0","0","0","55293","","null","","","null","39","","NaN","","","","","","","","","","","","","",""
"","response","","html-keyboard-response","266","294338","0.0-1.0-356.0-0.0","0","0","55293","","490","","","75","39","","","1","39","training","adjacent","CB","3","2","N.jpg","M.jpg","1","0","0","",""
"","feedback","","html-keyboard-response","267","295340","0.0-1.0-357.0-0.0","0","0","55293","","null","","","null","39","","","","","","","","","","","","","","","",""
"","time_out","","html-keyboard-response","268","297343","0.0-1.0-359.0-0.0","0","0","55293","","null","","","null","39","","","","","","","","","","","","","","","",""
"","ITI","","html-keyboard-response","269","298345","0.0-1.0-360.0","0","0","55293","","null","","","null","39","","","","","","","","","","","","","","","NaN",""
"","S1","","html-keyboard-response","270","298597","0.0-1.0-362.0","0","0","55293","","null","","","null","40","","","","","","","","","","","","","","","",""
"","ISI","","html-keyboard-response","271","299599","0.0-1.0-363.0","0","0","55293","","null","","","null","40","NaN","","","","","","","","","","","","","","",""
"","S2","","html-keyboard-response","272","299852","0.0-1.0-364.0","0","0","55293","","null","","","null","40","","NaN","","","","","","","","","","","","","",""
"","response","","html-keyboard-response","273","300784","0.0-1.0-365.0-0.0","0","0","55293","","930","","","75","40","","","1","40","training","adjacent","GF","7","6","L.jpg","R.jpg","1","0","0","",""
"","feedback","","html-keyboard-response","274","301788","0.0-1.0-366.0-0.0","0","0","55293","","null","","","null","40","","","","","","","","","","","","","","","",""
"","time_out","","html-keyboard-response","275","303790","0.0-1.0-368.0-0.0","0","0","55293","","null","","","null","40","","","","","","","","","","","","","","","",""
"","ITI","","html-keyboard-response","276","304792","0.0-1.0-369.0","0","0","55293","","null","","","null","40","","","","","","","","","","","","","","","NaN",""
"","S1","","html-keyboard-response","277","305045","0.0-1.0-371.0","0","0","55293","","null","","","null","41","","","","","","","","","","","","","","","",""
"","ISI","","html-keyboard-response","278","306047","0.0-1.0-372.0","0","0","55293","","null","","","null","41","NaN","","","","","","","","","","","","","","",""
"","S2","","html-keyboard-response","279","306300","0.0-1.0-373.0","0","0","55293","","null","","","null","41","","NaN","","","","","","","","","","","","","",""
"","response","","html-keyboard-response","280","306800","0.0-1.0-374.0-0.0","0","0","55293","","498","","","75","41","","","1","41","training","adjacent","ED","5","4","P.jpg","Q.jpg","1","0","0","",""
"","feedback","","html-keyboard-response","281","307802","0.0-1.0-375.0-0.0","0","0","55293","","null","","","null","41","","","","","","","","","","","","","","","",""
"","time_out","","html-keyboard-response","282","309804","0.0-1.0-377.0-0.0","0","0","55293","","null","","","null","41","","","","","","","","","","","","","","","",""
"","ITI","","html-keyboard-response","283","310807","0.0-1.0-378.0","0","0","55293","","null","","","null","41","","","","","","","","","","","","","","","NaN",""
"","S1","","html-keyboard-response","284","311060","0.0-1.0-380.0","0","0","55293","","null","","","null","42","","","","","","","","","","","","","","","",""
"","ISI","","html-keyboard-response","285","312062","0.0-1.0-381.0","0","0","55293","","null","","","null","42","NaN","","","","","","","","","","","","","","",""
"","S2","","html-keyboard-response","286","312314","0.0-1.0-382.0","0","0","55293","","null","","","null","42","","NaN","","","","","","","","","","","","","",""
"","response","","html-keyboard-response","287","312396","0.0-1.0-383.0-0.0","0","0","55293","","81","","","68","42","","","1","42","training","adjacent","CD","3","4","N.jpg","Q.jpg","0","1","0","",""
"","feedback","","html-keyboard-response","288","313398","0.0-1.0-384.0-0.0","0","0","55293","","null","","","null","42","","","","","","","","","","","","","","","",""
"","time_out","","html-keyboard-response","289","315401","0.0-1.0-386.0-0.0","0","0","55293","","null","","","null","42","","","","","","","","","","","","","","","",""
"","ITI","","html-keyboard-response","290","316404","0.0-1.0-387.0","0","0","55293","","null","","","null","42","","","","","","","","","","","","","","","NaN",""
"","S1","","html-keyboard-response","291","316656","0.0-1.0-389.0","0","0","55293","","null","","","null","43","","","","","","","","","","","","","","","",""
"","ISI","","html-keyboard-response","292","317659","0.0-1.0-390.0","0","0","55293","","null","","","null","43","NaN","","","","","","","","","","","","","","",""
"","S2","","html-keyboard-response","293","317911","0.0-1.0-391.0","0","0","55293","","null","","","null","43","","NaN","","","","","","","","","","","","","",""
"","response","","html-keyboard-response","294","318174","0.0-1.0-392.0-0.0","0","0","55293","","259","","","75","43","","","1","43","training","adjacent","DC","4","3","Q.jpg","N.jpg","1","0","0","",""
"","feedback","","html-keyboard-response","295","319177","0.0-1.0-393.0-0.0","0","0","55293","","null","","","null","43","","","","","","","","","","","","","","","",""
"","time_out","","html-keyboard-response","296","321179","0.0-1.0-395.0-0.0","0","0","55293","","null","","","null","43","","","","","","","","","","","","","","","",""
"","ITI","","html-keyboard-response","297","322183","0.0-1.0-396.0","0","0","55293","","null","","","null","43","","","","","","","","","","","","","","","NaN",""
"","S1","","html-keyboard-response","298","322435","0.0-1.0-398.0","0","0","55293","","null","","","null","44","","","","","","","","","","","","","","","",""
"","ISI","","html-keyboard-response","299","323438","0.0-1.0-399.0","0","0","55293","","null","","","null","44","NaN","","","","","","","","","","","","","","",""
"","S2","","html-keyboard-response","300","323690","0.0-1.0-400.0","0","0","55293","","null","","","null","44","","NaN","","","","","","","","","","","","","",""
"","response","","html-keyboard-response","301","324617","0.0-1.0-401.0-0.0","0","0","55293","","924","","","68","44","","","1","44","training","adjacent","EF","5","6","P.jpg","R.jpg","0","1","0","",""
"","feedback","","html-keyboard-response","302","325619","0.0-1.0-402.0-0.0","0","0","55293","","null","","","null","44","","","","","","","","","","","","","","","",""
"","time_out","","html-keyboard-response","303","327622","0.0-1.0-404.0-0.0","0","0","55293","","null","","","null","44","","","","","","","","","","","","","","","",""
"","ITI","","html-keyboard-response","304","328624","0.0-1.0-405.0","0","0","55293","","null","","","null","44","","","","","","","","","","","","","","","NaN",""
"","S1","","html-keyboard-response","305","328877","0.0-1.0-407.0","0","0","55293","","null","","","null","45","","","","","","","","","","","","","","","",""
"","ISI","","html-keyboard-response","306","329879","0.0-1.0-408.0","0","0","55293","","null","","","null","45","NaN","","","","","","","","","","","","","","",""
"","S2","","html-keyboard-response","307","330040","0.0-1.0-409.0","0","0","55293","","160","","","75","45","","k","1","45","training","adjacent","DC","4","3","Q.jpg","N.jpg","1","0","0","",""
"","feedback","","html-keyboard-response","308","331042","0.0-1.0-411.0-0.0","0","0","55293","","null","","","null","45","","","","","","","","","","","","","","","",""
"","time_out","","html-keyboard-response","309","333044","0.0-1.0-413.0-0.0","0","0","55293","","null","","","null","45","","","","","","","","","","","","","","","",""
"","ITI","","html-keyboard-response","310","334046","0.0-1.0-414.0","0","0","55293","","null","","","null","45","","","","","","","","","","","","","","","NaN",""
"","S1","","html-keyboard-response","311","334299","0.0-1.0-416.0","0","0","55293","","null","","","null","46","","","","","","","","","","","","","","","",""
"","ISI","","html-keyboard-response","312","335302","0.0-1.0-417.0","0","0","55293","","815","","","68","46","d","","","","","","","","","","","","","","",""
"","S2","","html-keyboard-response","313","335554","0.0-1.0-418.0","0","0","55293","","null","","","null","46","","NaN","","","","","","","","","","","","","",""
"","response","","html-keyboard-response","314","335745","0.0-1.0-419.0-0.0","0","0","55293","","189","","","68","46","","","1","46","training","adjacent","CD","3","4","N.jpg","Q.jpg","0","1","0","",""
"","feedback","","html-keyboard-response","315","336747","0.0-1.0-420.0-0.0","0","0","55293","","null","","","null","46","","","","","","","","","","","","","","","",""
"","time_out","","html-keyboard-response","316","338750","0.0-1.0-422.0-0.0","0","0","55293","","null","","","null","46","","","","","","","","","","","","","","","",""
"","ITI","","html-keyboard-response","317","339753","0.0-1.0-423.0","0","0","55293","","null","","","null","46","","","","","","","","","","","","","","","NaN",""
"","S1","","html-keyboard-response","318","340006","0.0-1.0-425.0","0","0","55293","","null","","","null","47","","","","","","","","","","","","","","","",""
"","ISI","","html-keyboard-response","319","341009","0.0-1.0-426.0","0","0","55293","","952","","","75","47","k","","","","","","","","","","","","","","",""
"","S2","","html-keyboard-response","320","341261","0.0-1.0-427.0","0","0","55293","","null","","","null","47","","NaN","","","","","","","","","","","","","",""
"","response","","html-keyboard-response","321","341285","0.0-1.0-428.0-0.0","0","0","55293","","22","","","75","47","","","1","47","training","adjacent","BC","2","3","M.jpg","N.jpg","1","1","1","",""
"","feedback","","html-keyboard-response","322","342287","0.0-1.0-429.0-0.0","0","0","55293","","null","","","null","47","","","","","","","","","","","","","","","",""
"","ITI","","html-keyboard-response","323","343290","0.0-1.0-432.0","0","0","55293","","null","","","null","47","","","","","","","","","","","","","","","NaN",""
"","block_over","","html-keyboard-response","324","346269","0.0-1.0-433.0-0.0","0","0","55293","","2976","","","32","47","","","","","","","","","","","","","","","",""
"","S1","","html-keyboard-response","325","346521","0.0-1.0-434.0","0","0","55293","","null","","","null","48","","","","","","","","","","","","","","","",""
"","ISI","","html-keyboard-response","326","347524","0.0-1.0-435.0","0","0","55293","","null","","","null","48","NaN","","","","","","","","","","","","","","",""
"","S2","","html-keyboard-response","327","347777","0.0-1.0-436.0","0","0","55293","","null","","","null","48","","NaN","","","","","","","","","","","","","",""
"","response","","html-keyboard-response","328","348169","0.0-1.0-437.0-0.0","0","0","55293","","391","","","75","48","","","2","48","training","adjacent","AB","1","2","O.jpg","M.jpg","1","1","1","",""
"","feedback","","html-keyboard-response","329","349173","0.0-1.0-438.0-0.0","0","0","55293","","null","","","null","48","","","","","","","","","","","","","","","",""
"","ITI","","html-keyboard-response","330","350176","0.0-1.0-441.0","0","0","55293","","null","","","null","48","","","","","","","","","","","","","","","NaN",""
"","S1","","html-keyboard-response","331","350428","0.0-1.0-443.0","0","0","55293","","null","","","null","49","","","","","","","","","","","","","","","",""
"","ISI","","html-keyboard-response","332","351430","0.0-1.0-444.0","0","0","55293","","201","","","68","49","d","","","","","","","","","","","","","","",""
"","S2","","html-keyboard-response","333","351682","0.0-1.0-445.0","0","0","55293","","null","","","null","49","","NaN","","","","","","","","","","","","","",""
"","response","","html-keyboard-response","334","351821","0.0-1.0-446.0-0.0","0","0","55293","","137","","","75","49","","","2","49","training","adjacent","GF","7","6","L.jpg","R.jpg","1","0","0","",""
"","feedback","","html-keyboard-response","335","352824","0.0-1.0-447.0-0.0","0","0","55293","","null","","","null","49","","","","","","","","","","","","","","","",""
"","time_out","","html-keyboard-response","336","354827","0.0-1.0-449.0-0.0","0","0","55293","","null","","","null","49","","","","","","","","","","","","","","","",""
"","ITI","","html-keyboard-response","337","355830","0.0-1.0-450.0","0","0","55293","","254","","","68","49","","","","","","","","","","","","","","","d",""
"","S1","","html-keyboard-response","338","356083","0.0-1.0-452.0","0","0","55293","","null","","","null","50","","","","","","","","","","","","","","","",""
"","ISI","","html-keyboard-response","339","357086","0.0-1.0-453.0","0","0","55293","","116","","","68","50","d","","","","","","","","","","","","","","",""
"","S2","","html-keyboard-response","340","357338","0.0-1.0-454.0","0","0","55293","","null","","","null","50","","NaN","","","","","","","","","","","","","",""
"","response","","html-keyboard-response","341","357349","0.0-1.0-455.0-0.0","0","0","55293","","10","","","75","50","","","2","50","training","adjacent","GF","7","6","L.jpg","R.jpg","1","0","0","",""
"","feedback","","html-keyboard-response","342","358353","0.0-1.0-456.0-0.0","0","0","55293","","null","","","null","50","","","","","","","","","","","","","","","",""
"","time_out","","html-keyboard-response","343","360356","0.0-1.0-458.0-0.0","0","0","55293","","null","","","null","50","","","","","","","","","","","","","","","",""
"","ITI","","html-keyboard-response","344","361359","0.0-1.0-459.0","0","0","55293","","133","","","68","50","","","","","","","","","","","","","","","d",""
"","S1","","html-keyboard-response","345","361611","0.0-1.0-461.0","0","0","55293","","null","","","null","51","","","","","","","","","","","","","","","",""
"","ISI","","html-keyboard-response","346","362613","0.0-1.0-462.0","0","0","55293","","87","","","68","51","d","","","","","","","","","","","","","","",""
"","S2","","html-keyboard-response","347","362866","0.0-1.0-463.0","0","0","55293","","null","","","null","51","","NaN","","","","","","","","","","","","","",""
"","response","","html-keyboard-response","348","363052","0.0-1.0-464.0-0.0","0","0","55293","","185","","","75","51","","","2","51","training","adjacent","ED","5","4","P.jpg","Q.jpg","1","0","0","",""
"","feedback","","html-keyboard-response","349","364055","0.0-1.0-465.0-0.0","0","0","55293","","null","","","null","51","","","","","","","","","","","","","","","",""
"","time_out","","html-keyboard-response","350","366058","0.0-1.0-467.0-0.0","0","0","55293","","null","","","null","51","","","","","","","","","","","","","","","",""
"","ITI","","html-keyboard-response","351","367060","0.0-1.0-468.0","0","0","55293","","null","","","null","51","","","","","","","","","","","","","","","NaN",""
"","S1","","html-keyboard-response","352","367312","0.0-1.0-470.0","0","0","55293","","null","","","null","52","","","","","","","","","","","","","","","",""
"","ISI","","html-keyboard-response","353","368315","0.0-1.0-471.0","0","0","55293","","263","","","68","52","d","","","","","","","","","","","","","","",""
"","S2","","html-keyboard-response","354","368568","0.0-1.0-472.0","0","0","55293","","null","","","null","52","","NaN","","","","","","","","","","","","","",""
"","response","","html-keyboard-response","355","368999","0.0-1.0-473.0-0.0","0","0","55293","","429","","","68","52","","","2","52","training","adjacent","BC","2","3","M.jpg","N.jpg","0","1","0","",""
"","feedback","","html-keyboard-response","356","370001","0.0-1.0-474.0-0.0","0","0","55293","","null","","","null","52","","","","","","","","","","","","","","","",""
"","time_out","","html-keyboard-response","357","372004","0.0-1.0-476.0-0.0","0","0","55293","","null","","","null","52","","","","","","","","","","","","","","","",""
"","ITI","","html-keyboard-response","358","373007","0.0-1.0-477.0","0","0","55293","","null","","","null","52","","","","","","","","","","","","","","","NaN",""
"","S1","","html-keyboard-response","359","373260","0.0-1.0-479.0","0","0","55293","","null","","","null","53","","","","","","","","","","","","","","","",""
"","ISI","","html-keyboard-response","360","374262","0.0-1.0-480.0","0","0","55293","","null","","","null","53","NaN","","","","","","","","","","","","","","",""
"","S2","","html-keyboard-response","361","374514","0.0-1.0-481.0","0","0","55293","","null","","","null","53","","NaN","","","","","","","","","","","","","",""
"","response","","html-keyboard-response","362","375151","0.0-1.0-482.0-0.0","0","0","55293","","635","","","75","53","","","2","53","training","adjacent","BA","2","1","M.jpg","O.jpg","1","0","0","",""
"","feedback","","html-keyboard-response","363","376153","0.0-1.0-483.0-0.0","0","0","55293","","null","","","null","53","","","","","","","","","","","","","","","",""
"","time_out","","html-keyboard-response","364","378156","0.0-1.0-485.0-0.0","0","0","55293","","null","","","null","53","","","","","","","","","","","","","","","",""
"","ITI","","html-keyboard-response","365","379158","0.0-1.0-486.0","0","0","55293","","null","","","null","53","","","","","","","","","","","","","","","NaN",""
"","S1","","html-keyboard-response","366","379410","0.0-1.0-488.0","0","0","55293","","null","","","null","54","","","","","","","","","","","","","","","",""
"","ISI","","html-keyboard-response","367","380413","0.0-1.0-489.0","0","0","55293","","null","","","null","54","NaN","","","","","","","","","","","","","","",""
"","S2","","html-keyboard-response","368","380665","0.0-1.0-490.0","0","0","55293","","null","","","null","54","","NaN","","","","","","","","","","","","","",""
"","response","","html-keyboard-response","369","381157","0.0-1.0-491.0-0.0","0","0","55293","","490","","","75","54","","","2","54","training","adjacent","BA","2","1","M.jpg","O.jpg","1","0","0","",""
"","feedback","","html-keyboard-response","370","382160","0.0-1.0-492.0-0.0","0","0","55293","","null","","","null","54","","","","","","","","","","","","","","","",""
"","time_out","","html-keyboard-response","371","384163","0.0-1.0-494.0-0.0","0","0","55293","","null","","","null","54","","","","","","","","","","","","","","","",""
"","ITI","","html-keyboard-response","372","385164","0.0-1.0-495.0","0","0","55293","","null","","","null","54","","","","","","","","","","","","","","","NaN",""
"","S1","","html-keyboard-response","373","385417","0.0-1.0-497.0","0","0","55293","","null","","","null","55","","","","","","","","","","","","","","","",""
"","ISI","","html-keyboard-response","374","386420","0.0-1.0-498.0","0","0","55293","","null","","","null","55","NaN","","","","","","","","","","","","","","",""
"","S2","","html-keyboard-response","375","386672","0.0-1.0-499.0","0","0","55293","","null","","","null","55","","NaN","","","","","","","","","","","","","",""
"","response","","html-keyboard-response","376","387042","0.0-1.0-500.0-0.0","0","0","55293","","368","","","68","55","","","2","55","training","adjacent","BC","2","3","M.jpg","N.jpg","0","1","0","",""
"","feedback","","html-keyboard-response","377","388045","0.0-1.0-501.0-0.0","0","0","55293","","null","","","null","55","","","","","","","","","","","","","","","",""
"","time_out","","html-keyboard-response","378","390047","0.0-1.0-503.0-0.0","0","0","55293","","null","","","null","55","","","","","","","","","","","","","","","",""
"","ITI","","html-keyboard-response","379","391049","0.0-1.0-504.0","0","0","55293","","null","","","null","55","","","","","","","","","","","","","","","NaN",""
"","S1","","html-keyboard-response","380","391302","0.0-1.0-506.0","0","0","55293","","null","","","null","56","","","","","","","","","","","","","","","",""
"","ISI","","html-keyboard-response","381","392304","0.0-1.0-507.0","0","0","55293","","null","","","null","56","NaN","","","","","","","","","","","","","","",""
"","S2","","html-keyboard-response","382","392557","0.0-1.0-508.0","0","0","55293","","null","","","null","56","","NaN","","","","","","","","","","","","","",""
"","response","","html-keyboard-response","383","393258","0.0-1.0-509.0-0.0","0","0","55293","","700","","","75","56","","","2","56","training","adjacent","DE","4","5","Q.jpg","P.jpg","1","1","1","",""
"","feedback","","html-keyboard-response","384","394261","0.0-1.0-510.0-0.0","0","0","55293","","null","","","null","56","","","","","","","","","","","","","","","",""
"","ITI","","html-keyboard-response","385","395263","0.0-1.0-513.0","0","0","55293","","null","","","null","56","","","","","","","","","","","","","","","NaN",""
"","S1","","html-keyboard-response","386","395515","0.0-1.0-515.0","0","0","55293","","null","","","null","57","","","","","","","","","","","","","","","",""
"","ISI","","html-keyboard-response","387","396517","0.0-1.0-516.0","0","0","55293","","null","","","null","57","NaN","","","","","","","","","","","","","","",""
"","S2","","html-keyboard-response","388","396770","0.0-1.0-517.0","0","0","55293","","null","","","null","57","","NaN","","","","","","","","","","","","","",""
"","response","","html-keyboard-response","389","397656","0.0-1.0-518.0-0.0","0","0","55293","","884","","","75","57","","","2","57","training","adjacent","FE","6","5","R.jpg","P.jpg","1","0","0","",""
"","feedback","","html-keyboard-response","390","398659","0.0-1.0-519.0-0.0","0","0","55293","","null","","","null","57","","","","","","","","","","","","","","","",""
"","time_out","","html-keyboard-response","391","400661","0.0-1.0-521.0-0.0","0","0","55293","","null","","","null","57","","","","","","","","","","","","","","","",""
"","ITI","","html-keyboard-response","392","401663","0.0-1.0-522.0","0","0","55293","","869","","","68","57","","","","","","","","","","","","","","","d",""
"","S1","","html-keyboard-response","393","401915","0.0-1.0-524.0","0","0","55293","","null","","","null","58","","","","","","","","","","","","","","","",""
"","ISI","","html-keyboard-response","394","402919","0.0-1.0-525.0","0","0","55293","","null","","","null","58","NaN","","","","","","","","","","","","","","",""
"","S2","","html-keyboard-response","395","403173","0.0-1.0-526.0","0","0","55293","","null","","","null","58","","NaN","","","","","","","","","","","","","",""
"","response","","html-keyboard-response","396","403322","0.0-1.0-527.0-0.0","0","0","55293","","148","","","68","58","","","2","58","training","adjacent","AB","1","2","O.jpg","M.jpg","0","1","0","",""
"","feedback","","html-keyboard-response","397","404325","0.0-1.0-528.0-0.0","0","0","55293","","null","","","null","58","","","","","","","","","","","","","","","",""
"","time_out","","html-keyboard-response","398","406328","0.0-1.0-530.0-0.0","0","0","55293","","null","","","null","58","","","","","","","","","","","","","","","",""
"","ITI","","html-keyboard-response","399","407330","0.0-1.0-531.0","0","0","55293","","null","","","null","58","","","","","","","","","","","","","","","NaN",""
"","S1","","html-keyboard-response","400","407583","0.0-1.0-533.0","0","0","55293","","null","","","null","59","","","","","","","","","","","","","","","",""
"","ISI","","html-keyboard-response","401","408587","0.0-1.0-534.0","0","0","55293","","304","","","68","59","d","","","","","","","","","","","","","","",""
"","S2","","html-keyboard-response","402","408839","0.0-1.0-535.0","0","0","55293","","null","","","null","59","","NaN","","","","","","","","","","","","","",""
"","response","","html-keyboard-response","403","409736","0.0-1.0-536.0-0.0","0","0","55293","","895","","","75","59","","","2","59","training","adjacent","CD","3","4","N.jpg","Q.jpg","1","1","1","",""
"","feedback","","html-keyboard-response","404","410739","0.0-1.0-537.0-0.0","0","0","55293","","null","","","null","59","","","","","","","","","","","","","","","",""
"","ITI","","html-keyboard-response","405","411741","0.0-1.0-540.0","0","0","55293","","null","","","null","59","","","","","","","","","","","","","","","NaN",""
"","S1","","html-keyboard-response","406","411994","0.0-1.0-542.0","0","0","55293","","null","","","null","60","","","","","","","","","","","","","","","",""
"","ISI","","html-keyboard-response","407","412996","0.0-1.0-543.0","0","0","55293","","null","","","null","60","NaN","","","","","","","","","","","","","","",""
"","S2","","html-keyboard-response","408","413249","0.0-1.0-544.0","0","0","55293","","null","","","null","60","","NaN","","","","","","","","","","","","","",""
"","response","","html-keyboard-response","409","414959","0.0-1.0-545.0-0.0","0","0","55293","","1709","","","75","60","","","2","60","training","adjacent","ED","5","4","P.jpg","Q.jpg","1","0","0","",""
"","feedback","","html-keyboard-response","410","415962","0.0-1.0-546.0-0.0","0","0","55293","","null","","","null","60","","","","","","","","","","","","","","","",""
"","time_out","","html-keyboard-response","411","417963","0.0-1.0-548.0-0.0","0","0","55293","","null","","","null","60","","","","","","","","","","","","","","","",""
"","ITI","","html-keyboard-response","412","418966","0.0-1.0-549.0","0","0","55293","","null","","","null","60","","","","","","","","","","","","","","","NaN",""
"","S1","","html-keyboard-response","413","419219","0.0-1.0-551.0","0","0","55293","","null","","","null","61","","","","","","","","","","","","","","","",""
"","ISI","","html-keyboard-response","414","420221","0.0-1.0-552.0","0","0","55293","","null","","","null","61","NaN","","","","","","","","","","","","","","",""
"","S2","","html-keyboard-response","415","420474","0.0-1.0-553.0","0","0","55293","","null","","","null","61","","NaN","","","","","","","","","","","","","",""
"","response","","html-keyboard-response","416","422226","0.0-1.0-554.0-0.0","0","0","55293","","null","","","null","61","","","2","61","training","adjacent","BA","2","1","M.jpg","O.jpg","NaN","0","0","",""
"","too_slow_prompt","","html-keyboard-response","417","423229","0.0-1.0-556.0-0.0","1","0","55293","","null","","","null","","","","","","","","","","","","","","","","",""
"","time_out","","html-keyboard-response","418","425231","0.0-1.0-557.0-0.0","0","0","55293","","null","","","null","61","","","","","","","","","","","","","","","",""
"","ITI","","html-keyboard-response","419","426235","0.0-1.0-558.0","0","0","55293","","null","","","null","61","","","","","","","","","","","","","","","NaN",""
"","S1","","html-keyboard-response","420","426487","0.0-1.0-560.0","0","0","55293","","null","","","null","62","","","","","","","","","","","","","","","",""
"","ISI","","html-keyboard-response","421","427489","0.0-1.0-561.0","0","0","55293","","564","","","75","62","k","","","","","","","","","","","","","","",""
"","S2","","html-keyboard-response","422","427741","0.0-1.0-562.0","0","0","55293","","null","","","null","62","","NaN","","","","","","","","","","","","","",""
"","response","","html-keyboard-response","423","427880","0.0-1.0-563.0-0.0","0","0","55293","","137","","","68","62","","","2","62","training","adjacent","DC","4","3","Q.jpg","N.jpg","0","0","1","",""
"","feedback","","html-keyboard-response","424","428882","0.0-1.0-564.0-0.0","0","0","55293","","null","","","null","62","","","","","","","","","","","","","","","",""
"","ITI","","html-keyboard-response","425","429885","0.0-1.0-567.0","0","0","55293","","null","","","null","62","","","","","","","","","","","","","","","NaN",""
"","S1","","html-keyboard-response","426","430138","0.0-1.0-569.0","0","0","55293","","null","","","null","63","","","","","","","","","","","","","","","",""
"","ISI","","html-keyboard-response","427","431140","0.0-1.0-570.0","0","0","55293","","235","","","68","63","d","","","","","","","","","","","","","","",""
"","S2","","html-keyboard-response","428","431392","0.0-1.0-571.0","0","0","55293","","null","","","null","63","","NaN","","","","","","","","","","","","","",""
"","response","","html-keyboard-response","429","431462","0.0-1.0-572.0-0.0","0","0","55293","","68","","","75","63","","","2","63","training","adjacent","FE","6","5","R.jpg","P.jpg","1","0","0","",""
"","feedback","","html-keyboard-response","430","432464","0.0-1.0-573.0-0.0","0","0","55293","","null","","","null","63","","","","","","","","","","","","","","","",""
"","time_out","","html-keyboard-response","431","434467","0.0-1.0-575.0-0.0","0","0","55293","","null","","","null","63","","","","","","","","","","","","","","","",""
"","ITI","","html-keyboard-response","432","435469","0.0-1.0-576.0","0","0","55293","","null","","","null","63","","","","","","","","","","","","","","","NaN",""
"","S1","","html-keyboard-response","433","435721","0.0-1.0-578.0","0","0","55293","","null","","","null","64","","","","","","","","","","","","","","","",""
"","ISI","","html-keyboard-response","434","436724","0.0-1.0-579.0","0","0","55293","","null","","","null","64","NaN","","","","","","","","","","","","","","",""
"","S2","","html-keyboard-response","435","436976","0.0-1.0-580.0","0","0","55293","","null","","","null","64","","NaN","","","","","","","","","","","","","",""
"","response","","html-keyboard-response","436","438729","0.0-1.0-581.0-0.0","0","0","55293","","null","","","null","64","","","2","64","training","adjacent","DE","4","5","Q.jpg","P.jpg","NaN","1","0","",""
"","too_slow_prompt","","html-keyboard-response","437","439732","0.0-1.0-583.0-0.0","1","0","55293","","null","","","null","","","","","","","","","","","","","","","","",""
"","time_out","","html-keyboard-response","438","441734","0.0-1.0-584.0-0.0","0","0","55293","","null","","","null","64","","","","","","","","","","","","","","","",""
"","ITI","","html-keyboard-response","439","442736","0.0-1.0-585.0","0","0","55293","","null","","","null","64","","","","","","","","","","","","","","","NaN",""
"","S1","","html-keyboard-response","440","442989","0.0-1.0-587.0","0","0","55293","","null","","","null","65","","","","","","","","","","","","","","","",""
"","ISI","","html-keyboard-response","441","443991","0.0-1.0-588.0","0","0","55293","","null","","","null","65","NaN","","","","","","","","","","","","","","",""
"","S2","","html-keyboard-response","442","444244","0.0-1.0-589.0","0","0","55293","","null","","","null","65","","NaN","","","","","","","","","","","","","",""
"","response","","html-keyboard-response","443","444343","0.0-1.0-590.0-0.0","0","0","55293","","97","","","68","65","","","2","65","training","adjacent","GF","7","6","L.jpg","R.jpg","0","0","1","",""
"","feedback","","html-keyboard-response","444","445346","0.0-1.0-591.0-0.0","0","0","55293","","null","","","null","65","","","","","","","","","","","","","","","",""
"","ITI","","html-keyboard-response","445","446349","0.0-1.0-594.0","0","0","55293","","null","","","null","65","","","","","","","","","","","","","","","NaN",""
"","S1","","html-keyboard-response","446","446602","0.0-1.0-596.0","0","0","55293","","null","","","null","66","","","","","","","","","","","","","","","",""
"","ISI","","html-keyboard-response","447","447605","0.0-1.0-597.0","0","0","55293","","null","","","null","66","NaN","","","","","","","","","","","","","","",""
"","S2","","html-keyboard-response","448","447858","0.0-1.0-598.0","0","0","55293","","null","","","null","66","","NaN","","","","","","","","","","","","","",""
"","response","","html-keyboard-response","449","448815","0.0-1.0-599.0-0.0","0","0","55293","","956","","","75","66","","","2","66","training","adjacent","ED","5","4","P.jpg","Q.jpg","1","0","0","",""
"","feedback","","html-keyboard-response","450","449817","0.0-1.0-600.0-0.0","0","0","55293","","null","","","null","66","","","","","","","","","","","","","","","",""
"","time_out","","html-keyboard-response","451","451820","0.0-1.0-602.0-0.0","0","0","55293","","null","","","null","66","","","","","","","","","","","","","","","",""
"","ITI","","html-keyboard-response","452","452821","0.0-1.0-603.0","0","0","55293","","null","","","null","66","","","","","","","","","","","","","","","NaN",""
"","S1","","html-keyboard-response","453","453074","0.0-1.0-605.0","0","0","55293","","null","","","null","67","","","","","","","","","","","","","","","",""
"","ISI","","html-keyboard-response","454","454076","0.0-1.0-606.0","0","0","55293","","null","","","null","67","NaN","","","","","","","","","","","","","","",""
"","S2","","html-keyboard-response","455","454329","0.0-1.0-607.0","0","0","55293","","null","","","null","67","","NaN","","","","","","","","","","","","","",""
"","response","","html-keyboard-response","456","454780","0.0-1.0-608.0-0.0","0","0","55293","","450","","","68","67","","","2","67","training","adjacent","CB","3","2","N.jpg","M.jpg","0","0","1","",""
"","feedback","","html-keyboard-response","457","455782","0.0-1.0-609.0-0.0","0","0","55293","","null","","","null","67","","","","","","","","","","","","","","","",""
"","ITI","","html-keyboard-response","458","456786","0.0-1.0-612.0","0","0","55293","","null","","","null","67","","","","","","","","","","","","","","","NaN",""
"","S1","","html-keyboard-response","459","457038","0.0-1.0-614.0","0","0","55293","","null","","","null","68","","","","","","","","","","","","","","","",""
"","ISI","","html-keyboard-response","460","458041","0.0-1.0-615.0","0","0","55293","","null","","","null","68","NaN","","","","","","","","","","","","","","",""
"","S2","","html-keyboard-response","461","458293","0.0-1.0-616.0","0","0","55293","","null","","","null","68","","NaN","","","","","","","","","","","","","",""
"","response","","html-keyboard-response","462","458547","0.0-1.0-617.0-0.0","0","0","55293","","252","","","75","68","","","2","68","training","adjacent","FG","6","7","R.jpg","L.jpg","1","1","1","",""
"","feedback","","html-keyboard-response","463","459551","0.0-1.0-618.0-0.0","0","0","55293","","null","","","null","68","","","","","","","","","","","","","","","",""
"","ITI","","html-keyboard-response","464","460554","0.0-1.0-621.0","0","0","55293","","null","","","null","68","","","","","","","","","","","","","","","NaN",""
"","S1","","html-keyboard-response","465","460806","0.0-1.0-623.0","0","0","55293","","null","","","null","69","","","","","","","","","","","","","","","",""
"","ISI","","html-keyboard-response","466","461808","0.0-1.0-624.0","0","0","55293","","null","","","null","69","NaN","","","","","","","","","","","","","","",""
"","S2","","html-keyboard-response","467","462061","0.0-1.0-625.0","0","0","55293","","null","","","null","69","","NaN","","","","","","","","","","","","","",""
"","response","","html-keyboard-response","468","462680","0.0-1.0-626.0-0.0","0","0","55293","","617","","","68","69","","","2","69","training","adjacent","EF","5","6","P.jpg","R.jpg","0","1","0","",""
"","feedback","","html-keyboard-response","469","463683","0.0-1.0-627.0-0.0","0","0","55293","","null","","","null","69","","","","","","","","","","","","","","","",""
"","time_out","","html-keyboard-response","470","465686","0.0-1.0-629.0-0.0","0","0","55293","","null","","","null","69","","","","","","","","","","","","","","","",""
"","ITI","","html-keyboard-response","471","466688","0.0-1.0-630.0","0","0","55293","","null","","","null","69","","","","","","","","","","","","","","","NaN",""
"","S1","","html-keyboard-response","472","466940","0.0-1.0-632.0","0","0","55293","","null","","","null","70","","","","","","","","","","","","","","","",""
"","ISI","","html-keyboard-response","473","467944","0.0-1.0-633.0","0","0","55293","","null","","","null","70","NaN","","","","","","","","","","","","","","",""
"","S2","","html-keyboard-response","474","468196","0.0-1.0-634.0","0","0","55293","","null","","","null","70","","NaN","","","","","","","","","","","","","",""
"","response","","html-keyboard-response","475","468832","0.0-1.0-635.0-0.0","0","0","55293","","635","","","75","70","","","2","70","training","adjacent","EF","5","6","P.jpg","R.jpg","1","1","1","",""
"","feedback","","html-keyboard-response","476","469835","0.0-1.0-636.0-0.0","0","0","55293","","null","","","null","70","","","","","","","","","","","","","","","",""
"","ITI","","html-keyboard-response","477","470838","0.0-1.0-639.0","0","0","55293","","null","","","null","70","","","","","","","","","","","","","","","NaN",""
"","S1","","html-keyboard-response","478","471091","0.0-1.0-641.0","0","0","55293","","null","","","null","71","","","","","","","","","","","","","","","",""
"","ISI","","html-keyboard-response","479","472094","0.0-1.0-642.0","0","0","55293","","null","","","null","71","NaN","","","","","","","","","","","","","","",""
"","S2","","html-keyboard-response","480","472347","0.0-1.0-643.0","0","0","55293","","null","","","null","71","","NaN","","","","","","","","","","","","","",""
"","response","","html-keyboard-response","481","472790","0.0-1.0-644.0-0.0","0","0","55293","","442","","","75","71","","","2","71","training","adjacent","CB","3","2","N.jpg","M.jpg","1","0","0","",""
"","feedback","","html-keyboard-response","482","473793","0.0-1.0-645.0-0.0","0","0","55293","","null","","","null","71","","","","","","","","","","","","","","","",""
"","time_out","","html-keyboard-response","483","475797","0.0-1.0-647.0-0.0","0","0","55293","","null","","","null","71","","","","","","","","","","","","","","","",""
"","ITI","","html-keyboard-response","484","476800","0.0-1.0-648.0","0","0","55293","","null","","","null","71","","","","","","","","","","","","","","","NaN",""
"","S1","","html-keyboard-response","485","477054","0.0-1.0-650.0","0","0","55293","","null","","","null","72","","","","","","","","","","","","","","","",""
"","ISI","","html-keyboard-response","486","478058","0.0-1.0-651.0","0","0","55293","","null","","","null","72","NaN","","","","","","","","","","","","","","",""
"","S2","","html-keyboard-response","487","478312","0.0-1.0-652.0","0","0","55293","","null","","","null","72","","NaN","","","","","","","","","","","","","",""
"","response","","html-keyboard-response","488","478596","0.0-1.0-653.0-0.0","0","0","55293","","281","","","68","72","","","2","72","training","adjacent","AB","1","2","O.jpg","M.jpg","0","1","0","",""
"","feedback","","html-keyboard-response","489","479600","0.0-1.0-654.0-0.0","0","0","55293","","null","","","null","72","","","","","","","","","","","","","","","",""
"","time_out","","html-keyboard-response","490","481603","0.0-1.0-656.0-0.0","0","0","55293","","null","","","null","72","","","","","","","","","","","","","","","",""
"","ITI","","html-keyboard-response","491","482606","0.0-1.0-657.0","0","0","55293","","null","","","null","72","","","","","","","","","","","","","","","NaN",""
"","S1","","html-keyboard-response","492","482858","0.0-1.0-659.0","0","0","55293","","null","","","null","73","","","","","","","","","","","","","","","",""
"","ISI","","html-keyboard-response","493","483860","0.0-1.0-660.0","0","0","55293","","null","","","null","73","NaN","","","","","","","","","","","","","","",""
"","S2","","html-keyboard-response","494","484112","0.0-1.0-661.0","0","0","55293","","null","","","null","73","","NaN","","","","","","","","","","","","","",""
"","response","","html-keyboard-response","495","484619","0.0-1.0-662.0-0.0","0","0","55293","","505","","","75","73","","","2","73","training","adjacent","FE","6","5","R.jpg","P.jpg","1","0","0","",""
"","feedback","","html-keyboard-response","496","485622","0.0-1.0-663.0-0.0","0","0","55293","","null","","","null","73","","","","","","","","","","","","","","","",""
"","time_out","","html-keyboard-response","497","487624","0.0-1.0-665.0-0.0","0","0","55293","","null","","","null","73","","","","","","","","","","","","","","","",""
"","ITI","","html-keyboard-response","498","488626","0.0-1.0-666.0","0","0","55293","","null","","","null","73","","","","","","","","","","","","","","","NaN",""
"","S1","","html-keyboard-response","499","488879","0.0-1.0-668.0","0","0","55293","","null","","","null","74","","","","","","","","","","","","","","","",""
"","ISI","","html-keyboard-response","500","489881","0.0-1.0-669.0","0","0","55293","","null","","","null","74","NaN","","","","","","","","","","","","","","",""
"","S2","","html-keyboard-response","501","490133","0.0-1.0-670.0","0","0","55293","","null","","","null","74","","NaN","","","","","","","","","","","","","",""
"","response","","html-keyboard-response","502","490270","0.0-1.0-671.0-0.0","0","0","55293","","135","","","68","74","","","2","74","training","adjacent","ED","5","4","P.jpg","Q.jpg","0","0","1","",""
"","feedback","","html-keyboard-response","503","491272","0.0-1.0-672.0-0.0","0","0","55293","","null","","","null","74","","","","","","","","","","","","","","","",""
"","ITI","","html-keyboard-response","504","492275","0.0-1.0-675.0","0","0","55293","","null","","","null","74","","","","","","","","","","","","","","","NaN",""
"","S1","","html-keyboard-response","505","492527","0.0-1.0-677.0","0","0","55293","","null","","","null","75","","","","","","","","","","","","","","","",""
"","ISI","","html-keyboard-response","506","493530","0.0-1.0-678.0","0","0","55293","","null","","","null","75","NaN","","","","","","","","","","","","","","",""
"","S2","","html-keyboard-response","507","493782","0.0-1.0-679.0","0","0","55293","","null","","","null","75","","NaN","","","","","","","","","","","","","",""
"","response","","html-keyboard-response","508","494036","0.0-1.0-680.0-0.0","0","0","55293","","252","","","68","75","","","2","75","training","adjacent","DE","4","5","Q.jpg","P.jpg","0","1","0","",""
"","feedback","","html-keyboard-response","509","495038","0.0-1.0-681.0-0.0","0","0","55293","","null","","","null","75","","","","","","","","","","","","","","","",""
"","time_out","","html-keyboard-response","510","497041","0.0-1.0-683.0-0.0","0","0","55293","","null","","","null","75","","","","","","","","","","","","","","","",""
"","ITI","","html-keyboard-response","511","498043","0.0-1.0-684.0","0","0","55293","","null","","","null","75","","","","","","","","","","","","","","","NaN",""
"","S1","","html-keyboard-response","512","498297","0.0-1.0-686.0","0","0","55293","","null","","","null","76","","","","","","","","","","","","","","","",""
"","ISI","","html-keyboard-response","513","499298","0.0-1.0-687.0","0","0","55293","","679","","","75","76","k","","","","","","","","","","","","","","",""
"","S2","","html-keyboard-response","514","499551","0.0-1.0-688.0","0","0","55293","","null","","","null","76","","NaN","","","","","","","","","","","","","",""
"","response","","html-keyboard-response","515","499648","0.0-1.0-689.0-0.0","0","0","55293","","96","","","75","76","","","2","76","training","adjacent","DC","4","3","Q.jpg","N.jpg","1","0","0","",""
"","feedback","","html-keyboard-response","516","500650","0.0-1.0-690.0-0.0","0","0","55293","","null","","","null","76","","","","","","","","","","","","","","","",""
"","time_out","","html-keyboard-response","517","502652","0.0-1.0-692.0-0.0","0","0","55293","","null","","","null","76","","","","","","","","","","","","","","","",""
"","ITI","","html-keyboard-response","518","503656","0.0-1.0-693.0","0","0","55293","","334","","","68","76","","","","","","","","","","","","","","","d",""
"","S1","","html-keyboard-response","519","503909","0.0-1.0-695.0","0","0","55293","","null","","","null","77","","","","","","","","","","","","","","","",""
"","ISI","","html-keyboard-response","520","504913","0.0-1.0-696.0","0","0","55293","","158","","","75","77","k","","","","","","","","","","","","","","",""
"","S2","","html-keyboard-response","521","505165","0.0-1.0-697.0","0","0","55293","","null","","","null","77","","NaN","","","","","","","","","","","","","",""
"","response","","html-keyboard-response","522","505702","0.0-1.0-698.0-0.0","0","0","55293","","536","","","75","77","","","2","77","training","adjacent","EF","5","6","P.jpg","R.jpg","1","1","1","",""
"","feedback","","html-keyboard-response","523","506704","0.0-1.0-699.0-0.0","0","0","55293","","null","","","null","77","","","","","","","","","","","","","","","",""
"","ITI","","html-keyboard-response","524","507706","0.0-1.0-702.0","0","0","55293","","null","","","null","77","","","","","","","","","","","","","","","NaN",""
"","S1","","html-keyboard-response","525","507958","0.0-1.0-704.0","0","0","55293","","null","","","null","78","","","","","","","","","","","","","","","",""
"","ISI","","html-keyboard-response","526","508960","0.0-1.0-705.0","0","0","55293","","660","","","75","78","k","","","","","","","","","","","","","","",""
"","S2","","html-keyboard-response","527","509176","0.0-1.0-706.0","0","0","55293","","214","","","68","78","","d","2","78","training","adjacent","FE","6","5","R.jpg","P.jpg","0","0","1","",""
"","feedback","","html-keyboard-response","528","510180","0.0-1.0-708.0-0.0","0","0","55293","","null","","","null","78","","","","","","","","","","","","","","","",""
"","ITI","","html-keyboard-response","529","511183","0.0-1.0-711.0","0","0","55293","","439","","","68","78","","","","","","","","","","","","","","","d",""
"","S1","","html-keyboard-response","530","511435","0.0-1.0-713.0","0","0","55293","","null","","","null","79","","","","","","","","","","","","","","","",""
"","ISI","","html-keyboard-response","531","512437","0.0-1.0-714.0","0","0","55293","","119","","","75","79","k","","","","","","","","","","","","","","",""
"","S2","","html-keyboard-response","532","512690","0.0-1.0-715.0","0","0","55293","","null","","","null","79","","NaN","","","","","","","","","","","","","",""
"","response","","html-keyboard-response","533","514443","0.0-1.0-716.0-0.0","0","0","55293","","null","","","null","79","","","2","79","training","adjacent","FG","6","7","R.jpg","L.jpg","NaN","1","0","",""
"","too_slow_prompt","","html-keyboard-response","534","515445","0.0-1.0-718.0-0.0","1","0","55293","","null","","","null","","","","","","","","","","","","","","","","",""
"","time_out","","html-keyboard-response","535","517448","0.0-1.0-719.0-0.0","0","0","55293","","null","","","null","79","","","","","","","","","","","","","","","",""
"","ITI","","html-keyboard-response","536","518450","0.0-1.0-720.0","0","0","55293","","null","","","null","79","","","","","","","","","","","","","","","NaN",""
"","S1","","html-keyboard-response","537","518703","0.0-1.0-722.0","0","0","55293","","null","","","null","80","","","","","","","","","","","","","","","",""
"","ISI","","html-keyboard-response","538","519707","0.0-1.0-723.0","0","0","55293","","699","","","75","80","k","","","","","","","","","","","","","","",""
"","S2","","html-keyboard-response","539","519919","0.0-1.0-724.0","0","0","55293","","211","","","68","80","","d","2","80","training","adjacent","CD","3","4","N.jpg","Q.jpg","0","1","0","",""
"","feedback","","html-keyboard-response","540","520922","0.0-1.0-726.0-0.0","0","0","55293","","null","","","null","80","","","","","","","","","","","","","","","",""
"","time_out","","html-keyboard-response","541","522924","0.0-1.0-728.0-0.0","0","0","55293","","null","","","null","80","","","","","","","","","","","","","","","",""
"","ITI","","html-keyboard-response","542","523927","0.0-1.0-729.0","0","0","55293","","null","","","null","80","","","","","","","","","","","","","","","NaN",""
"","S1","","html-keyboard-response","543","524181","0.0-1.0-731.0","0","0","55293","","null","","","null","81","","","","","","","","","","","","","","","",""
"","ISI","","html-keyboard-response","544","525182","0.0-1.0-732.0","0","0","55293","","337","","","75","81","k","","","","","","","","","","","","","","",""
"","S2","","html-keyboard-response","545","525330","0.0-1.0-733.0","0","0","55293","","145","","","68","81","","d","2","81","training","adjacent","BC","2","3","M.jpg","N.jpg","0","1","0","",""
"","feedback","","html-keyboard-response","546","526332","0.0-1.0-735.0-0.0","0","0","55293","","null","","","null","81","","","","","","","","","","","","","","","",""
"","time_out","","html-keyboard-response","547","528335","0.0-1.0-737.0-0.0","0","0","55293","","null","","","null","81","","","","","","","","","","","","","","","",""
"","ITI","","html-keyboard-response","548","529337","0.0-1.0-738.0","0","0","55293","","null","","","null","81","","","","","","","","","","","","","","","NaN",""
"","S1","","html-keyboard-response","549","529589","0.0-1.0-740.0","0","0","55293","","null","","","null","82","","","","","","","","","","","","","","","",""
"","ISI","","html-keyboard-response","550","530591","0.0-1.0-741.0","0","0","55293","","511","","","75","82","k","","","","","","","","","","","","","","",""
"","S2","","html-keyboard-response","551","530844","0.0-1.0-742.0","0","0","55293","","null","","","null","82","","NaN","","","","","","","","","","","","","",""
"","response","","html-keyboard-response","552","530900","0.0-1.0-743.0-0.0","0","0","55293","","53","","","75","82","","","2","82","training","adjacent","FG","6","7","R.jpg","L.jpg","1","1","1","",""
"","feedback","","html-keyboard-response","553","531902","0.0-1.0-744.0-0.0","0","0","55293","","null","","","null","82","","","","","","","","","","","","","","","",""
"","ITI","","html-keyboard-response","554","532904","0.0-1.0-747.0","0","0","55293","","null","","","null","82","","","","","","","","","","","","","","","NaN",""
"","S1","","html-keyboard-response","555","533157","0.0-1.0-749.0","0","0","55293","","null","","","null","83","","","","","","","","","","","","","","","",""
"","ISI","","html-keyboard-response","556","534160","0.0-1.0-750.0","0","0","55293","","null","","","null","83","NaN","","","","","","","","","","","","","","",""
"","S2","","html-keyboard-response","557","534412","0.0-1.0-751.0","0","0","55293","","null","","","null","83","","NaN","","","","","","","","","","","","","",""
"","response","","html-keyboard-response","558","534760","0.0-1.0-752.0-0.0","0","0","55293","","346","","","68","83","","","2","83","training","adjacent","CB","3","2","N.jpg","M.jpg","0","0","1","",""
"","feedback","","html-keyboard-response","559","535763","0.0-1.0-753.0-0.0","0","0","55293","","null","","","null","83","","","","","","","","","","","","","","","",""
"","ITI","","html-keyboard-response","560","536766","0.0-1.0-756.0","0","0","55293","","null","","","null","83","","","","","","","","","","","","","","","NaN",""
"","S1","","html-keyboard-response","561","537019","0.0-1.0-758.0","0","0","55293","","null","","","null","84","","","","","","","","","","","","","","","",""
"","ISI","","html-keyboard-response","562","538020","0.0-1.0-759.0","0","0","55293","","null","","","null","84","NaN","","","","","","","","","","","","","","",""
"","S2","","html-keyboard-response","563","538273","0.0-1.0-760.0","0","0","55293","","null","","","null","84","","NaN","","","","","","","","","","","","","",""
"","response","","html-keyboard-response","564","538880","0.0-1.0-761.0-0.0","0","0","55293","","605","","","75","84","","","2","84","training","adjacent","CD","3","4","N.jpg","Q.jpg","1","1","1","",""
"","feedback","","html-keyboard-response","565","539883","0.0-1.0-762.0-0.0","0","0","55293","","null","","","null","84","","","","","","","","","","","","","","","",""
"","ITI","","html-keyboard-response","566","540886","0.0-1.0-765.0","0","0","55293","","null","","","null","84","","","","","","","","","","","","","","","NaN",""
"","S1","","html-keyboard-response","567","541140","0.0-1.0-767.0","0","0","55293","","null","","","null","85","","","","","","","","","","","","","","","",""
"","ISI","","html-keyboard-response","568","542141","0.0-1.0-768.0","0","0","55293","","null","","","null","85","NaN","","","","","","","","","","","","","","",""
"","S2","","html-keyboard-response","569","542394","0.0-1.0-769.0","0","0","55293","","null","","","null","85","","NaN","","","","","","","","","","","","","",""
"","response","","html-keyboard-response","570","542869","0.0-1.0-770.0-0.0","0","0","55293","","473","","","68","85","","","2","85","training","adjacent","DC","4","3","Q.jpg","N.jpg","0","0","1","",""
"","feedback","","html-keyboard-response","571","543871","0.0-1.0-771.0-0.0","0","0","55293","","null","","","null","85","","","","","","","","","","","","","","","",""
"","ITI","","html-keyboard-response","572","544875","0.0-1.0-774.0","0","0","55293","","null","","","null","85","","","","","","","","","","","","","","","NaN",""
"","S1","","html-keyboard-response","573","545126","0.0-1.0-776.0","0","0","55293","","null","","","null","86","","","","","","","","","","","","","","","",""
"","ISI","","html-keyboard-response","574","546129","0.0-1.0-777.0","0","0","55293","","null","","","null","86","NaN","","","","","","","","","","","","","","",""
"","S2","","html-keyboard-response","575","546382","0.0-1.0-778.0","0","0","55293","","null","","","null","86","","NaN","","","","","","","","","","","","","",""
"","response","","html-keyboard-response","576","547076","0.0-1.0-779.0-0.0","0","0","55293","","692","","","75","86","","","2","86","training","adjacent","FG","6","7","R.jpg","L.jpg","1","1","1","",""
"","feedback","","html-keyboard-response","577","548079","0.0-1.0-780.0-0.0","0","0","55293","","null","","","null","86","","","","","","","","","","","","","","","",""
"","ITI","","html-keyboard-response","578","549081","0.0-1.0-783.0","0","0","55293","","null","","","null","86","","","","","","","","","","","","","","","NaN",""
"","S1","","html-keyboard-response","579","549333","0.0-1.0-785.0","0","0","55293","","null","","","null","87","","","","","","","","","","","","","","","",""
"","ISI","","html-keyboard-response","580","550337","0.0-1.0-786.0","0","0","55293","","null","","","null","87","NaN","","","","","","","","","","","","","","",""
