"success","ttype","start_time","trial_type","trial_index","time_elapsed","internal_node_id","warning","missed_checkup","PID","view_history","rt","responses","repeat_instructions","key_press","index","keypress_isi","keypress_S2","block","trial_num","phase","group_type","pair_type","S1_stim","S2_stim","S1_img","S2_img","S1_chosen","S1_higher","accuracy","keypress_iti","total_bonus_tally"
"true","full_screen","d03072023hr1930","fullscreen","0","145135","0.0-0.0","0","0","54334","","","","","","","","","","","","","","","","","","","","","",""
"","instructions","","instructions","1","193182","0.0-1.0-0.0-0.0","0","0","54334","[{""page_index"":0,""viewing_time"":5663},{""page_index"":1,""viewing_time"":22372},{""page_index"":2,""viewing_time"":18368},{""page_index"":3,""viewing_time"":1635}]","48038","","","","","","","","","","","","","","","","","","","",""
"","comprehension_check","","survey-multi-choice","2","226594","0.0-1.0-0.0-1.0","0","0","54334","","33389","{""Q0"":""True"",""Q1"":""D"",""Q2"":""Once the second image appears and while the screen 'MAKE A CHOICE' is shown"",""Q3"":""Green mark"",""Q4"":""either D or K""}","0","","","","","","","","","","","","","","","","","",""
"","start_exp","","html-keyboard-response","3","229406","0.0-1.0-1.0","0","0","54334","","2800","","","32","","","","","","","","","","","","","","","","",""
"","S1","","html-keyboard-response","4","229693","0.0-1.0-2.0","0","0","54334","","null","","","null","0","","","","","","","","","","","","","","","",""
"","ISI","","html-keyboard-response","5","230711","0.0-1.0-3.0","0","0","54334","","null","","","null","0","NaN","","","","","","","","","","","","","","",""
"","S2","","html-keyboard-response","6","230970","0.0-1.0-4.0","0","0","54334","","null","","","null","0","","NaN","","","","","","","","","","","","","",""
"","response","","html-keyboard-response","7","231823","0.0-1.0-5.0-0.0","0","0","54334","","848","","","75","0","","","1","0","training","adjacent","AB","1","2","R.jpg","Q.jpg","0","1","0","",""
"","feedback","","html-keyboard-response","8","232841","0.0-1.0-6.0-0.0","0","0","54334","","null","","","null","0","","","","","","","","","","","","","","","",""
"","time_out","","html-keyboard-response","9","234866","0.0-1.0-8.0-0.0","0","0","54334","","null","","","null","0","","","","","","","","","","","","","","","",""
"","ITI","","html-keyboard-response","10","235885","0.0-1.0-9.0","0","0","54334","","null","","","null","0","","","","","","","","","","","","","","","NaN",""
"","S1","","html-keyboard-response","11","236152","0.0-1.0-11.0","0","0","54334","","null","","","null","1","","","","","","","","","","","","","","","",""
"","ISI","","html-keyboard-response","12","237174","0.0-1.0-12.0","0","0","54334","","null","","","null","1","NaN","","","","","","","","","","","","","","",""
"","S2","","html-keyboard-response","13","237456","0.0-1.0-13.0","0","0","54334","","null","","","null","1","","NaN","","","","","","","","","","","","","",""
"","response","","html-keyboard-response","14","238052","0.0-1.0-14.0-0.0","0","0","54334","","591","","","68","1","","","1","1","training","adjacent","GF","7","6","P.jpg","L.jpg","1","0","0","",""
"","feedback","","html-keyboard-response","15","239070","0.0-1.0-15.0-0.0","0","0","54334","","null","","","null","1","","","","","","","","","","","","","","","",""
"","time_out","","html-keyboard-response","16","241091","0.0-1.0-17.0-0.0","0","0","54334","","null","","","null","1","","","","","","","","","","","","","","","",""
"","ITI","","html-keyboard-response","17","242112","0.0-1.0-18.0","0","0","54334","","null","","","null","1","","","","","","","","","","","","","","","NaN",""
"","S1","","html-keyboard-response","18","242378","0.0-1.0-20.0","0","0","54334","","null","","","null","2","","","","","","","","","","","","","","","",""
"","ISI","","html-keyboard-response","19","243384","0.0-1.0-21.0","0","0","54334","","null","","","null","2","NaN","","","","","","","","","","","","","","",""
"","S2","","html-keyboard-response","20","243655","0.0-1.0-22.0","0","0","54334","","null","","","null","2","","NaN","","","","","","","","","","","","","",""
"","response","","html-keyboard-response","21","244472","0.0-1.0-23.0-0.0","0","0","54334","","807","","","68","2","","","1","2","training","adjacent","FE","6","5","L.jpg","O.jpg","1","0","0","",""
"","feedback","","html-keyboard-response","22","245489","0.0-1.0-24.0-0.0","0","0","54334","","null","","","null","2","","","","","","","","","","","","","","","",""
"","time_out","","html-keyboard-response","23","247503","0.0-1.0-26.0-0.0","0","0","54334","","null","","","null","2","","","","","","","","","","","","","","","",""
"","ITI","","html-keyboard-response","24","248515","0.0-1.0-27.0","0","0","54334","","null","","","null","2","","","","","","","","","","","","","","","NaN",""
"","S1","","html-keyboard-response","25","248798","0.0-1.0-29.0","0","0","54334","","null","","","null","3","","","","","","","","","","","","","","","",""
"","ISI","","html-keyboard-response","26","249814","0.0-1.0-30.0","0","0","54334","","null","","","null","3","NaN","","","","","","","","","","","","","","",""
"","S2","","html-keyboard-response","27","250088","0.0-1.0-31.0","0","0","54334","","null","","","null","3","","NaN","","","","","","","","","","","","","",""
"","response","","html-keyboard-response","28","250749","0.0-1.0-32.0-0.0","0","0","54334","","652","","","75","3","","","1","3","training","adjacent","BA","2","1","Q.jpg","R.jpg","0","0","1","",""
"","feedback","","html-keyboard-response","29","251757","0.0-1.0-33.0-0.0","0","0","54334","","null","","","null","3","","","","","","","","","","","","","","","",""
"","ITI","","html-keyboard-response","30","252765","0.0-1.0-36.0","0","0","54334","","null","","","null","3","","","","","","","","","","","","","","","NaN",""
"","S1","","html-keyboard-response","31","253043","0.0-1.0-38.0","0","0","54334","","null","","","null","4","","","","","","","","","","","","","","","",""
"","ISI","","html-keyboard-response","32","254054","0.0-1.0-39.0","0","0","54334","","null","","","null","4","NaN","","","","","","","","","","","","","","",""
"","S2","","html-keyboard-response","33","254332","0.0-1.0-40.0","0","0","54334","","null","","","null","4","","NaN","","","","","","","","","","","","","",""
"","response","","html-keyboard-response","34","254978","0.0-1.0-41.0-0.0","0","0","54334","","640","","","75","4","","","1","4","training","adjacent","EF","5","6","O.jpg","L.jpg","0","1","0","",""
"","feedback","","html-keyboard-response","35","255999","0.0-1.0-42.0-0.0","0","0","54334","","null","","","null","4","","","","","","","","","","","","","","","",""
"","time_out","","html-keyboard-response","36","258014","0.0-1.0-44.0-0.0","0","0","54334","","null","","","null","4","","","","","","","","","","","","","","","",""
"","ITI","","html-keyboard-response","37","259023","0.0-1.0-45.0","0","0","54334","","null","","","null","4","","","","","","","","","","","","","","","NaN",""
"","S1","","html-keyboard-response","38","259290","0.0-1.0-47.0","0","0","54334","","null","","","null","5","","","","","","","","","","","","","","","",""
"","ISI","","html-keyboard-response","39","260300","0.0-1.0-48.0","0","0","54334","","null","","","null","5","NaN","","","","","","","","","","","","","","",""
"","S2","","html-keyboard-response","40","260568","0.0-1.0-49.0","0","0","54334","","null","","","null","5","","NaN","","","","","","","","","","","","","",""
"","response","","html-keyboard-response","41","261152","0.0-1.0-50.0-0.0","0","0","54334","","580","","","68","5","","","1","5","training","adjacent","ED","5","4","O.jpg","N.jpg","1","0","0","",""
"","feedback","","html-keyboard-response","42","262171","0.0-1.0-51.0-0.0","0","0","54334","","null","","","null","5","","","","","","","","","","","","","","","",""
"","time_out","","html-keyboard-response","43","264186","0.0-1.0-53.0-0.0","0","0","54334","","null","","","null","5","","","","","","","","","","","","","","","",""
"","ITI","","html-keyboard-response","44","265201","0.0-1.0-54.0","0","0","54334","","null","","","null","5","","","","","","","","","","","","","","","NaN",""
"","S1","","html-keyboard-response","45","265467","0.0-1.0-56.0","0","0","54334","","null","","","null","6","","","","","","","","","","","","","","","",""
"","ISI","","html-keyboard-response","46","266485","0.0-1.0-57.0","0","0","54334","","null","","","null","6","NaN","","","","","","","","","","","","","","",""
"","S2","","html-keyboard-response","47","266754","0.0-1.0-58.0","0","0","54334","","null","","","null","6","","NaN","","","","","","","","","","","","","",""
"","response","","html-keyboard-response","48","267795","0.0-1.0-59.0-0.0","0","0","54334","","1035","","","75","6","","","1","6","training","adjacent","BC","2","3","Q.jpg","M.jpg","0","1","0","",""
"","feedback","","html-keyboard-response","49","268824","0.0-1.0-60.0-0.0","0","0","54334","","null","","","null","6","","","","","","","","","","","","","","","",""
"","time_out","","html-keyboard-response","50","270834","0.0-1.0-62.0-0.0","0","0","54334","","null","","","null","6","","","","","","","","","","","","","","","",""
"","ITI","","html-keyboard-response","51","271855","0.0-1.0-63.0","0","0","54334","","null","","","null","6","","","","","","","","","","","","","","","NaN",""
"","S1","","html-keyboard-response","52","272125","0.0-1.0-65.0","0","0","54334","","null","","","null","7","","","","","","","","","","","","","","","",""
"","ISI","","html-keyboard-response","53","273150","0.0-1.0-66.0","0","0","54334","","null","","","null","7","NaN","","","","","","","","","","","","","","",""
"","S2","","html-keyboard-response","54","273411","0.0-1.0-67.0","0","0","54334","","null","","","null","7","","NaN","","","","","","","","","","","","","",""
"","response","","html-keyboard-response","55","274116","0.0-1.0-68.0-0.0","0","0","54334","","700","","","68","7","","","1","7","training","adjacent","CD","3","4","M.jpg","N.jpg","1","1","1","",""
"","feedback","","html-keyboard-response","56","275125","0.0-1.0-69.0-0.0","0","0","54334","","null","","","null","7","","","","","","","","","","","","","","","",""
"","ITI","","html-keyboard-response","57","276145","0.0-1.0-72.0","0","0","54334","","null","","","null","7","","","","","","","","","","","","","","","NaN",""
"","S1","","html-keyboard-response","58","276413","0.0-1.0-74.0","0","0","54334","","null","","","null","8","","","","","","","","","","","","","","","",""
"","ISI","","html-keyboard-response","59","277419","0.0-1.0-75.0","0","0","54334","","null","","","null","8","NaN","","","","","","","","","","","","","","",""
"","S2","","html-keyboard-response","60","277689","0.0-1.0-76.0","0","0","54334","","null","","","null","8","","NaN","","","","","","","","","","","","","",""
"","response","","html-keyboard-response","61","278165","0.0-1.0-77.0-0.0","0","0","54334","","473","","","68","8","","","1","8","training","adjacent","FE","6","5","L.jpg","O.jpg","1","0","0","",""
"","feedback","","html-keyboard-response","62","279182","0.0-1.0-78.0-0.0","0","0","54334","","null","","","null","8","","","","","","","","","","","","","","","",""
"","time_out","","html-keyboard-response","63","281188","0.0-1.0-80.0-0.0","0","0","54334","","null","","","null","8","","","","","","","","","","","","","","","",""
"","ITI","","html-keyboard-response","64","282194","0.0-1.0-81.0","0","0","54334","","null","","","null","8","","","","","","","","","","","","","","","NaN",""
"","S1","","html-keyboard-response","65","282462","0.0-1.0-83.0","0","0","54334","","null","","","null","9","","","","","","","","","","","","","","","",""
"","ISI","","html-keyboard-response","66","283471","0.0-1.0-84.0","0","0","54334","","null","","","null","9","NaN","","","","","","","","","","","","","","",""
"","S2","","html-keyboard-response","67","283746","0.0-1.0-85.0","0","0","54334","","null","","","null","9","","NaN","","","","","","","","","","","","","",""
"","response","","html-keyboard-response","68","284491","0.0-1.0-86.0-0.0","0","0","54334","","735","","","75","9","","","1","9","training","adjacent","DE","4","5","N.jpg","O.jpg","0","1","0","",""
"","feedback","","html-keyboard-response","69","285519","0.0-1.0-87.0-0.0","0","0","54334","","null","","","null","9","","","","","","","","","","","","","","","",""
"","time_out","","html-keyboard-response","70","287542","0.0-1.0-89.0-0.0","0","0","54334","","null","","","null","9","","","","","","","","","","","","","","","",""
"","ITI","","html-keyboard-response","71","288560","0.0-1.0-90.0","0","0","54334","","null","","","null","9","","","","","","","","","","","","","","","NaN",""
"","S1","","html-keyboard-response","72","288823","0.0-1.0-92.0","0","0","54334","","null","","","null","10","","","","","","","","","","","","","","","",""
"","ISI","","html-keyboard-response","73","289828","0.0-1.0-93.0","0","0","54334","","null","","","null","10","NaN","","","","","","","","","","","","","","",""
"","S2","","html-keyboard-response","74","290096","0.0-1.0-94.0","0","0","54334","","null","","","null","10","","NaN","","","","","","","","","","","","","",""
"","response","","html-keyboard-response","75","290841","0.0-1.0-95.0-0.0","0","0","54334","","735","","","68","10","","","1","10","training","adjacent","AB","1","2","R.jpg","Q.jpg","1","1","1","",""
"","feedback","","html-keyboard-response","76","291858","0.0-1.0-96.0-0.0","0","0","54334","","null","","","null","10","","","","","","","","","","","","","","","",""
"","ITI","","html-keyboard-response","77","292886","0.0-1.0-99.0","0","0","54334","","null","","","null","10","","","","","","","","","","","","","","","NaN",""
"","S1","","html-keyboard-response","78","293153","0.0-1.0-101.0","0","0","54334","","null","","","null","11","","","","","","","","","","","","","","","",""
"","ISI","","html-keyboard-response","79","294172","0.0-1.0-102.0","0","0","54334","","null","","","null","11","NaN","","","","","","","","","","","","","","",""
"","S2","","html-keyboard-response","80","294226","0.0-1.0-103.0","0","0","54334","","48","","","68","11","","d","1","11","training","adjacent","BC","2","3","Q.jpg","M.jpg","1","1","1","",""
"","feedback","","html-keyboard-response","81","295246","0.0-1.0-105.0-0.0","0","0","54334","","null","","","null","11","","","","","","","","","","","","","","","",""
"","ITI","","html-keyboard-response","82","296255","0.0-1.0-108.0","0","0","54334","","null","","","null","11","","","","","","","","","","","","","","","NaN",""
"","S1","","html-keyboard-response","83","296524","0.0-1.0-110.0","0","0","54334","","null","","","null","12","","","","","","","","","","","","","","","",""
"","ISI","","html-keyboard-response","84","297547","0.0-1.0-111.0","0","0","54334","","null","","","null","12","NaN","","","","","","","","","","","","","","",""
"","S2","","html-keyboard-response","85","297813","0.0-1.0-112.0","0","0","54334","","null","","","null","12","","NaN","","","","","","","","","","","","","",""
"","response","","html-keyboard-response","86","298207","0.0-1.0-113.0-0.0","0","0","54334","","389","","","68","12","","","1","12","training","adjacent","FE","6","5","L.jpg","O.jpg","1","0","0","",""
"","feedback","","html-keyboard-response","87","299238","0.0-1.0-114.0-0.0","0","0","54334","","null","","","null","12","","","","","","","","","","","","","","","",""
"","time_out","","html-keyboard-response","88","301256","0.0-1.0-116.0-0.0","0","0","54334","","null","","","null","12","","","","","","","","","","","","","","","",""
"","ITI","","html-keyboard-response","89","302267","0.0-1.0-117.0","0","0","54334","","null","","","null","12","","","","","","","","","","","","","","","NaN",""
"","S1","","html-keyboard-response","90","302532","0.0-1.0-119.0","0","0","54334","","null","","","null","13","","","","","","","","","","","","","","","",""
"","ISI","","html-keyboard-response","91","303548","0.0-1.0-120.0","0","0","54334","","null","","","null","13","NaN","","","","","","","","","","","","","","",""
"","S2","","html-keyboard-response","92","303815","0.0-1.0-121.0","0","0","54334","","null","","","null","13","","NaN","","","","","","","","","","","","","",""
"","response","","html-keyboard-response","93","304366","0.0-1.0-122.0-0.0","0","0","54334","","546","","","75","13","","","1","13","training","adjacent","ED","5","4","O.jpg","N.jpg","0","0","1","",""
"","feedback","","html-keyboard-response","94","305381","0.0-1.0-123.0-0.0","0","0","54334","","null","","","null","13","","","","","","","","","","","","","","","",""
"","ITI","","html-keyboard-response","95","306390","0.0-1.0-126.0","0","0","54334","","null","","","null","13","","","","","","","","","","","","","","","NaN",""
"","S1","","html-keyboard-response","96","306659","0.0-1.0-128.0","0","0","54334","","null","","","null","14","","","","","","","","","","","","","","","",""
"","ISI","","html-keyboard-response","97","307681","0.0-1.0-129.0","0","0","54334","","null","","","null","14","NaN","","","","","","","","","","","","","","",""
"","S2","","html-keyboard-response","98","307947","0.0-1.0-130.0","0","0","54334","","null","","","null","14","","NaN","","","","","","","","","","","","","",""
"","response","","html-keyboard-response","99","308418","0.0-1.0-131.0-0.0","0","0","54334","","465","","","68","14","","","1","14","training","adjacent","FG","6","7","L.jpg","P.jpg","1","1","1","",""
"","feedback","","html-keyboard-response","100","309465","0.0-1.0-132.0-0.0","0","0","54334","","null","","","null","14","","","","","","","","","","","","","","","",""
"","ITI","","html-keyboard-response","101","310482","0.0-1.0-135.0","0","0","54334","","null","","","null","14","","","","","","","","","","","","","","","NaN",""
"","S1","","html-keyboard-response","102","310755","0.0-1.0-137.0","0","0","54334","","null","","","null","15","","","","","","","","","","","","","","","",""
"","ISI","","html-keyboard-response","103","311783","0.0-1.0-138.0","0","0","54334","","null","","","null","15","NaN","","","","","","","","","","","","","","",""
"","S2","","html-keyboard-response","104","312045","0.0-1.0-139.0","0","0","54334","","null","","","null","15","","NaN","","","","","","","","","","","","","",""
"","response","","html-keyboard-response","105","312519","0.0-1.0-140.0-0.0","0","0","54334","","468","","","68","15","","","1","15","training","adjacent","FE","6","5","L.jpg","O.jpg","1","0","0","",""
"","feedback","","html-keyboard-response","106","313529","0.0-1.0-141.0-0.0","0","0","54334","","null","","","null","15","","","","","","","","","","","","","","","",""
"","time_out","","html-keyboard-response","107","315543","0.0-1.0-143.0-0.0","0","0","54334","","null","","","null","15","","","","","","","","","","","","","","","",""
"","ITI","","html-keyboard-response","108","316551","0.0-1.0-144.0","0","0","54334","","null","","","null","15","","","","","","","","","","","","","","","NaN",""
"","S1","","html-keyboard-response","109","316825","0.0-1.0-146.0","0","0","54334","","null","","","null","16","","","","","","","","","","","","","","","",""
"","ISI","","html-keyboard-response","110","317839","0.0-1.0-147.0","0","0","54334","","null","","","null","16","NaN","","","","","","","","","","","","","","",""
"","S2","","html-keyboard-response","111","318102","0.0-1.0-148.0","0","0","54334","","null","","","null","16","","NaN","","","","","","","","","","","","","",""
"","response","","html-keyboard-response","112","318536","0.0-1.0-149.0-0.0","0","0","54334","","427","","","75","16","","","1","16","training","adjacent","ED","5","4","O.jpg","N.jpg","0","0","1","",""
"","feedback","","html-keyboard-response","113","319565","0.0-1.0-150.0-0.0","0","0","54334","","null","","","null","16","","","","","","","","","","","","","","","",""
"","ITI","","html-keyboard-response","114","320581","0.0-1.0-153.0","0","0","54334","","null","","","null","16","","","","","","","","","","","","","","","NaN",""
"","S1","","html-keyboard-response","115","320841","0.0-1.0-155.0","0","0","54334","","null","","","null","17","","","","","","","","","","","","","","","",""
"","ISI","","html-keyboard-response","116","321852","0.0-1.0-156.0","0","0","54334","","null","","","null","17","NaN","","","","","","","","","","","","","","",""
"","S2","","html-keyboard-response","117","322118","0.0-1.0-157.0","0","0","54334","","null","","","null","17","","NaN","","","","","","","","","","","","","",""
"","response","","html-keyboard-response","118","322479","0.0-1.0-158.0-0.0","0","0","54334","","356","","","68","17","","","1","17","training","adjacent","BA","2","1","Q.jpg","R.jpg","1","0","0","",""
"","feedback","","html-keyboard-response","119","323500","0.0-1.0-159.0-0.0","0","0","54334","","null","","","null","17","","","","","","","","","","","","","","","",""
"","time_out","","html-keyboard-response","120","325513","0.0-1.0-161.0-0.0","0","0","54334","","null","","","null","17","","","","","","","","","","","","","","","",""
"","ITI","","html-keyboard-response","121","326523","0.0-1.0-162.0","0","0","54334","","null","","","null","17","","","","","","","","","","","","","","","NaN",""
"","S1","","html-keyboard-response","122","326785","0.0-1.0-164.0","0","0","54334","","null","","","null","18","","","","","","","","","","","","","","","",""
"","ISI","","html-keyboard-response","123","327793","0.0-1.0-165.0","0","0","54334","","null","","","null","18","NaN","","","","","","","","","","","","","","",""
"","S2","","html-keyboard-response","124","328062","0.0-1.0-166.0","0","0","54334","","null","","","null","18","","NaN","","","","","","","","","","","","","",""
"","response","","html-keyboard-response","125","328388","0.0-1.0-167.0-0.0","0","0","54334","","319","","","68","18","","","1","18","training","adjacent","FG","6","7","L.jpg","P.jpg","1","1","1","",""
"","feedback","","html-keyboard-response","126","329397","0.0-1.0-168.0-0.0","0","0","54334","","null","","","null","18","","","","","","","","","","","","","","","",""
"","ITI","","html-keyboard-response","127","330419","0.0-1.0-171.0","0","0","54334","","null","","","null","18","","","","","","","","","","","","","","","NaN",""
"","S1","","html-keyboard-response","128","330693","0.0-1.0-173.0","0","0","54334","","null","","","null","19","","","","","","","","","","","","","","","",""
"","ISI","","html-keyboard-response","129","331714","0.0-1.0-174.0","0","0","54334","","null","","","null","19","NaN","","","","","","","","","","","","","","",""
"","S2","","html-keyboard-response","130","331977","0.0-1.0-175.0","0","0","54334","","null","","","null","19","","NaN","","","","","","","","","","","","","",""
"","response","","html-keyboard-response","131","332420","0.0-1.0-176.0-0.0","0","0","54334","","437","","","68","19","","","1","19","training","adjacent","CD","3","4","M.jpg","N.jpg","1","1","1","",""
"","feedback","","html-keyboard-response","132","333435","0.0-1.0-177.0-0.0","0","0","54334","","null","","","null","19","","","","","","","","","","","","","","","",""
"","ITI","","html-keyboard-response","133","334459","0.0-1.0-180.0","0","0","54334","","null","","","null","19","","","","","","","","","","","","","","","NaN",""
"","S1","","html-keyboard-response","134","334728","0.0-1.0-182.0","0","0","54334","","null","","","null","20","","","","","","","","","","","","","","","",""
"","ISI","","html-keyboard-response","135","335736","0.0-1.0-183.0","0","0","54334","","null","","","null","20","NaN","","","","","","","","","","","","","","",""
"","S2","","html-keyboard-response","136","336005","0.0-1.0-184.0","0","0","54334","","null","","","null","20","","NaN","","","","","","","","","","","","","",""
"","response","","html-keyboard-response","137","336303","0.0-1.0-185.0-0.0","0","0","54334","","291","","","75","20","","","1","20","training","adjacent","BC","2","3","Q.jpg","M.jpg","0","1","0","",""
"","feedback","","html-keyboard-response","138","337311","0.0-1.0-186.0-0.0","0","0","54334","","null","","","null","20","","","","","","","","","","","","","","","",""
"","time_out","","html-keyboard-response","139","339325","0.0-1.0-188.0-0.0","0","0","54334","","null","","","null","20","","","","","","","","","","","","","","","",""
"","ITI","","html-keyboard-response","140","340344","0.0-1.0-189.0","0","0","54334","","null","","","null","20","","","","","","","","","","","","","","","NaN",""
"","S1","","html-keyboard-response","141","340620","0.0-1.0-191.0","0","0","54334","","null","","","null","21","","","","","","","","","","","","","","","",""
"","ISI","","html-keyboard-response","142","341635","0.0-1.0-192.0","0","0","54334","","null","","","null","21","NaN","","","","","","","","","","","","","","",""
"","S2","","html-keyboard-response","143","341905","0.0-1.0-193.0","0","0","54334","","null","","","null","21","","NaN","","","","","","","","","","","","","",""
"","response","","html-keyboard-response","144","342309","0.0-1.0-194.0-0.0","0","0","54334","","400","","","75","21","","","1","21","training","adjacent","GF","7","6","P.jpg","L.jpg","0","0","1","",""
"","feedback","","html-keyboard-response","145","343325","0.0-1.0-195.0-0.0","0","0","54334","","null","","","null","21","","","","","","","","","","","","","","","",""
"","ITI","","html-keyboard-response","146","344344","0.0-1.0-198.0","0","0","54334","","null","","","null","21","","","","","","","","","","","","","","","NaN",""
"","S1","","html-keyboard-response","147","344619","0.0-1.0-200.0","0","0","54334","","null","","","null","22","","","","","","","","","","","","","","","",""
"","ISI","","html-keyboard-response","148","345638","0.0-1.0-201.0","0","0","54334","","null","","","null","22","NaN","","","","","","","","","","","","","","",""
"","S2","","html-keyboard-response","149","345910","0.0-1.0-202.0","0","0","54334","","null","","","null","22","","NaN","","","","","","","","","","","","","",""
"","response","","html-keyboard-response","150","346429","0.0-1.0-203.0-0.0","0","0","54334","","512","","","68","22","","","1","22","training","adjacent","FG","6","7","L.jpg","P.jpg","1","1","1","",""
"","feedback","","html-keyboard-response","151","347473","0.0-1.0-204.0-0.0","0","0","54334","","null","","","null","22","","","","","","","","","","","","","","","",""
"","ITI","","html-keyboard-response","152","348486","0.0-1.0-207.0","0","0","54334","","null","","","null","22","","","","","","","","","","","","","","","NaN",""
"","S1","","html-keyboard-response","153","348757","0.0-1.0-209.0","0","0","54334","","null","","","null","23","","","","","","","","","","","","","","","",""
"","ISI","","html-keyboard-response","154","349782","0.0-1.0-210.0","0","0","54334","","null","","","null","23","NaN","","","","","","","","","","","","","","",""
"","S2","","html-keyboard-response","155","350043","0.0-1.0-211.0","0","0","54334","","null","","","null","23","","NaN","","","","","","","","","","","","","",""
"","response","","html-keyboard-response","156","350418","0.0-1.0-212.0-0.0","0","0","54334","","370","","","68","23","","","1","23","training","adjacent","CB","3","2","M.jpg","Q.jpg","1","0","0","",""
"","feedback","","html-keyboard-response","157","351436","0.0-1.0-213.0-0.0","0","0","54334","","null","","","null","23","","","","","","","","","","","","","","","",""
"","time_out","","html-keyboard-response","158","353454","0.0-1.0-215.0-0.0","0","0","54334","","null","","","null","23","","","","","","","","","","","","","","","",""
"","ITI","","html-keyboard-response","159","354479","0.0-1.0-216.0","0","0","54334","","null","","","null","23","","","","","","","","","","","","","","","NaN",""
"","S1","","html-keyboard-response","160","354744","0.0-1.0-218.0","0","0","54334","","null","","","null","24","","","","","","","","","","","","","","","",""
"","ISI","","html-keyboard-response","161","355763","0.0-1.0-219.0","0","0","54334","","null","","","null","24","NaN","","","","","","","","","","","","","","",""
"","S2","","html-keyboard-response","162","356047","0.0-1.0-220.0","0","0","54334","","null","","","null","24","","NaN","","","","","","","","","","","","","",""
"","response","","html-keyboard-response","163","356550","0.0-1.0-221.0-0.0","0","0","54334","","498","","","75","24","","","1","24","training","adjacent","CD","3","4","M.jpg","N.jpg","0","1","0","",""
"","feedback","","html-keyboard-response","164","357574","0.0-1.0-222.0-0.0","0","0","54334","","null","","","null","24","","","","","","","","","","","","","","","",""
"","time_out","","html-keyboard-response","165","359594","0.0-1.0-224.0-0.0","0","0","54334","","null","","","null","24","","","","","","","","","","","","","","","",""
"","ITI","","html-keyboard-response","166","360612","0.0-1.0-225.0","0","0","54334","","null","","","null","24","","","","","","","","","","","","","","","NaN",""
"","S1","","html-keyboard-response","167","360902","0.0-1.0-227.0","0","0","54334","","null","","","null","25","","","","","","","","","","","","","","","",""
"","ISI","","html-keyboard-response","168","361915","0.0-1.0-228.0","0","0","54334","","null","","","null","25","NaN","","","","","","","","","","","","","","",""
"","S2","","html-keyboard-response","169","362188","0.0-1.0-229.0","0","0","54334","","null","","","null","25","","NaN","","","","","","","","","","","","","",""
"","response","","html-keyboard-response","170","362676","0.0-1.0-230.0-0.0","0","0","54334","","480","","","68","25","","","1","25","training","adjacent","DE","4","5","N.jpg","O.jpg","1","1","1","",""
"","feedback","","html-keyboard-response","171","363693","0.0-1.0-231.0-0.0","0","0","54334","","null","","","null","25","","","","","","","","","","","","","","","",""
"","ITI","","html-keyboard-response","172","364707","0.0-1.0-234.0","0","0","54334","","null","","","null","25","","","","","","","","","","","","","","","NaN",""
"","S1","","html-keyboard-response","173","364973","0.0-1.0-236.0","0","0","54334","","null","","","null","26","","","","","","","","","","","","","","","",""
"","ISI","","html-keyboard-response","174","365982","0.0-1.0-237.0","0","0","54334","","null","","","null","26","NaN","","","","","","","","","","","","","","",""
"","S2","","html-keyboard-response","175","366250","0.0-1.0-238.0","0","0","54334","","null","","","null","26","","NaN","","","","","","","","","","","","","",""
"","response","","html-keyboard-response","176","366810","0.0-1.0-239.0-0.0","0","0","54334","","553","","","75","26","","","1","26","training","adjacent","BA","2","1","Q.jpg","R.jpg","0","0","1","",""
"","feedback","","html-keyboard-response","177","367821","0.0-1.0-240.0-0.0","0","0","54334","","null","","","null","26","","","","","","","","","","","","","","","",""
"","ITI","","html-keyboard-response","178","368839","0.0-1.0-243.0","0","0","54334","","null","","","null","26","","","","","","","","","","","","","","","NaN",""
"","S1","","html-keyboard-response","179","369095","0.0-1.0-245.0","0","0","54334","","null","","","null","27","","","","","","","","","","","","","","","",""
"","ISI","","html-keyboard-response","180","370114","0.0-1.0-246.0","0","0","54334","","null","","","null","27","NaN","","","","","","","","","","","","","","",""
"","S2","","html-keyboard-response","181","370424","0.0-1.0-247.0","0","0","54334","","null","","","null","27","","NaN","","","","","","","","","","","","","",""
"","response","","html-keyboard-response","182","370677","0.0-1.0-248.0-0.0","0","0","54334","","248","","","68","27","","","1","27","training","adjacent","CB","3","2","M.jpg","Q.jpg","1","0","0","",""
"","feedback","","html-keyboard-response","183","371691","0.0-1.0-249.0-0.0","0","0","54334","","null","","","null","27","","","","","","","","","","","","","","","",""
"","time_out","","html-keyboard-response","184","373705","0.0-1.0-251.0-0.0","0","0","54334","","null","","","null","27","","","","","","","","","","","","","","","",""
"","ITI","","html-keyboard-response","185","374738","0.0-1.0-252.0","0","0","54334","","null","","","null","27","","","","","","","","","","","","","","","NaN",""
"","S1","","html-keyboard-response","186","374997","0.0-1.0-254.0","0","0","54334","","null","","","null","28","","","","","","","","","","","","","","","",""
"","ISI","","html-keyboard-response","187","376004","0.0-1.0-255.0","0","0","54334","","null","","","null","28","NaN","","","","","","","","","","","","","","",""
"","S2","","html-keyboard-response","188","376272","0.0-1.0-256.0","0","0","54334","","null","","","null","28","","NaN","","","","","","","","","","","","","",""
"","response","","html-keyboard-response","189","376554","0.0-1.0-257.0-0.0","0","0","54334","","273","","","68","28","","","1","28","training","adjacent","CB","3","2","M.jpg","Q.jpg","1","0","0","",""
"","feedback","","html-keyboard-response","190","377567","0.0-1.0-258.0-0.0","0","0","54334","","null","","","null","28","","","","","","","","","","","","","","","",""
"","time_out","","html-keyboard-response","191","379584","0.0-1.0-260.0-0.0","0","0","54334","","null","","","null","28","","","","","","","","","","","","","","","",""
"","ITI","","html-keyboard-response","192","380593","0.0-1.0-261.0","0","0","54334","","null","","","null","28","","","","","","","","","","","","","","","NaN",""
"","S1","","html-keyboard-response","193","380864","0.0-1.0-263.0","0","0","54334","","null","","","null","29","","","","","","","","","","","","","","","",""
"","ISI","","html-keyboard-response","194","381883","0.0-1.0-264.0","0","0","54334","","null","","","null","29","NaN","","","","","","","","","","","","","","",""
"","S2","","html-keyboard-response","195","382155","0.0-1.0-265.0","0","0","54334","","null","","","null","29","","NaN","","","","","","","","","","","","","",""
"","response","","html-keyboard-response","196","382466","0.0-1.0-266.0-0.0","0","0","54334","","306","","","75","29","","","1","29","training","adjacent","DC","4","3","N.jpg","M.jpg","0","0","1","",""
"","feedback","","html-keyboard-response","197","383479","0.0-1.0-267.0-0.0","0","0","54334","","null","","","null","29","","","","","","","","","","","","","","","",""
"","ITI","","html-keyboard-response","198","384487","0.0-1.0-270.0","0","0","54334","","null","","","null","29","","","","","","","","","","","","","","","NaN",""
"","S1","","html-keyboard-response","199","384753","0.0-1.0-272.0","0","0","54334","","null","","","null","30","","","","","","","","","","","","","","","",""
"","ISI","","html-keyboard-response","200","385768","0.0-1.0-273.0","0","0","54334","","null","","","null","30","NaN","","","","","","","","","","","","","","",""
"","S2","","html-keyboard-response","201","386031","0.0-1.0-274.0","0","0","54334","","null","","","null","30","","NaN","","","","","","","","","","","","","",""
"","response","","html-keyboard-response","202","386496","0.0-1.0-275.0-0.0","0","0","54334","","457","","","68","30","","","1","30","training","adjacent","DE","4","5","N.jpg","O.jpg","1","1","1","",""
"","feedback","","html-keyboard-response","203","387519","0.0-1.0-276.0-0.0","0","0","54334","","null","","","null","30","","","","","","","","","","","","","","","",""
"","ITI","","html-keyboard-response","204","388527","0.0-1.0-279.0","0","0","54334","","null","","","null","30","","","","","","","","","","","","","","","NaN",""
"","S1","","html-keyboard-response","205","388802","0.0-1.0-281.0","0","0","54334","","null","","","null","31","","","","","","","","","","","","","","","",""
"","ISI","","html-keyboard-response","206","389824","0.0-1.0-282.0","0","0","54334","","null","","","null","31","NaN","","","","","","","","","","","","","","",""
"","S2","","html-keyboard-response","207","390092","0.0-1.0-283.0","0","0","54334","","null","","","null","31","","NaN","","","","","","","","","","","","","",""
"","response","","html-keyboard-response","208","390545","0.0-1.0-284.0-0.0","0","0","54334","","443","","","68","31","","","1","31","training","adjacent","AB","1","2","R.jpg","Q.jpg","1","1","1","",""
"","feedback","","html-keyboard-response","209","391568","0.0-1.0-285.0-0.0","0","0","54334","","null","","","null","31","","","","","","","","","","","","","","","",""
"","ITI","","html-keyboard-response","210","392573","0.0-1.0-288.0","0","0","54334","","null","","","null","31","","","","","","","","","","","","","","","NaN",""
"","S1","","html-keyboard-response","211","392840","0.0-1.0-290.0","0","0","54334","","null","","","null","32","","","","","","","","","","","","","","","",""
"","ISI","","html-keyboard-response","212","393847","0.0-1.0-291.0","0","0","54334","","null","","","null","32","NaN","","","","","","","","","","","","","","",""
"","S2","","html-keyboard-response","213","394121","0.0-1.0-292.0","0","0","54334","","null","","","null","32","","NaN","","","","","","","","","","","","","",""
"","response","","html-keyboard-response","214","394558","0.0-1.0-293.0-0.0","0","0","54334","","426","","","75","32","","","1","32","training","adjacent","DC","4","3","N.jpg","M.jpg","0","0","1","",""
"","feedback","","html-keyboard-response","215","395578","0.0-1.0-294.0-0.0","0","0","54334","","null","","","null","32","","","","","","","","","","","","","","","",""
"","ITI","","html-keyboard-response","216","396585","0.0-1.0-297.0","0","0","54334","","null","","","null","32","","","","","","","","","","","","","","","NaN",""
"","S1","","html-keyboard-response","217","396857","0.0-1.0-299.0","0","0","54334","","null","","","null","33","","","","","","","","","","","","","","","",""
"","ISI","","html-keyboard-response","218","397883","0.0-1.0-300.0","0","0","54334","","null","","","null","33","NaN","","","","","","","","","","","","","","",""
"","S2","","html-keyboard-response","219","398145","0.0-1.0-301.0","0","0","54334","","null","","","null","33","","NaN","","","","","","","","","","","","","",""
"","response","","html-keyboard-response","220","398694","0.0-1.0-302.0-0.0","0","0","54334","","542","","","68","33","","","1","33","training","adjacent","DE","4","5","N.jpg","O.jpg","1","1","1","",""
"","feedback","","html-keyboard-response","221","399718","0.0-1.0-303.0-0.0","0","0","54334","","null","","","null","33","","","","","","","","","","","","","","","",""
"","ITI","","html-keyboard-response","222","400740","0.0-1.0-306.0","0","0","54334","","null","","","null","33","","","","","","","","","","","","","","","NaN",""
"","S1","","html-keyboard-response","223","401025","0.0-1.0-308.0","0","0","54334","","null","","","null","34","","","","","","","","","","","","","","","",""
"","ISI","","html-keyboard-response","224","402034","0.0-1.0-309.0","0","0","54334","","null","","","null","34","NaN","","","","","","","","","","","","","","",""
"","S2","","html-keyboard-response","225","402299","0.0-1.0-310.0","0","0","54334","","null","","","null","34","","NaN","","","","","","","","","","","","","",""
"","response","","html-keyboard-response","226","402766","0.0-1.0-311.0-0.0","0","0","54334","","462","","","68","34","","","1","34","training","adjacent","CD","3","4","M.jpg","N.jpg","1","1","1","",""
"","feedback","","html-keyboard-response","227","403783","0.0-1.0-312.0-0.0","0","0","54334","","null","","","null","34","","","","","","","","","","","","","","","",""
"","ITI","","html-keyboard-response","228","404813","0.0-1.0-315.0","0","0","54334","","null","","","null","34","","","","","","","","","","","","","","","NaN",""
"","S1","","html-keyboard-response","229","405083","0.0-1.0-317.0","0","0","54334","","null","","","null","35","","","","","","","","","","","","","","","",""
"","ISI","","html-keyboard-response","230","406100","0.0-1.0-318.0","0","0","54334","","null","","","null","35","NaN","","","","","","","","","","","","","","",""
"","S2","","html-keyboard-response","231","406374","0.0-1.0-319.0","0","0","54334","","null","","","null","35","","NaN","","","","","","","","","","","","","",""
"","response","","html-keyboard-response","232","406733","0.0-1.0-320.0-0.0","0","0","54334","","352","","","75","35","","","1","35","training","adjacent","BC","2","3","Q.jpg","M.jpg","0","1","0","",""
"","feedback","","html-keyboard-response","233","407745","0.0-1.0-321.0-0.0","0","0","54334","","null","","","null","35","","","","","","","","","","","","","","","",""
"","time_out","","html-keyboard-response","234","409783","0.0-1.0-323.0-0.0","0","0","54334","","null","","","null","35","","","","","","","","","","","","","","","",""
"","ITI","","html-keyboard-response","235","410793","0.0-1.0-324.0","0","0","54334","","null","","","null","35","","","","","","","","","","","","","","","NaN",""
"","S1","","html-keyboard-response","236","411074","0.0-1.0-326.0","0","0","54334","","null","","","null","36","","","","","","","","","","","","","","","",""
"","ISI","","html-keyboard-response","237","412107","0.0-1.0-327.0","0","0","54334","","null","","","null","36","NaN","","","","","","","","","","","","","","",""
"","S2","","html-keyboard-response","238","412363","0.0-1.0-328.0","0","0","54334","","null","","","null","36","","NaN","","","","","","","","","","","","","",""
"","response","","html-keyboard-response","239","412731","0.0-1.0-329.0-0.0","0","0","54334","","360","","","68","36","","","1","36","training","adjacent","FG","6","7","L.jpg","P.jpg","1","1","1","",""
"","feedback","","html-keyboard-response","240","413747","0.0-1.0-330.0-0.0","0","0","54334","","null","","","null","36","","","","","","","","","","","","","","","",""
"","ITI","","html-keyboard-response","241","414765","0.0-1.0-333.0","0","0","54334","","null","","","null","36","","","","","","","","","","","","","","","NaN",""
"","S1","","html-keyboard-response","242","415030","0.0-1.0-335.0","0","0","54334","","null","","","null","37","","","","","","","","","","","","","","","",""
"","ISI","","html-keyboard-response","243","416035","0.0-1.0-336.0","0","0","54334","","null","","","null","37","NaN","","","","","","","","","","","","","","",""
"","S2","","html-keyboard-response","244","416303","0.0-1.0-337.0","0","0","54334","","null","","","null","37","","NaN","","","","","","","","","","","","","",""
"","response","","html-keyboard-response","245","416628","0.0-1.0-338.0-0.0","0","0","54334","","313","","","68","37","","","1","37","training","adjacent","CB","3","2","M.jpg","Q.jpg","1","0","0","",""
"","feedback","","html-keyboard-response","246","417639","0.0-1.0-339.0-0.0","0","0","54334","","null","","","null","37","","","","","","","","","","","","","","","",""
"","time_out","","html-keyboard-response","247","419656","0.0-1.0-341.0-0.0","0","0","54334","","null","","","null","37","","","","","","","","","","","","","","","",""
"","ITI","","html-keyboard-response","248","420671","0.0-1.0-342.0","0","0","54334","","null","","","null","37","","","","","","","","","","","","","","","NaN",""
"","S1","","html-keyboard-response","249","420931","0.0-1.0-344.0","0","0","54334","","null","","","null","38","","","","","","","","","","","","","","","",""
"","ISI","","html-keyboard-response","250","421940","0.0-1.0-345.0","0","0","54334","","null","","","null","38","NaN","","","","","","","","","","","","","","",""
"","S2","","html-keyboard-response","251","422204","0.0-1.0-346.0","0","0","54334","","null","","","null","38","","NaN","","","","","","","","","","","","","",""
"","response","","html-keyboard-response","252","422602","0.0-1.0-347.0-0.0","0","0","54334","","393","","","75","38","","","1","38","training","adjacent","DC","4","3","N.jpg","M.jpg","0","0","1","",""
"","feedback","","html-keyboard-response","253","423627","0.0-1.0-348.0-0.0","0","0","54334","","null","","","null","38","","","","","","","","","","","","","","","",""
"","ITI","","html-keyboard-response","254","424641","0.0-1.0-351.0","0","0","54334","","null","","","null","38","","","","","","","","","","","","","","","NaN",""
"","S1","","html-keyboard-response","255","424910","0.0-1.0-353.0","0","0","54334","","null","","","null","39","","","","","","","","","","","","","","","",""
"","ISI","","html-keyboard-response","256","425926","0.0-1.0-354.0","0","0","54334","","null","","","null","39","NaN","","","","","","","","","","","","","","",""
"","S2","","html-keyboard-response","257","426194","0.0-1.0-355.0","0","0","54334","","null","","","null","39","","NaN","","","","","","","","","","","","","",""
"","response","","html-keyboard-response","258","426533","0.0-1.0-356.0-0.0","0","0","54334","","335","","","75","39","","","1","39","training","adjacent","BA","2","1","Q.jpg","R.jpg","0","0","1","",""
"","feedback","","html-keyboard-response","259","427553","0.0-1.0-357.0-0.0","0","0","54334","","null","","","null","39","","","","","","","","","","","","","","","",""
"","ITI","","html-keyboard-response","260","428564","0.0-1.0-360.0","0","0","54334","","null","","","null","39","","","","","","","","","","","","","","","NaN",""
"","S1","","html-keyboard-response","261","428825","0.0-1.0-362.0","0","0","54334","","null","","","null","40","","","","","","","","","","","","","","","",""
"","ISI","","html-keyboard-response","262","429833","0.0-1.0-363.0","0","0","54334","","null","","","null","40","NaN","","","","","","","","","","","","","","",""
"","S2","","html-keyboard-response","263","430099","0.0-1.0-364.0","0","0","54334","","null","","","null","40","","NaN","","","","","","","","","","","","","",""
"","response","","html-keyboard-response","264","430409","0.0-1.0-365.0-0.0","0","0","54334","","303","","","75","40","","","1","40","training","adjacent","DC","4","3","N.jpg","M.jpg","0","0","1","",""
"","feedback","","html-keyboard-response","265","431472","0.0-1.0-366.0-0.0","0","0","54334","","null","","","null","40","","","","","","","","","","","","","","","",""
"","ITI","","html-keyboard-response","266","432479","0.0-1.0-369.0","0","0","54334","","null","","","null","40","","","","","","","","","","","","","","","NaN",""
"","S1","","html-keyboard-response","267","432747","0.0-1.0-371.0","0","0","54334","","null","","","null","41","","","","","","","","","","","","","","","",""
"","ISI","","html-keyboard-response","268","433758","0.0-1.0-372.0","0","0","54334","","null","","","null","41","NaN","","","","","","","","","","","","","","",""
"","S2","","html-keyboard-response","269","434022","0.0-1.0-373.0","0","0","54334","","null","","","null","41","","NaN","","","","","","","","","","","","","",""
"","response","","html-keyboard-response","270","434710","0.0-1.0-374.0-0.0","0","0","54334","","680","","","68","41","","","1","41","training","adjacent","ED","5","4","O.jpg","N.jpg","1","0","0","",""
"","feedback","","html-keyboard-response","271","435733","0.0-1.0-375.0-0.0","0","0","54334","","null","","","null","41","","","","","","","","","","","","","","","",""
"","time_out","","html-keyboard-response","272","437741","0.0-1.0-377.0-0.0","0","0","54334","","null","","","null","41","","","","","","","","","","","","","","","",""
"","ITI","","html-keyboard-response","273","438770","0.0-1.0-378.0","0","0","54334","","null","","","null","41","","","","","","","","","","","","","","","NaN",""
"","S1","","html-keyboard-response","274","439031","0.0-1.0-380.0","0","0","54334","","null","","","null","42","","","","","","","","","","","","","","","",""
"","ISI","","html-keyboard-response","275","440041","0.0-1.0-381.0","0","0","54334","","null","","","null","42","NaN","","","","","","","","","","","","","","",""
"","S2","","html-keyboard-response","276","440304","0.0-1.0-382.0","0","0","54334","","null","","","null","42","","NaN","","","","","","","","","","","","","",""
"","response","","html-keyboard-response","277","440735","0.0-1.0-383.0-0.0","0","0","54334","","426","","","75","42","","","1","42","training","adjacent","GF","7","6","P.jpg","L.jpg","0","0","1","",""
"","feedback","","html-keyboard-response","278","441753","0.0-1.0-384.0-0.0","0","0","54334","","null","","","null","42","","","","","","","","","","","","","","","",""
"","ITI","","html-keyboard-response","279","442779","0.0-1.0-387.0","0","0","54334","","null","","","null","42","","","","","","","","","","","","","","","NaN",""
"","S1","","html-keyboard-response","280","443042","0.0-1.0-389.0","0","0","54334","","null","","","null","43","","","","","","","","","","","","","","","",""
"","ISI","","html-keyboard-response","281","444055","0.0-1.0-390.0","0","0","54334","","null","","","null","43","NaN","","","","","","","","","","","","","","",""
"","S2","","html-keyboard-response","282","444316","0.0-1.0-391.0","0","0","54334","","null","","","null","43","","NaN","","","","","","","","","","","","","",""
"","response","","html-keyboard-response","283","444858","0.0-1.0-392.0-0.0","0","0","54334","","537","","","68","43","","","1","43","training","adjacent","AB","1","2","R.jpg","Q.jpg","1","1","1","",""
"","feedback","","html-keyboard-response","284","445869","0.0-1.0-393.0-0.0","0","0","54334","","null","","","null","43","","","","","","","","","","","","","","","",""
"","ITI","","html-keyboard-response","285","446886","0.0-1.0-396.0","0","0","54334","","null","","","null","43","","","","","","","","","","","","","","","NaN",""
"","S1","","html-keyboard-response","286","447154","0.0-1.0-398.0","0","0","54334","","null","","","null","44","","","","","","","","","","","","","","","",""
"","ISI","","html-keyboard-response","287","448159","0.0-1.0-399.0","0","0","54334","","null","","","null","44","NaN","","","","","","","","","","","","","","",""
"","S2","","html-keyboard-response","288","448429","0.0-1.0-400.0","0","0","54334","","null","","","null","44","","NaN","","","","","","","","","","","","","",""
"","response","","html-keyboard-response","289","448651","0.0-1.0-401.0-0.0","0","0","54334","","218","","","75","44","","","1","44","training","adjacent","EF","5","6","O.jpg","L.jpg","0","1","0","",""
"","feedback","","html-keyboard-response","290","449664","0.0-1.0-402.0-0.0","0","0","54334","","null","","","null","44","","","","","","","","","","","","","","","",""
"","time_out","","html-keyboard-response","291","451673","0.0-1.0-404.0-0.0","0","0","54334","","null","","","null","44","","","","","","","","","","","","","","","",""
"","ITI","","html-keyboard-response","292","452684","0.0-1.0-405.0","0","0","54334","","null","","","null","44","","","","","","","","","","","","","","","NaN",""
"","S1","","html-keyboard-response","293","452972","0.0-1.0-407.0","0","0","54334","","null","","","null","45","","","","","","","","","","","","","","","",""
"","ISI","","html-keyboard-response","294","453991","0.0-1.0-408.0","0","0","54334","","null","","","null","45","NaN","","","","","","","","","","","","","","",""
"","S2","","html-keyboard-response","295","454250","0.0-1.0-409.0","0","0","54334","","null","","","null","45","","NaN","","","","","","","","","","","","","",""
"","response","","html-keyboard-response","296","454529","0.0-1.0-410.0-0.0","0","0","54334","","270","","","75","45","","","1","45","training","adjacent","EF","5","6","O.jpg","L.jpg","0","1","0","",""
"","feedback","","html-keyboard-response","297","455548","0.0-1.0-411.0-0.0","0","0","54334","","null","","","null","45","","","","","","","","","","","","","","","",""
"","time_out","","html-keyboard-response","298","457569","0.0-1.0-413.0-0.0","0","0","54334","","null","","","null","45","","","","","","","","","","","","","","","",""
"","ITI","","html-keyboard-response","299","458588","0.0-1.0-414.0","0","0","54334","","null","","","null","45","","","","","","","","","","","","","","","NaN",""
"","S1","","html-keyboard-response","300","458862","0.0-1.0-416.0","0","0","54334","","null","","","null","46","","","","","","","","","","","","","","","",""
"","ISI","","html-keyboard-response","301","459874","0.0-1.0-417.0","0","0","54334","","null","","","null","46","NaN","","","","","","","","","","","","","","",""
"","S2","","html-keyboard-response","302","460136","0.0-1.0-418.0","0","0","54334","","null","","","null","46","","NaN","","","","","","","","","","","","","",""
"","response","","html-keyboard-response","303","460681","0.0-1.0-419.0-0.0","0","0","54334","","540","","","75","46","","","1","46","training","adjacent","GF","7","6","P.jpg","L.jpg","0","0","1","",""
"","feedback","","html-keyboard-response","304","461712","0.0-1.0-420.0-0.0","0","0","54334","","null","","","null","46","","","","","","","","","","","","","","","",""
"","ITI","","html-keyboard-response","305","462727","0.0-1.0-423.0","0","0","54334","","null","","","null","46","","","","","","","","","","","","","","","NaN",""
"","S1","","html-keyboard-response","306","462993","0.0-1.0-425.0","0","0","54334","","null","","","null","47","","","","","","","","","","","","","","","",""
"","ISI","","html-keyboard-response","307","464000","0.0-1.0-426.0","0","0","54334","","null","","","null","47","NaN","","","","","","","","","","","","","","",""
"","S2","","html-keyboard-response","308","464266","0.0-1.0-427.0","0","0","54334","","null","","","null","47","","NaN","","","","","","","","","","","","","",""
"","response","","html-keyboard-response","309","464461","0.0-1.0-428.0-0.0","0","0","54334","","183","","","75","47","","","1","47","training","adjacent","EF","5","6","O.jpg","L.jpg","0","1","0","",""
"","feedback","","html-keyboard-response","310","465477","0.0-1.0-429.0-0.0","0","0","54334","","null","","","null","47","","","","","","","","","","","","","","","",""
"","time_out","","html-keyboard-response","311","467495","0.0-1.0-431.0-0.0","0","0","54334","","null","","","null","47","","","","","","","","","","","","","","","",""
"","ITI","","html-keyboard-response","312","468510","0.0-1.0-432.0","0","0","54334","","null","","","null","47","","","","","","","","","","","","","","","NaN",""
"","block_over","","html-keyboard-response","313","487165","0.0-1.0-433.0-0.0","0","0","54334","","18643","","","32","47","","","","","","","","","","","","","","","",""
"","S1","","html-keyboard-response","314","487428","0.0-1.0-434.0","0","0","54334","","null","","","null","48","","","","","","","","","","","","","","","",""
"","ISI","","html-keyboard-response","315","488452","0.0-1.0-435.0","0","0","54334","","null","","","null","48","NaN","","","","","","","","","","","","","","",""
"","S2","","html-keyboard-response","316","488717","0.0-1.0-436.0","0","0","54334","","null","","","null","48","","NaN","","","","","","","","","","","","","",""
"","response","","html-keyboard-response","317","489094","0.0-1.0-437.0-0.0","0","0","54334","","372","","","75","48","","","2","48","training","adjacent","BC","2","3","Q.jpg","M.jpg","0","1","0","",""
"","feedback","","html-keyboard-response","318","490115","0.0-1.0-438.0-0.0","0","0","54334","","null","","","null","48","","","","","","","","","","","","","","","",""
"","time_out","","html-keyboard-response","319","492137","0.0-1.0-440.0-0.0","0","0","54334","","null","","","null","48","","","","","","","","","","","","","","","",""
"","ITI","","html-keyboard-response","320","493142","0.0-1.0-441.0","0","0","54334","","null","","","null","48","","","","","","","","","","","","","","","NaN",""
"","S1","","html-keyboard-response","321","493411","0.0-1.0-443.0","0","0","54334","","null","","","null","49","","","","","","","","","","","","","","","",""
"","ISI","","html-keyboard-response","322","494443","0.0-1.0-444.0","0","0","54334","","null","","","null","49","NaN","","","","","","","","","","","","","","",""
"","S2","","html-keyboard-response","323","494703","0.0-1.0-445.0","0","0","54334","","null","","","null","49","","NaN","","","","","","","","","","","","","",""
"","response","","html-keyboard-response","324","494994","0.0-1.0-446.0-0.0","0","0","54334","","286","","","75","49","","","2","49","training","adjacent","GF","7","6","P.jpg","L.jpg","0","0","1","",""
"","feedback","","html-keyboard-response","325","496006","0.0-1.0-447.0-0.0","0","0","54334","","null","","","null","49","","","","","","","","","","","","","","","",""
"","ITI","","html-keyboard-response","326","497015","0.0-1.0-450.0","0","0","54334","","null","","","null","49","","","","","","","","","","","","","","","NaN",""
"","S1","","html-keyboard-response","327","497286","0.0-1.0-452.0","0","0","54334","","null","","","null","50","","","","","","","","","","","","","","","",""
"","ISI","","html-keyboard-response","328","498306","0.0-1.0-453.0","0","0","54334","","null","","","null","50","NaN","","","","","","","","","","","","","","",""
"","S2","","html-keyboard-response","329","498587","0.0-1.0-454.0","0","0","54334","","null","","","null","50","","NaN","","","","","","","","","","","","","",""
"","response","","html-keyboard-response","330","499175","0.0-1.0-455.0-0.0","0","0","54334","","578","","","68","50","","","2","50","training","adjacent","DE","4","5","N.jpg","O.jpg","1","1","1","",""
"","feedback","","html-keyboard-response","331","500195","0.0-1.0-456.0-0.0","0","0","54334","","null","","","null","50","","","","","","","","","","","","","","","",""
"","ITI","","html-keyboard-response","332","501234","0.0-1.0-459.0","0","0","54334","","null","","","null","50","","","","","","","","","","","","","","","NaN",""
"","S1","","html-keyboard-response","333","501507","0.0-1.0-461.0","0","0","54334","","null","","","null","51","","","","","","","","","","","","","","","",""
"","ISI","","html-keyboard-response","334","502528","0.0-1.0-462.0","0","0","54334","","null","","","null","51","NaN","","","","","","","","","","","","","","",""
"","S2","","html-keyboard-response","335","502800","0.0-1.0-463.0","0","0","54334","","null","","","null","51","","NaN","","","","","","","","","","","","","",""
"","response","","html-keyboard-response","336","503277","0.0-1.0-464.0-0.0","0","0","54334","","469","","","68","51","","","2","51","training","adjacent","DE","4","5","N.jpg","O.jpg","1","1","1","",""
"","feedback","","html-keyboard-response","337","504293","0.0-1.0-465.0-0.0","0","0","54334","","null","","","null","51","","","","","","","","","","","","","","","",""
"","ITI","","html-keyboard-response","338","505314","0.0-1.0-468.0","0","0","54334","","null","","","null","51","","","","","","","","","","","","","","","NaN",""
"","S1","","html-keyboard-response","339","505584","0.0-1.0-470.0","0","0","54334","","null","","","null","52","","","","","","","","","","","","","","","",""
"","ISI","","html-keyboard-response","340","506591","0.0-1.0-471.0","0","0","54334","","null","","","null","52","NaN","","","","","","","","","","","","","","",""
"","S2","","html-keyboard-response","341","506862","0.0-1.0-472.0","0","0","54334","","null","","","null","52","","NaN","","","","","","","","","","","","","",""
"","response","","html-keyboard-response","342","507158","0.0-1.0-473.0-0.0","0","0","54334","","287","","","75","52","","","2","52","training","adjacent","DE","4","5","N.jpg","O.jpg","0","1","0","",""
"","feedback","","html-keyboard-response","343","508172","0.0-1.0-474.0-0.0","0","0","54334","","null","","","null","52","","","","","","","","","","","","","","","",""
"","time_out","","html-keyboard-response","344","510178","0.0-1.0-476.0-0.0","0","0","54334","","null","","","null","52","","","","","","","","","","","","","","","",""
"","ITI","","html-keyboard-response","345","511185","0.0-1.0-477.0","0","0","54334","","null","","","null","52","","","","","","","","","","","","","","","NaN",""
"","S1","","html-keyboard-response","346","511451","0.0-1.0-479.0","0","0","54334","","null","","","null","53","","","","","","","","","","","","","","","",""
"","ISI","","html-keyboard-response","347","512474","0.0-1.0-480.0","0","0","54334","","null","","","null","53","NaN","","","","","","","","","","","","","","",""
"","S2","","html-keyboard-response","348","512739","0.0-1.0-481.0","0","0","54334","","null","","","null","53","","NaN","","","","","","","","","","","","","",""
"","response","","html-keyboard-response","349","513136","0.0-1.0-482.0-0.0","0","0","54334","","388","","","68","53","","","2","53","training","adjacent","AB","1","2","R.jpg","Q.jpg","1","1","1","",""
"","feedback","","html-keyboard-response","350","514151","0.0-1.0-483.0-0.0","0","0","54334","","null","","","null","53","","","","","","","","","","","","","","","",""
"","ITI","","html-keyboard-response","351","515159","0.0-1.0-486.0","0","0","54334","","null","","","null","53","","","","","","","","","","","","","","","NaN",""
"","S1","","html-keyboard-response","352","515428","0.0-1.0-488.0","0","0","54334","","null","","","null","54","","","","","","","","","","","","","","","",""
"","ISI","","html-keyboard-response","353","516437","0.0-1.0-489.0","0","0","54334","","null","","","null","54","NaN","","","","","","","","","","","","","","",""
"","S2","","html-keyboard-response","354","516703","0.0-1.0-490.0","0","0","54334","","null","","","null","54","","NaN","","","","","","","","","","","","","",""
"","response","","html-keyboard-response","355","517025","0.0-1.0-491.0-0.0","0","0","54334","","312","","","68","54","","","2","54","training","adjacent","FG","6","7","L.jpg","P.jpg","1","1","1","",""
"","feedback","","html-keyboard-response","356","518043","0.0-1.0-492.0-0.0","0","0","54334","","null","","","null","54","","","","","","","","","","","","","","","",""
"","ITI","","html-keyboard-response","357","519082","0.0-1.0-495.0","0","0","54334","","null","","","null","54","","","","","","","","","","","","","","","NaN",""
"","S1","","html-keyboard-response","358","519339","0.0-1.0-497.0","0","0","54334","","null","","","null","55","","","","","","","","","","","","","","","",""
"","ISI","","html-keyboard-response","359","520355","0.0-1.0-498.0","0","0","54334","","null","","","null","55","NaN","","","","","","","","","","","","","","",""
"","S2","","html-keyboard-response","360","520619","0.0-1.0-499.0","0","0","54334","","null","","","null","55","","NaN","","","","","","","","","","","","","",""
"","response","","html-keyboard-response","361","521134","0.0-1.0-500.0-0.0","0","0","54334","","508","","","75","55","","","2","55","training","adjacent","EF","5","6","O.jpg","L.jpg","0","1","0","",""
"","feedback","","html-keyboard-response","362","522142","0.0-1.0-501.0-0.0","0","0","54334","","null","","","null","55","","","","","","","","","","","","","","","",""
"","time_out","","html-keyboard-response","363","524165","0.0-1.0-503.0-0.0","0","0","54334","","null","","","null","55","","","","","","","","","","","","","","","",""
"","ITI","","html-keyboard-response","364","525175","0.0-1.0-504.0","0","0","54334","","null","","","null","55","","","","","","","","","","","","","","","NaN",""
"","S1","","html-keyboard-response","365","525448","0.0-1.0-506.0","0","0","54334","","null","","","null","56","","","","","","","","","","","","","","","",""
"","ISI","","html-keyboard-response","366","526475","0.0-1.0-507.0","0","0","54334","","null","","","null","56","NaN","","","","","","","","","","","","","","",""
"","S2","","html-keyboard-response","367","526737","0.0-1.0-508.0","0","0","54334","","null","","","null","56","","NaN","","","","","","","","","","","","","",""
"","response","","html-keyboard-response","368","527091","0.0-1.0-509.0-0.0","0","0","54334","","347","","","75","56","","","2","56","training","adjacent","BA","2","1","Q.jpg","R.jpg","0","0","1","",""
"","feedback","","html-keyboard-response","369","528124","0.0-1.0-510.0-0.0","0","0","54334","","null","","","null","56","","","","","","","","","","","","","","","",""
"","ITI","","html-keyboard-response","370","529130","0.0-1.0-513.0","0","0","54334","","null","","","null","56","","","","","","","","","","","","","","","NaN",""
"","S1","","html-keyboard-response","371","529401","0.0-1.0-515.0","0","0","54334","","null","","","null","57","","","","","","","","","","","","","","","",""
"","ISI","","html-keyboard-response","372","530427","0.0-1.0-516.0","0","0","54334","","null","","","null","57","NaN","","","","","","","","","","","","","","",""
"","S2","","html-keyboard-response","373","530688","0.0-1.0-517.0","0","0","54334","","null","","","null","57","","NaN","","","","","","","","","","","","","",""
"","response","","html-keyboard-response","374","530987","0.0-1.0-518.0-0.0","0","0","54334","","288","","","68","57","","","2","57","training","adjacent","FG","6","7","L.jpg","P.jpg","1","1","1","",""
"","feedback","","html-keyboard-response","375","532008","0.0-1.0-519.0-0.0","0","0","54334","","null","","","null","57","","","","","","","","","","","","","","","",""
"","ITI","","html-keyboard-response","376","533023","0.0-1.0-522.0","0","0","54334","","null","","","null","57","","","","","","","","","","","","","","","NaN",""
"","S1","","html-keyboard-response","377","533287","0.0-1.0-524.0","0","0","54334","","null","","","null","58","","","","","","","","","","","","","","","",""
"","ISI","","html-keyboard-response","378","534309","0.0-1.0-525.0","0","0","54334","","null","","","null","58","NaN","","","","","","","","","","","","","","",""
"","S2","","html-keyboard-response","379","534574","0.0-1.0-526.0","0","0","54334","","null","","","null","58","","NaN","","","","","","","","","","","","","",""
"","response","","html-keyboard-response","380","535113","0.0-1.0-527.0-0.0","0","0","54334","","527","","","68","58","","","2","58","training","adjacent","ED","5","4","O.jpg","N.jpg","1","0","0","",""
"","feedback","","html-keyboard-response","381","536124","0.0-1.0-528.0-0.0","0","0","54334","","null","","","null","58","","","","","","","","","","","","","","","",""
"","time_out","","html-keyboard-response","382","538134","0.0-1.0-530.0-0.0","0","0","54334","","null","","","null","58","","","","","","","","","","","","","","","",""
"","ITI","","html-keyboard-response","383","539143","0.0-1.0-531.0","0","0","54334","","null","","","null","58","","","","","","","","","","","","","","","NaN",""
"","S1","","html-keyboard-response","384","539411","0.0-1.0-533.0","0","0","54334","","null","","","null","59","","","","","","","","","","","","","","","",""
"","ISI","","html-keyboard-response","385","540425","0.0-1.0-534.0","0","0","54334","","null","","","null","59","NaN","","","","","","","","","","","","","","",""
"","S2","","html-keyboard-response","386","540700","0.0-1.0-535.0","0","0","54334","","null","","","null","59","","NaN","","","","","","","","","","","","","",""
"","response","","html-keyboard-response","387","541179","0.0-1.0-536.0-0.0","0","0","54334","","472","","","75","59","","","2","59","training","adjacent","ED","5","4","O.jpg","N.jpg","0","0","1","",""
"","feedback","","html-keyboard-response","388","542201","0.0-1.0-537.0-0.0","0","0","54334","","null","","","null","59","","","","","","","","","","","","","","","",""
"","ITI","","html-keyboard-response","389","543221","0.0-1.0-540.0","0","0","54334","","null","","","null","59","","","","","","","","","","","","","","","NaN",""
"","S1","","html-keyboard-response","390","543486","0.0-1.0-542.0","0","0","54334","","null","","","null","60","","","","","","","","","","","","","","","",""
"","ISI","","html-keyboard-response","391","544501","0.0-1.0-543.0","0","0","54334","","null","","","null","60","NaN","","","","","","","","","","","","","","",""
"","S2","","html-keyboard-response","392","544781","0.0-1.0-544.0","0","0","54334","","null","","","null","60","","NaN","","","","","","","","","","","","","",""
"","response","","html-keyboard-response","393","545575","0.0-1.0-545.0-0.0","0","0","54334","","788","","","68","60","","","2","60","training","adjacent","CD","3","4","M.jpg","N.jpg","1","1","1","",""
"","feedback","","html-keyboard-response","394","546588","0.0-1.0-546.0-0.0","0","0","54334","","null","","","null","60","","","","","","","","","","","","","","","",""
"","ITI","","html-keyboard-response","395","547594","0.0-1.0-549.0","0","0","54334","","null","","","null","60","","","","","","","","","","","","","","","NaN",""
"","S1","","html-keyboard-response","396","547866","0.0-1.0-551.0","0","0","54334","","null","","","null","61","","","","","","","","","","","","","","","",""
"","ISI","","html-keyboard-response","397","548885","0.0-1.0-552.0","0","0","54334","","null","","","null","61","NaN","","","","","","","","","","","","","","",""
"","S2","","html-keyboard-response","398","549151","0.0-1.0-553.0","0","0","54334","","null","","","null","61","","NaN","","","","","","","","","","","","","",""
"","response","","html-keyboard-response","399","549854","0.0-1.0-554.0-0.0","0","0","54334","","694","","","68","61","","","2","61","training","adjacent","CD","3","4","M.jpg","N.jpg","1","1","1","",""
"","feedback","","html-keyboard-response","400","550878","0.0-1.0-555.0-0.0","0","0","54334","","null","","","null","61","","","","","","","","","","","","","","","",""
"","ITI","","html-keyboard-response","401","551891","0.0-1.0-558.0","0","0","54334","","null","","","null","61","","","","","","","","","","","","","","","NaN",""
"","S1","","html-keyboard-response","402","552164","0.0-1.0-560.0","0","0","54334","","null","","","null","62","","","","","","","","","","","","","","","",""
"","ISI","","html-keyboard-response","403","553182","0.0-1.0-561.0","0","0","54334","","null","","","null","62","NaN","","","","","","","","","","","","","","",""
"","S2","","html-keyboard-response","404","553450","0.0-1.0-562.0","0","0","54334","","null","","","null","62","","NaN","","","","","","","","","","","","","",""
"","response","","html-keyboard-response","405","553766","0.0-1.0-563.0-0.0","0","0","54334","","311","","","75","62","","","2","62","training","adjacent","BA","2","1","Q.jpg","R.jpg","0","0","1","",""
"","feedback","","html-keyboard-response","406","554787","0.0-1.0-564.0-0.0","0","0","54334","","null","","","null","62","","","","","","","","","","","","","","","",""
"","ITI","","html-keyboard-response","407","555802","0.0-1.0-567.0","0","0","54334","","null","","","null","62","","","","","","","","","","","","","","","NaN",""
"","S1","","html-keyboard-response","408","556074","0.0-1.0-569.0","0","0","54334","","null","","","null","63","","","","","","","","","","","","","","","",""
"","ISI","","html-keyboard-response","409","557094","0.0-1.0-570.0","0","0","54334","","null","","","null","63","NaN","","","","","","","","","","","","","","",""
"","S2","","html-keyboard-response","410","557373","0.0-1.0-571.0","0","0","54334","","null","","","null","63","","NaN","","","","","","","","","","","","","",""
"","response","","html-keyboard-response","411","557772","0.0-1.0-572.0-0.0","0","0","54334","","392","","","75","63","","","2","63","training","adjacent","DE","4","5","N.jpg","O.jpg","0","1","0","",""
"","feedback","","html-keyboard-response","412","558794","0.0-1.0-573.0-0.0","0","0","54334","","null","","","null","63","","","","","","","","","","","","","","","",""
"","time_out","","html-keyboard-response","413","560808","0.0-1.0-575.0-0.0","0","0","54334","","null","","","null","63","","","","","","","","","","","","","","","",""
"","ITI","","html-keyboard-response","414","561827","0.0-1.0-576.0","0","0","54334","","null","","","null","63","","","","","","","","","","","","","","","NaN",""
"","S1","","html-keyboard-response","415","562096","0.0-1.0-578.0","0","0","54334","","null","","","null","64","","","","","","","","","","","","","","","",""
"","ISI","","html-keyboard-response","416","563102","0.0-1.0-579.0","0","0","54334","","null","","","null","64","NaN","","","","","","","","","","","","","","",""
"","S2","","html-keyboard-response","417","563376","0.0-1.0-580.0","0","0","54334","","null","","","null","64","","NaN","","","","","","","","","","","","","",""
"","response","","html-keyboard-response","418","563954","0.0-1.0-581.0-0.0","0","0","54334","","571","","","68","64","","","2","64","training","adjacent","AB","1","2","R.jpg","Q.jpg","1","1","1","",""
"","feedback","","html-keyboard-response","419","564976","0.0-1.0-582.0-0.0","0","0","54334","","null","","","null","64","","","","","","","","","","","","","","","",""
"","ITI","","html-keyboard-response","420","565997","0.0-1.0-585.0","0","0","54334","","null","","","null","64","","","","","","","","","","","","","","","NaN",""
"","S1","","html-keyboard-response","421","566264","0.0-1.0-587.0","0","0","54334","","null","","","null","65","","","","","","","","","","","","","","","",""
"","ISI","","html-keyboard-response","422","567306","0.0-1.0-588.0","0","0","54334","","null","","","null","65","NaN","","","","","","","","","","","","","","",""
"","S2","","html-keyboard-response","423","567570","0.0-1.0-589.0","0","0","54334","","null","","","null","65","","NaN","","","","","","","","","","","","","",""
"","response","","html-keyboard-response","424","568129","0.0-1.0-590.0-0.0","0","0","54334","","554","","","75","65","","","2","65","training","adjacent","EF","5","6","O.jpg","L.jpg","0","1","0","",""
"","feedback","","html-keyboard-response","425","569140","0.0-1.0-591.0-0.0","0","0","54334","","null","","","null","65","","","","","","","","","","","","","","","",""
"","time_out","","html-keyboard-response","426","571167","0.0-1.0-593.0-0.0","0","0","54334","","null","","","null","65","","","","","","","","","","","","","","","",""
"","ITI","","html-keyboard-response","427","572183","0.0-1.0-594.0","0","0","54334","","null","","","null","65","","","","","","","","","","","","","","","NaN",""
"","S1","","html-keyboard-response","428","572454","0.0-1.0-596.0","0","0","54334","","null","","","null","66","","","","","","","","","","","","","","","",""
"","ISI","","html-keyboard-response","429","573466","0.0-1.0-597.0","0","0","54334","","null","","","null","66","NaN","","","","","","","","","","","","","","",""
"","S2","","html-keyboard-response","430","573734","0.0-1.0-598.0","0","0","54334","","null","","","null","66","","NaN","","","","","","","","","","","","","",""
"","response","","html-keyboard-response","431","574086","0.0-1.0-599.0-0.0","0","0","54334","","344","","","75","66","","","2","66","training","adjacent","BC","2","3","Q.jpg","M.jpg","0","1","0","",""
"","feedback","","html-keyboard-response","432","575097","0.0-1.0-600.0-0.0","0","0","54334","","null","","","null","66","","","","","","","","","","","","","","","",""
"","time_out","","html-keyboard-response","433","577113","0.0-1.0-602.0-0.0","0","0","54334","","null","","","null","66","","","","","","","","","","","","","","","",""
"","ITI","","html-keyboard-response","434","578125","0.0-1.0-603.0","0","0","54334","","null","","","null","66","","","","","","","","","","","","","","","NaN",""
"","S1","","html-keyboard-response","435","578410","0.0-1.0-605.0","0","0","54334","","null","","","null","67","","","","","","","","","","","","","","","",""
"","ISI","","html-keyboard-response","436","579420","0.0-1.0-606.0","0","0","54334","","null","","","null","67","NaN","","","","","","","","","","","","","","",""
"","S2","","html-keyboard-response","437","579686","0.0-1.0-607.0","0","0","54334","","null","","","null","67","","NaN","","","","","","","","","","","","","",""
"","response","","html-keyboard-response","438","580127","0.0-1.0-608.0-0.0","0","0","54334","","429","","","68","67","","","2","67","training","adjacent","CD","3","4","M.jpg","N.jpg","1","1","1","",""
"","feedback","","html-keyboard-response","439","581143","0.0-1.0-609.0-0.0","0","0","54334","","null","","","null","67","","","","","","","","","","","","","","","",""
"","ITI","","html-keyboard-response","440","582167","0.0-1.0-612.0","0","0","54334","","null","","","null","67","","","","","","","","","","","","","","","NaN",""
"","S1","","html-keyboard-response","441","582433","0.0-1.0-614.0","0","0","54334","","null","","","null","68","","","","","","","","","","","","","","","",""
"","ISI","","html-keyboard-response","442","583452","0.0-1.0-615.0","0","0","54334","","null","","","null","68","NaN","","","","","","","","","","","","","","",""
"","S2","","html-keyboard-response","443","583715","0.0-1.0-616.0","0","0","54334","","null","","","null","68","","NaN","","","","","","","","","","","","","",""
"","response","","html-keyboard-response","444","583922","0.0-1.0-617.0-0.0","0","0","54334","","201","","","75","68","","","2","68","training","adjacent","DC","4","3","N.jpg","M.jpg","0","0","1","",""
"","feedback","","html-keyboard-response","445","584934","0.0-1.0-618.0-0.0","0","0","54334","","null","","","null","68","","","","","","","","","","","","","","","",""
"","ITI","","html-keyboard-response","446","585957","0.0-1.0-621.0","0","0","54334","","null","","","null","68","","","","","","","","","","","","","","","NaN",""
"","S1","","html-keyboard-response","447","586221","0.0-1.0-623.0","0","0","54334","","null","","","null","69","","","","","","","","","","","","","","","",""
"","ISI","","html-keyboard-response","448","587240","0.0-1.0-624.0","0","0","54334","","null","","","null","69","NaN","","","","","","","","","","","","","","",""
"","S2","","html-keyboard-response","449","587509","0.0-1.0-625.0","0","0","54334","","null","","","null","69","","NaN","","","","","","","","","","","","","",""
"","response","","html-keyboard-response","450","587963","0.0-1.0-626.0-0.0","0","0","54334","","447","","","68","69","","","2","69","training","adjacent","ED","5","4","O.jpg","N.jpg","1","0","0","",""
"","feedback","","html-keyboard-response","451","588976","0.0-1.0-627.0-0.0","0","0","54334","","null","","","null","69","","","","","","","","","","","","","","","",""
"","time_out","","html-keyboard-response","452","590996","0.0-1.0-629.0-0.0","0","0","54334","","null","","","null","69","","","","","","","","","","","","","","","",""
"","ITI","","html-keyboard-response","453","592012","0.0-1.0-630.0","0","0","54334","","null","","","null","69","","","","","","","","","","","","","","","NaN",""
"","S1","","html-keyboard-response","454","592286","0.0-1.0-632.0","0","0","54334","","null","","","null","70","","","","","","","","","","","","","","","",""
"","ISI","","html-keyboard-response","455","593301","0.0-1.0-633.0","0","0","54334","","null","","","null","70","NaN","","","","","","","","","","","","","","",""
"","S2","","html-keyboard-response","456","593572","0.0-1.0-634.0","0","0","54334","","null","","","null","70","","NaN","","","","","","","","","","","","","",""
"","response","","html-keyboard-response","457","594085","0.0-1.0-635.0-0.0","0","0","54334","","505","","","68","70","","","2","70","training","adjacent","FG","6","7","L.jpg","P.jpg","1","1","1","",""
"","feedback","","html-keyboard-response","458","595095","0.0-1.0-636.0-0.0","0","0","54334","","null","","","null","70","","","","","","","","","","","","","","","",""
"","ITI","","html-keyboard-response","459","596117","0.0-1.0-639.0","0","0","54334","","null","","","null","70","","","","","","","","","","","","","","","NaN",""
"","S1","","html-keyboard-response","460","596384","0.0-1.0-641.0","0","0","54334","","null","","","null","71","","","","","","","","","","","","","","","",""
"","ISI","","html-keyboard-response","461","597402","0.0-1.0-642.0","0","0","54334","","null","","","null","71","NaN","","","","","","","","","","","","","","",""
"","S2","","html-keyboard-response","462","597678","0.0-1.0-643.0","0","0","54334","","null","","","null","71","","NaN","","","","","","","","","","","","","",""
"","response","","html-keyboard-response","463","598077","0.0-1.0-644.0-0.0","0","0","54334","","392","","","68","71","","","2","71","training","adjacent","FG","6","7","L.jpg","P.jpg","1","1","1","",""
"","feedback","","html-keyboard-response","464","599090","0.0-1.0-645.0-0.0","0","0","54334","","null","","","null","71","","","","","","","","","","","","","","","",""
"","ITI","","html-keyboard-response","465","600099","0.0-1.0-648.0","0","0","54334","","null","","","null","71","","","","","","","","","","","","","","","NaN",""
"","S1","","html-keyboard-response","466","600363","0.0-1.0-650.0","0","0","54334","","null","","","null","72","","","","","","","","","","","","","","","",""
"","ISI","","html-keyboard-response","467","601376","0.0-1.0-651.0","0","0","54334","","null","","","null","72","NaN","","","","","","","","","","","","","","",""
"","S2","","html-keyboard-response","468","601637","0.0-1.0-652.0","0","0","54334","","null","","","null","72","","NaN","","","","","","","","","","","","","",""
"","response","","html-keyboard-response","469","602312","0.0-1.0-653.0-0.0","0","0","54334","","670","","","68","72","","","2","72","training","adjacent","FE","6","5","L.jpg","O.jpg","1","0","0","",""
"","feedback","","html-keyboard-response","470","603338","0.0-1.0-654.0-0.0","0","0","54334","","null","","","null","72","","","","","","","","","","","","","","","",""
"","time_out","","html-keyboard-response","471","605372","0.0-1.0-656.0-0.0","0","0","54334","","null","","","null","72","","","","","","","","","","","","","","","",""
"","ITI","","html-keyboard-response","472","606385","0.0-1.0-657.0","0","0","54334","","null","","","null","72","","","","","","","","","","","","","","","NaN",""
"","S1","","html-keyboard-response","473","606651","0.0-1.0-659.0","0","0","54334","","null","","","null","73","","","","","","","","","","","","","","","",""
"","ISI","","html-keyboard-response","474","607673","0.0-1.0-660.0","0","0","54334","","null","","","null","73","NaN","","","","","","","","","","","","","","",""
"","S2","","html-keyboard-response","475","607941","0.0-1.0-661.0","0","0","54334","","null","","","null","73","","NaN","","","","","","","","","","","","","",""
"","response","","html-keyboard-response","476","608314","0.0-1.0-662.0-0.0","0","0","54334","","363","","","75","73","","","2","73","training","adjacent","DC","4","3","N.jpg","M.jpg","0","0","1","",""
"","feedback","","html-keyboard-response","477","609325","0.0-1.0-663.0-0.0","0","0","54334","","null","","","null","73","","","","","","","","","","","","","","","",""
"","ITI","","html-keyboard-response","478","610332","0.0-1.0-666.0","0","0","54334","","null","","","null","73","","","","","","","","","","","","","","","NaN",""
"","S1","","html-keyboard-response","479","610597","0.0-1.0-668.0","0","0","54334","","null","","","null","74","","","","","","","","","","","","","","","",""
"","ISI","","html-keyboard-response","480","611607","0.0-1.0-669.0","0","0","54334","","null","","","null","74","NaN","","","","","","","","","","","","","","",""
"","S2","","html-keyboard-response","481","611874","0.0-1.0-670.0","0","0","54334","","null","","","null","74","","NaN","","","","","","","","","","","","","",""
"","response","","html-keyboard-response","482","612162","0.0-1.0-671.0-0.0","0","0","54334","","277","","","68","74","","","2","74","training","adjacent","AB","1","2","R.jpg","Q.jpg","1","1","1","",""
"","feedback","","html-keyboard-response","483","613187","0.0-1.0-672.0-0.0","0","0","54334","","null","","","null","74","","","","","","","","","","","","","","","",""
"","ITI","","html-keyboard-response","484","614213","0.0-1.0-675.0","0","0","54334","","null","","","null","74","","","","","","","","","","","","","","","NaN",""
"","S1","","html-keyboard-response","485","614485","0.0-1.0-677.0","0","0","54334","","null","","","null","75","","","","","","","","","","","","","","","",""
"","ISI","","html-keyboard-response","486","615501","0.0-1.0-678.0","0","0","54334","","null","","","null","75","NaN","","","","","","","","","","","","","","",""
"","S2","","html-keyboard-response","487","615769","0.0-1.0-679.0","0","0","54334","","null","","","null","75","","NaN","","","","","","","","","","","","","",""
"","response","","html-keyboard-response","488","616225","0.0-1.0-680.0-0.0","0","0","54334","","451","","","75","75","","","2","75","training","adjacent","BA","2","1","Q.jpg","R.jpg","0","0","1","",""
"","feedback","","html-keyboard-response","489","617302","0.0-1.0-681.0-0.0","0","0","54334","","null","","","null","75","","","","","","","","","","","","","","","",""
"","ITI","","html-keyboard-response","490","618322","0.0-1.0-684.0","0","0","54334","","null","","","null","75","","","","","","","","","","","","","","","NaN",""
"","S1","","html-keyboard-response","491","618589","0.0-1.0-686.0","0","0","54334","","null","","","null","76","","","","","","","","","","","","","","","",""
"","ISI","","html-keyboard-response","492","619606","0.0-1.0-687.0","0","0","54334","","null","","","null","76","NaN","","","","","","","","","","","","","","",""
"","S2","","html-keyboard-response","493","619875","0.0-1.0-688.0","0","0","54334","","null","","","null","76","","NaN","","","","","","","","","","","","","",""
"","response","","html-keyboard-response","494","620525","0.0-1.0-689.0-0.0","0","0","54334","","640","","","75","76","","","2","76","training","adjacent","DC","4","3","N.jpg","M.jpg","0","0","1","",""
"","feedback","","html-keyboard-response","495","621538","0.0-1.0-690.0-0.0","0","0","54334","","null","","","null","76","","","","","","","","","","","","","","","",""
"","ITI","","html-keyboard-response","496","622604","0.0-1.0-693.0","0","0","54334","","null","","","null","76","","","","","","","","","","","","","","","NaN",""
"","S1","","html-keyboard-response","497","622873","0.0-1.0-695.0","0","0","54334","","null","","","null","77","","","","","","","","","","","","","","","",""
"","ISI","","html-keyboard-response","498","623879","0.0-1.0-696.0","0","0","54334","","null","","","null","77","NaN","","","","","","","","","","","","","","",""
"","S2","","html-keyboard-response","499","624147","0.0-1.0-697.0","0","0","54334","","null","","","null","77","","NaN","","","","","","","","","","","","","",""
"","response","","html-keyboard-response","500","624658","0.0-1.0-698.0-0.0","0","0","54334","","505","","","75","77","","","2","77","training","adjacent","GF","7","6","P.jpg","L.jpg","0","0","1","",""
"","feedback","","html-keyboard-response","501","625670","0.0-1.0-699.0-0.0","0","0","54334","","null","","","null","77","","","","","","","","","","","","","","","",""
"","ITI","","html-keyboard-response","502","626730","0.0-1.0-702.0","0","0","54334","","null","","","null","77","","","","","","","","","","","","","","","NaN",""
"","S1","","html-keyboard-response","503","626992","0.0-1.0-704.0","0","0","54334","","null","","","null","78","","","","","","","","","","","","","","","",""
"","ISI","","html-keyboard-response","504","628002","0.0-1.0-705.0","0","0","54334","","null","","","null","78","NaN","","","","","","","","","","","","","","",""
"","S2","","html-keyboard-response","505","628268","0.0-1.0-706.0","0","0","54334","","null","","","null","78","","NaN","","","","","","","","","","","","","",""
"","response","","html-keyboard-response","506","628652","0.0-1.0-707.0-0.0","0","0","54334","","379","","","75","78","","","2","78","training","adjacent","GF","7","6","P.jpg","L.jpg","0","0","1","",""
"","feedback","","html-keyboard-response","507","629669","0.0-1.0-708.0-0.0","0","0","54334","","null","","","null","78","","","","","","","","","","","","","","","",""
"","ITI","","html-keyboard-response","508","630705","0.0-1.0-711.0","0","0","54334","","null","","","null","78","","","","","","","","","","","","","","","NaN",""
"","S1","","html-keyboard-response","509","630966","0.0-1.0-713.0","0","0","54334","","null","","","null","79","","","","","","","","","","","","","","","",""
"","ISI","","html-keyboard-response","510","631988","0.0-1.0-714.0","0","0","54334","","null","","","null","79","NaN","","","","","","","","","","","","","","",""
"","S2","","html-keyboard-response","511","632254","0.0-1.0-715.0","0","0","54334","","null","","","null","79","","NaN","","","","","","","","","","","","","",""
"","response","","html-keyboard-response","512","632555","0.0-1.0-716.0-0.0","0","0","54334","","295","","","75","79","","","2","79","training","adjacent","BC","2","3","Q.jpg","M.jpg","0","1","0","",""
"","feedback","","html-keyboard-response","513","633578","0.0-1.0-717.0-0.0","0","0","54334","","null","","","null","79","","","","","","","","","","","","","","","",""
"","time_out","","html-keyboard-response","514","635600","0.0-1.0-719.0-0.0","0","0","54334","","null","","","null","79","","","","","","","","","","","","","","","",""
"","ITI","","html-keyboard-response","515","636625","0.0-1.0-720.0","0","0","54334","","null","","","null","79","","","","","","","","","","","","","","","NaN",""
"","S1","","html-keyboard-response","516","636911","0.0-1.0-722.0","0","0","54334","","null","","","null","80","","","","","","","","","","","","","","","",""
"","ISI","","html-keyboard-response","517","637945","0.0-1.0-723.0","0","0","54334","","null","","","null","80","NaN","","","","","","","","","","","","","","",""
"","S2","","html-keyboard-response","518","638226","0.0-1.0-724.0","0","0","54334","","null","","","null","80","","NaN","","","","","","","","","","","","","",""
"","response","","html-keyboard-response","519","638359","0.0-1.0-725.0-0.0","0","0","54334","","128","","","75","80","","","2","80","training","adjacent","GF","7","6","P.jpg","L.jpg","0","0","1","",""
"","feedback","","html-keyboard-response","520","639383","0.0-1.0-726.0-0.0","0","0","54334","","null","","","null","80","","","","","","","","","","","","","","","",""
"","ITI","","html-keyboard-response","521","640402","0.0-1.0-729.0","0","0","54334","","null","","","null","80","","","","","","","","","","","","","","","NaN",""
"","S1","","html-keyboard-response","522","640669","0.0-1.0-731.0","0","0","54334","","null","","","null","81","","","","","","","","","","","","","","","",""
"","ISI","","html-keyboard-response","523","641715","0.0-1.0-732.0","0","0","54334","","null","","","null","81","NaN","","","","","","","","","","","","","","",""
"","S2","","html-keyboard-response","524","641982","0.0-1.0-733.0","0","0","54334","","null","","","null","81","","NaN","","","","","","","","","","","","","",""
"","response","","html-keyboard-response","525","642599","0.0-1.0-734.0-0.0","0","0","54334","","612","","","68","81","","","2","81","training","adjacent","CB","3","2","M.jpg","Q.jpg","1","0","0","",""
"","feedback","","html-keyboard-response","526","643610","0.0-1.0-735.0-0.0","0","0","54334","","null","","","null","81","","","","","","","","","","","","","","","",""
"","time_out","","html-keyboard-response","527","645622","0.0-1.0-737.0-0.0","0","0","54334","","null","","","null","81","","","","","","","","","","","","","","","",""
"","ITI","","html-keyboard-response","528","646628","0.0-1.0-738.0","0","0","54334","","null","","","null","81","","","","","","","","","","","","","","","NaN",""
"","S1","","html-keyboard-response","529","646905","0.0-1.0-740.0","0","0","54334","","null","","","null","82","","","","","","","","","","","","","","","",""
"","ISI","","html-keyboard-response","530","647919","0.0-1.0-741.0","0","0","54334","","null","","","null","82","NaN","","","","","","","","","","","","","","",""
"","S2","","html-keyboard-response","531","648182","0.0-1.0-742.0","0","0","54334","","null","","","null","82","","NaN","","","","","","","","","","","","","",""
"","response","","html-keyboard-response","532","648700","0.0-1.0-743.0-0.0","0","0","54334","","509","","","75","82","","","2","82","training","adjacent","EF","5","6","O.jpg","L.jpg","0","1","0","",""
"","feedback","","html-keyboard-response","533","649730","0.0-1.0-744.0-0.0","0","0","54334","","null","","","null","82","","","","","","","","","","","","","","","",""
"","time_out","","html-keyboard-response","534","651745","0.0-1.0-746.0-0.0","0","0","54334","","null","","","null","82","","","","","","","","","","","","","","","",""
"","ITI","","html-keyboard-response","535","652753","0.0-1.0-747.0","0","0","54334","","null","","","null","82","","","","","","","","","","","","","","","NaN",""
"","S1","","html-keyboard-response","536","653020","0.0-1.0-749.0","0","0","54334","","null","","","null","83","","","","","","","","","","","","","","","",""
"","ISI","","html-keyboard-response","537","654038","0.0-1.0-750.0","0","0","54334","","null","","","null","83","NaN","","","","","","","","","","","","","","",""
"","S2","","html-keyboard-response","538","654314","0.0-1.0-751.0","0","0","54334","","null","","","null","83","","NaN","","","","","","","","","","","","","",""
"","response","","html-keyboard-response","539","654587","0.0-1.0-752.0-0.0","0","0","54334","","265","","","75","83","","","2","83","training","adjacent","EF","5","6","O.jpg","L.jpg","0","1","0","",""
"","feedback","","html-keyboard-response","540","655626","0.0-1.0-753.0-0.0","0","0","54334","","null","","","null","83","","","","","","","","","","","","","","","",""
"","time_out","","html-keyboard-response","541","657640","0.0-1.0-755.0-0.0","0","0","54334","","null","","","null","83","","","","","","","","","","","","","","","",""
"","ITI","","html-keyboard-response","542","658658","0.0-1.0-756.0","0","0","54334","","null","","","null","83","","","","","","","","","","","","","","","NaN",""
"","S1","","html-keyboard-response","543","658930","0.0-1.0-758.0","0","0","54334","","null","","","null","84","","","","","","","","","","","","","","","",""
"","ISI","","html-keyboard-response","544","659954","0.0-1.0-759.0","0","0","54334","","null","","","null","84","NaN","","","","","","","","","","","","","","",""
"","S2","","html-keyboard-response","545","660240","0.0-1.0-760.0","0","0","54334","","null","","","null","84","","NaN","","","","","","","","","","","","","",""
"","response","","html-keyboard-response","546","660877","0.0-1.0-761.0-0.0","0","0","54334","","632","","","68","84","","","2","84","training","adjacent","CB","3","2","M.jpg","Q.jpg","1","0","0","",""
"","feedback","","html-keyboard-response","547","661886","0.0-1.0-762.0-0.0","0","0","54334","","null","","","null","84","","","","","","","","","","","","","","","",""
"","time_out","","html-keyboard-response","548","663908","0.0-1.0-764.0-0.0","0","0","54334","","null","","","null","84","","","","","","","","","","","","","","","",""
"","ITI","","html-keyboard-response","549","664934","0.0-1.0-765.0","0","0","54334","","null","","","null","84","","","","","","","","","","","","","","","NaN",""
"","S1","","html-keyboard-response","550","665198","0.0-1.0-767.0","0","0","54334","","null","","","null","85","","","","","","","","","","","","","","","",""
"","ISI","","html-keyboard-response","551","666217","0.0-1.0-768.0","0","0","54334","","null","","","null","85","NaN","","","","","","","","","","","","","","",""
"","S2","","html-keyboard-response","552","666486","0.0-1.0-769.0","0","0","54334","","null","","","null","85","","NaN","","","","","","","","","","","","","",""
"","response","","html-keyboard-response","553","666960","0.0-1.0-770.0-0.0","0","0","54334","","470","","","68","85","","","2","85","training","adjacent","ED","5","4","O.jpg","N.jpg","1","0","0","",""
"","feedback","","html-keyboard-response","554","667977","0.0-1.0-771.0-0.0","0","0","54334","","null","","","null","85","","","","","","","","","","","","","","","",""
"","time_out","","html-keyboard-response","555","669995","0.0-1.0-773.0-0.0","0","0","54334","","null","","","null","85","","","","","","","","","","","","","","","",""
"","ITI","","html-keyboard-response","556","671018","0.0-1.0-774.0","0","0","54334","","null","","","null","85","","","","","","","","","","","","","","","NaN",""
"","S1","","html-keyboard-response","557","671284","0.0-1.0-776.0","0","0","54334","","null","","","null","86","","","","","","","","","","","","","","","",""
"","ISI","","html-keyboard-response","558","672304","0.0-1.0-777.0","0","0","54334","","null","","","null","86","NaN","","","","","","","","","","","","","","",""
"","S2","","html-keyboard-response","559","672569","0.0-1.0-778.0","0","0","54334","","null","","","null","86","","NaN","","","","","","","","","","","","","",""
"","response","","html-keyboard-response","560","672935","0.0-1.0-779.0-0.0","0","0","54334","","358","","","68","86","","","2","86","training","adjacent","FE","6","5","L.jpg","O.jpg","1","0","0","",""
"","feedback","","html-keyboard-response","561","673951","0.0-1.0-780.0-0.0","0","0","54334","","null","","","null","86","","","","","","","","","","","","","","","",""
"","time_out","","html-keyboard-response","562","675970","0.0-1.0-782.0-0.0","0","0","54334","","null","","","null","86","","","","","","","","","","","","","","","",""
"","ITI","","html-keyboard-response","563","676982","0.0-1.0-783.0","0","0","54334","","null","","","null","86","","","","","","","","","","","","","","","NaN",""
"","S1","","html-keyboard-response","564","677282","0.0-1.0-785.0","0","0","54334","","null","","","null","87","","","","","","","","","","","","","","","",""
"","ISI","","html-keyboard-response","565","678290","0.0-1.0-786.0","0","0","54334","","206","","","68","87","d","","","","","","","","","","","","","","",""
"","S2","","html-keyboard-response","566","678564","0.0-1.0-787.0","0","0","54334","","null","","","null","87","","NaN","","","","","","","","","","","","","",""
"","response","","html-keyboard-response","567","678856","0.0-1.0-788.0-0.0","0","0","54334","","285","","","68","87","","","2","87","training","adjacent","FE","6","5","L.jpg","O.jpg","1","0","0","",""
"","feedback","","html-keyboard-response","568","679869","0.0-1.0-789.0-0.0","0","0","54334","","null","","","null","87","","","","","","","","","","","","","","","",""
"","time_out","","html-keyboard-response","569","681879","0.0-1.0-791.0-0.0","0","0","54334","","null","","","null","87","","","","","","","","","","","","","","","",""
"","ITI","","html-keyboard-response","570","682886","0.0-1.0-792.0","0","0","54334","","null","","","null","87","","","","","","","","","","","","","","","NaN",""
"","S1","","html-keyboard-response","571","683157","0.0-1.0-794.0","0","0","54334","","null","","","null","88","","","","","","","","","","","","","","","",""
"","ISI","","html-keyboard-response","572","684169","0.0-1.0-795.0","0","0","54334","","null","","","null","88","NaN","","","","","","","","","","","","","","",""
"","S2","","html-keyboard-response","573","684439","0.0-1.0-796.0","0","0","54334","","null","","","null","88","","NaN","","","","","","","","","","","","","",""
"","response","","html-keyboard-response","574","684819","0.0-1.0-797.0-0.0","0","0","54334","","370","","","68","88","","","2","88","training","adjacent","AB","1","2","R.jpg","Q.jpg","1","1","1","",""
"","feedback","","html-keyboard-response","575","685832","0.0-1.0-798.0-0.0","0","0","54334","","null","","","null","88","","","","","","","","","","","","","","","",""
"","ITI","","html-keyboard-response","576","686854","0.0-1.0-801.0","0","0","54334","","null","","","null","88","","","","","","","","","","","","","","","NaN",""
"","S1","","html-keyboard-response","577","687124","0.0-1.0-803.0","0","0","54334","","null","","","null","89","","","","","","","","","","","","","","","",""
"","ISI","","html-keyboard-response","578","688133","0.0-1.0-804.0","0","0","54334","","null","","","null","89","NaN","","","","","","","","","","","","","","",""
"","S2","","html-keyboard-response","579","688402","0.0-1.0-805.0","0","0","54334","","null","","","null","89","","NaN","","","","","","","","","","","","","",""
"","response","","html-keyboard-response","580","688784","0.0-1.0-806.0-0.0","0","0","54334","","372","","","75","89","","","2","89","training","adjacent","DC","4","3","N.jpg","M.jpg","0","0","1","",""
"","feedback","","html-keyboard-response","581","689798","0.0-1.0-807.0-0.0","0","0","54334","","null","","","null","89","","","","","","","","","","","","","","","",""
"","ITI","","html-keyboard-response","582","690823","0.0-1.0-810.0","0","0","54334","","null","","","null","89","","","","","","","","","","","","","","","NaN",""
