"success","ttype","start_time","trial_type","trial_index","time_elapsed","internal_node_id","warning","missed_checkup","PID","view_history","rt","responses","repeat_instructions","key_press","index","keypress_isi","keypress_S2","block","trial_num","phase","group_type","pair_type","S1_stim","S2_stim","S1_img","S2_img","S1_chosen","S1_higher","accuracy","keypress_iti","total_bonus_tally"
"true","full_screen","d04142023hr1420","fullscreen","0","14648","0.0-0.0","0","0","44521","","","","","","","","","","","","","","","","","","","","","",""
"","instructions","","instructions","1","51854","0.0-1.0-0.0-0.0","0","0","44521","[{""page_index"":0,""viewing_time"":5316},{""page_index"":1,""viewing_time"":18848},{""page_index"":2,""viewing_time"":11224},{""page_index"":3,""viewing_time"":1816}]","37204","","","","","","","","","","","","","","","","","","","",""
"","comprehension_check","","survey-multi-choice","2","92870","0.0-1.0-0.0-1.0","0","0","44521","","41011","{""Q0"":""True"",""Q1"":""K"",""Q2"":""Only when the screen 'MAKE A CHOICE' is shown"",""Q3"":""Green mark"",""Q4"":""either D or K""}","1","","","","","","","","","","","","","","","","","",""
"","missed_instruction_checkup","","html-keyboard-response","3","94862","0.0-1.0-0.0-2.0-0.0","0","1","44521","","1988","","","32","","","","","","","","","","","","","","","","",""
"","instructions","","instructions","4","104381","0.0-1.0-0.1-0.1","0","0","44521","[{""page_index"":0,""viewing_time"":1525},{""page_index"":1,""viewing_time"":5376},{""page_index"":2,""viewing_time"":1624},{""page_index"":3,""viewing_time"":992}]","9517","","","","","","","","","","","","","","","","","","","",""
"","comprehension_check","","survey-multi-choice","5","118357","0.0-1.0-0.1-1.1","0","0","44521","","13972","{""Q0"":""True"",""Q1"":""K"",""Q2"":""Once the second image appears and while the screen 'MAKE A CHOICE' is shown"",""Q3"":""Green mark"",""Q4"":""either D or K""}","0","","","","","","","","","","","","","","","","","",""
"","start_exp","","html-keyboard-response","6","120318","0.0-1.0-1.0","0","0","44521","","1958","","","32","","","","","","","","","","","","","","","","",""
"","S1","","html-keyboard-response","7","120571","0.0-1.0-2.0","0","0","44521","","null","","","null","0","","","","","","","","","","","","","","","",""
"","ISI","","html-keyboard-response","8","121574","0.0-1.0-3.0","0","0","44521","","401","","","75","0","k","","","","","","","","","","","","","","",""
"","S2","","html-keyboard-response","9","121828","0.0-1.0-4.0","0","0","44521","","null","","","null","0","","NaN","","","","","","","","","","","","","",""
"","response","","html-keyboard-response","10","122430","0.0-1.0-5.0-0.0","0","0","44521","","599","","","75","0","","","1","0","training","adjacent","EF","5","6","M.jpg","L.jpg","1","1","1","",""
"","feedback","","html-keyboard-response","11","123433","0.0-1.0-6.0-0.0","0","0","44521","","null","","","null","0","","","","","","","","","","","","","","","",""
"","ITI","","html-keyboard-response","12","124437","0.0-1.0-9.0","0","0","44521","","null","","","null","0","","","","","","","","","","","","","","","NaN",""
"","S1","","html-keyboard-response","13","124690","0.0-1.0-11.0","0","0","44521","","null","","","null","1","","","","","","","","","","","","","","","",""
"","ISI","","html-keyboard-response","14","125693","0.0-1.0-12.0","0","0","44521","","null","","","null","1","NaN","","","","","","","","","","","","","","",""
"","S2","","html-keyboard-response","15","125946","0.0-1.0-13.0","0","0","44521","","null","","","null","1","","NaN","","","","","","","","","","","","","",""
"","response","","html-keyboard-response","16","126478","0.0-1.0-14.0-0.0","0","0","44521","","529","","","68","1","","","1","1","training","adjacent","BA","2","1","P.jpg","N.jpg","0","0","1","",""
"","feedback","","html-keyboard-response","17","127481","0.0-1.0-15.0-0.0","0","0","44521","","null","","","null","1","","","","","","","","","","","","","","","",""
"","ITI","","html-keyboard-response","18","128483","0.0-1.0-18.0","0","0","44521","","null","","","null","1","","","","","","","","","","","","","","","NaN",""
"","S1","","html-keyboard-response","19","128737","0.0-1.0-20.0","0","0","44521","","null","","","null","2","","","","","","","","","","","","","","","",""
"","ISI","","html-keyboard-response","20","129739","0.0-1.0-21.0","0","0","44521","","null","","","null","2","NaN","","","","","","","","","","","","","","",""
"","S2","","html-keyboard-response","21","129993","0.0-1.0-22.0","0","0","44521","","null","","","null","2","","NaN","","","","","","","","","","","","","",""
"","response","","html-keyboard-response","22","130429","0.0-1.0-23.0-0.0","0","0","44521","","435","","","75","2","","","1","2","training","adjacent","FE","6","5","L.jpg","M.jpg","1","0","0","",""
"","feedback","","html-keyboard-response","23","131432","0.0-1.0-24.0-0.0","0","0","44521","","null","","","null","2","","","","","","","","","","","","","","","",""
"","time_out","","html-keyboard-response","24","133435","0.0-1.0-26.0-0.0","0","0","44521","","null","","","null","2","","","","","","","","","","","","","","","",""
"","ITI","","html-keyboard-response","25","134438","0.0-1.0-27.0","0","0","44521","","null","","","null","2","","","","","","","","","","","","","","","NaN",""
"","S1","","html-keyboard-response","26","134691","0.0-1.0-29.0","0","0","44521","","null","","","null","3","","","","","","","","","","","","","","","",""
"","ISI","","html-keyboard-response","27","135694","0.0-1.0-30.0","0","0","44521","","null","","","null","3","NaN","","","","","","","","","","","","","","",""
"","S2","","html-keyboard-response","28","135947","0.0-1.0-31.0","0","0","44521","","null","","","null","3","","NaN","","","","","","","","","","","","","",""
"","response","","html-keyboard-response","29","136334","0.0-1.0-32.0-0.0","0","0","44521","","385","","","68","3","","","1","3","training","adjacent","ED","5","4","M.jpg","Q.jpg","0","0","1","",""
"","feedback","","html-keyboard-response","30","137338","0.0-1.0-33.0-0.0","0","0","44521","","null","","","null","3","","","","","","","","","","","","","","","",""
"","ITI","","html-keyboard-response","31","138341","0.0-1.0-36.0","0","0","44521","","null","","","null","3","","","","","","","","","","","","","","","NaN",""
"","S1","","html-keyboard-response","32","138594","0.0-1.0-38.0","0","0","44521","","null","","","null","4","","","","","","","","","","","","","","","",""
"","ISI","","html-keyboard-response","33","139597","0.0-1.0-39.0","0","0","44521","","null","","","null","4","NaN","","","","","","","","","","","","","","",""
"","S2","","html-keyboard-response","34","139849","0.0-1.0-40.0","0","0","44521","","null","","","null","4","","NaN","","","","","","","","","","","","","",""
"","response","","html-keyboard-response","35","140125","0.0-1.0-41.0-0.0","0","0","44521","","274","","","68","4","","","1","4","training","adjacent","GF","7","6","R.jpg","L.jpg","0","0","1","",""
"","feedback","","html-keyboard-response","36","141130","0.0-1.0-42.0-0.0","0","0","44521","","null","","","null","4","","","","","","","","","","","","","","","",""
"","ITI","","html-keyboard-response","37","142133","0.0-1.0-45.0","0","0","44521","","null","","","null","4","","","","","","","","","","","","","","","NaN",""
"","S1","","html-keyboard-response","38","142386","0.0-1.0-47.0","0","0","44521","","null","","","null","5","","","","","","","","","","","","","","","",""
"","ISI","","html-keyboard-response","39","143389","0.0-1.0-48.0","0","0","44521","","null","","","null","5","NaN","","","","","","","","","","","","","","",""
"","S2","","html-keyboard-response","40","143643","0.0-1.0-49.0","0","0","44521","","null","","","null","5","","NaN","","","","","","","","","","","","","",""
"","response","","html-keyboard-response","41","144029","0.0-1.0-50.0-0.0","0","0","44521","","385","","","68","5","","","1","5","training","adjacent","BA","2","1","P.jpg","N.jpg","0","0","1","",""
"","feedback","","html-keyboard-response","42","145032","0.0-1.0-51.0-0.0","0","0","44521","","null","","","null","5","","","","","","","","","","","","","","","",""
"","ITI","","html-keyboard-response","43","146036","0.0-1.0-54.0","0","0","44521","","null","","","null","5","","","","","","","","","","","","","","","NaN",""
"","S1","","html-keyboard-response","44","146289","0.0-1.0-56.0","0","0","44521","","null","","","null","6","","","","","","","","","","","","","","","",""
"","ISI","","html-keyboard-response","45","147292","0.0-1.0-57.0","0","0","44521","","null","","","null","6","NaN","","","","","","","","","","","","","","",""
"","S2","","html-keyboard-response","46","147546","0.0-1.0-58.0","0","0","44521","","null","","","null","6","","NaN","","","","","","","","","","","","","",""
"","response","","html-keyboard-response","47","147805","0.0-1.0-59.0-0.0","0","0","44521","","258","","","68","6","","","1","6","training","adjacent","DE","4","5","Q.jpg","M.jpg","0","1","0","",""
"","feedback","","html-keyboard-response","48","148809","0.0-1.0-60.0-0.0","0","0","44521","","null","","","null","6","","","","","","","","","","","","","","","",""
"","time_out","","html-keyboard-response","49","150812","0.0-1.0-62.0-0.0","0","0","44521","","null","","","null","6","","","","","","","","","","","","","","","",""
"","ITI","","html-keyboard-response","50","151815","0.0-1.0-63.0","0","0","44521","","null","","","null","6","","","","","","","","","","","","","","","NaN",""
"","S1","","html-keyboard-response","51","152068","0.0-1.0-65.0","0","0","44521","","null","","","null","7","","","","","","","","","","","","","","","",""
"","ISI","","html-keyboard-response","52","153071","0.0-1.0-66.0","0","0","44521","","null","","","null","7","NaN","","","","","","","","","","","","","","",""
"","S2","","html-keyboard-response","53","153324","0.0-1.0-67.0","0","0","44521","","null","","","null","7","","NaN","","","","","","","","","","","","","",""
"","response","","html-keyboard-response","54","153661","0.0-1.0-68.0-0.0","0","0","44521","","336","","","75","7","","","1","7","training","adjacent","AB","1","2","N.jpg","P.jpg","1","1","1","",""
"","feedback","","html-keyboard-response","55","154663","0.0-1.0-69.0-0.0","0","0","44521","","null","","","null","7","","","","","","","","","","","","","","","",""
"","ITI","","html-keyboard-response","56","155667","0.0-1.0-72.0","0","0","44521","","null","","","null","7","","","","","","","","","","","","","","","NaN",""
"","S1","","html-keyboard-response","57","155919","0.0-1.0-74.0","0","0","44521","","null","","","null","8","","","","","","","","","","","","","","","",""
"","ISI","","html-keyboard-response","58","156922","0.0-1.0-75.0","0","0","44521","","null","","","null","8","NaN","","","","","","","","","","","","","","",""
"","S2","","html-keyboard-response","59","157175","0.0-1.0-76.0","0","0","44521","","null","","","null","8","","NaN","","","","","","","","","","","","","",""
"","response","","html-keyboard-response","60","157741","0.0-1.0-77.0-0.0","0","0","44521","","565","","","68","8","","","1","8","training","adjacent","DC","4","3","Q.jpg","O.jpg","0","0","1","",""
"","feedback","","html-keyboard-response","61","158744","0.0-1.0-78.0-0.0","0","0","44521","","null","","","null","8","","","","","","","","","","","","","","","",""
"","ITI","","html-keyboard-response","62","159747","0.0-1.0-81.0","0","0","44521","","null","","","null","8","","","","","","","","","","","","","","","NaN",""
"","S1","","html-keyboard-response","63","160000","0.0-1.0-83.0","0","0","44521","","null","","","null","9","","","","","","","","","","","","","","","",""
"","ISI","","html-keyboard-response","64","161004","0.0-1.0-84.0","0","0","44521","","null","","","null","9","NaN","","","","","","","","","","","","","","",""
"","S2","","html-keyboard-response","65","161257","0.0-1.0-85.0","0","0","44521","","null","","","null","9","","NaN","","","","","","","","","","","","","",""
"","response","","html-keyboard-response","66","161614","0.0-1.0-86.0-0.0","0","0","44521","","354","","","68","9","","","1","9","training","adjacent","FG","6","7","L.jpg","R.jpg","0","1","0","",""
"","feedback","","html-keyboard-response","67","162617","0.0-1.0-87.0-0.0","0","0","44521","","null","","","null","9","","","","","","","","","","","","","","","",""
"","time_out","","html-keyboard-response","68","164621","0.0-1.0-89.0-0.0","0","0","44521","","null","","","null","9","","","","","","","","","","","","","","","",""
"","ITI","","html-keyboard-response","69","165624","0.0-1.0-90.0","0","0","44521","","null","","","null","9","","","","","","","","","","","","","","","NaN",""
"","S1","","html-keyboard-response","70","165877","0.0-1.0-92.0","0","0","44521","","null","","","null","10","","","","","","","","","","","","","","","",""
"","ISI","","html-keyboard-response","71","166880","0.0-1.0-93.0","0","0","44521","","null","","","null","10","NaN","","","","","","","","","","","","","","",""
"","S2","","html-keyboard-response","72","167133","0.0-1.0-94.0","0","0","44521","","null","","","null","10","","NaN","","","","","","","","","","","","","",""
"","response","","html-keyboard-response","73","167373","0.0-1.0-95.0-0.0","0","0","44521","","238","","","75","10","","","1","10","training","adjacent","FG","6","7","L.jpg","R.jpg","1","1","1","",""
"","feedback","","html-keyboard-response","74","168378","0.0-1.0-96.0-0.0","0","0","44521","","null","","","null","10","","","","","","","","","","","","","","","",""
"","ITI","","html-keyboard-response","75","169381","0.0-1.0-99.0","0","0","44521","","null","","","null","10","","","","","","","","","","","","","","","NaN",""
"","S1","","html-keyboard-response","76","169634","0.0-1.0-101.0","0","0","44521","","null","","","null","11","","","","","","","","","","","","","","","",""
"","ISI","","html-keyboard-response","77","170636","0.0-1.0-102.0","0","0","44521","","null","","","null","11","NaN","","","","","","","","","","","","","","",""
"","S2","","html-keyboard-response","78","170889","0.0-1.0-103.0","0","0","44521","","null","","","null","11","","NaN","","","","","","","","","","","","","",""
"","response","","html-keyboard-response","79","171149","0.0-1.0-104.0-0.0","0","0","44521","","258","","","75","11","","","1","11","training","adjacent","ED","5","4","M.jpg","Q.jpg","1","0","0","",""
"","feedback","","html-keyboard-response","80","172152","0.0-1.0-105.0-0.0","0","0","44521","","null","","","null","11","","","","","","","","","","","","","","","",""
"","time_out","","html-keyboard-response","81","174155","0.0-1.0-107.0-0.0","0","0","44521","","null","","","null","11","","","","","","","","","","","","","","","",""
"","ITI","","html-keyboard-response","82","175158","0.0-1.0-108.0","0","0","44521","","null","","","null","11","","","","","","","","","","","","","","","NaN",""
"","S1","","html-keyboard-response","83","175412","0.0-1.0-110.0","0","0","44521","","null","","","null","12","","","","","","","","","","","","","","","",""
"","ISI","","html-keyboard-response","84","176415","0.0-1.0-111.0","0","0","44521","","null","","","null","12","NaN","","","","","","","","","","","","","","",""
"","S2","","html-keyboard-response","85","176668","0.0-1.0-112.0","0","0","44521","","null","","","null","12","","NaN","","","","","","","","","","","","","",""
"","response","","html-keyboard-response","86","176909","0.0-1.0-113.0-0.0","0","0","44521","","240","","","68","12","","","1","12","training","adjacent","CD","3","4","O.jpg","Q.jpg","0","1","0","",""
"","feedback","","html-keyboard-response","87","177912","0.0-1.0-114.0-0.0","0","0","44521","","null","","","null","12","","","","","","","","","","","","","","","",""
"","time_out","","html-keyboard-response","88","179916","0.0-1.0-116.0-0.0","0","0","44521","","null","","","null","12","","","","","","","","","","","","","","","",""
"","ITI","","html-keyboard-response","89","180919","0.0-1.0-117.0","0","0","44521","","null","","","null","12","","","","","","","","","","","","","","","NaN",""
"","S1","","html-keyboard-response","90","181172","0.0-1.0-119.0","0","0","44521","","null","","","null","13","","","","","","","","","","","","","","","",""
"","ISI","","html-keyboard-response","91","182176","0.0-1.0-120.0","0","0","44521","","null","","","null","13","NaN","","","","","","","","","","","","","","",""
"","S2","","html-keyboard-response","92","182430","0.0-1.0-121.0","0","0","44521","","null","","","null","13","","NaN","","","","","","","","","","","","","",""
"","response","","html-keyboard-response","93","182797","0.0-1.0-122.0-0.0","0","0","44521","","365","","","75","13","","","1","13","training","adjacent","BA","2","1","P.jpg","N.jpg","1","0","0","",""
"","feedback","","html-keyboard-response","94","183801","0.0-1.0-123.0-0.0","0","0","44521","","null","","","null","13","","","","","","","","","","","","","","","",""
"","time_out","","html-keyboard-response","95","185804","0.0-1.0-125.0-0.0","0","0","44521","","null","","","null","13","","","","","","","","","","","","","","","",""
"","ITI","","html-keyboard-response","96","186807","0.0-1.0-126.0","0","0","44521","","null","","","null","13","","","","","","","","","","","","","","","NaN",""
"","S1","","html-keyboard-response","97","187060","0.0-1.0-128.0","0","0","44521","","null","","","null","14","","","","","","","","","","","","","","","",""
"","ISI","","html-keyboard-response","98","188062","0.0-1.0-129.0","0","0","44521","","null","","","null","14","NaN","","","","","","","","","","","","","","",""
"","S2","","html-keyboard-response","99","188316","0.0-1.0-130.0","0","0","44521","","null","","","null","14","","NaN","","","","","","","","","","","","","",""
"","response","","html-keyboard-response","100","188573","0.0-1.0-131.0-0.0","0","0","44521","","256","","","68","14","","","1","14","training","adjacent","GF","7","6","R.jpg","L.jpg","0","0","1","",""
"","feedback","","html-keyboard-response","101","189576","0.0-1.0-132.0-0.0","0","0","44521","","null","","","null","14","","","","","","","","","","","","","","","",""
"","ITI","","html-keyboard-response","102","190579","0.0-1.0-135.0","0","0","44521","","null","","","null","14","","","","","","","","","","","","","","","NaN",""
"","S1","","html-keyboard-response","103","190832","0.0-1.0-137.0","0","0","44521","","null","","","null","15","","","","","","","","","","","","","","","",""
"","ISI","","html-keyboard-response","104","191835","0.0-1.0-138.0","0","0","44521","","null","","","null","15","NaN","","","","","","","","","","","","","","",""
"","S2","","html-keyboard-response","105","192089","0.0-1.0-139.0","0","0","44521","","null","","","null","15","","NaN","","","","","","","","","","","","","",""
"","response","","html-keyboard-response","106","192429","0.0-1.0-140.0-0.0","0","0","44521","","338","","","68","15","","","1","15","training","adjacent","CD","3","4","O.jpg","Q.jpg","0","1","0","",""
"","feedback","","html-keyboard-response","107","193433","0.0-1.0-141.0-0.0","0","0","44521","","null","","","null","15","","","","","","","","","","","","","","","",""
"","time_out","","html-keyboard-response","108","195436","0.0-1.0-143.0-0.0","0","0","44521","","null","","","null","15","","","","","","","","","","","","","","","",""
"","ITI","","html-keyboard-response","109","196439","0.0-1.0-144.0","0","0","44521","","null","","","null","15","","","","","","","","","","","","","","","NaN",""
"","S1","","html-keyboard-response","110","196692","0.0-1.0-146.0","0","0","44521","","null","","","null","16","","","","","","","","","","","","","","","",""
"","ISI","","html-keyboard-response","111","197694","0.0-1.0-147.0","0","0","44521","","null","","","null","16","NaN","","","","","","","","","","","","","","",""
"","S2","","html-keyboard-response","112","197948","0.0-1.0-148.0","0","0","44521","","null","","","null","16","","NaN","","","","","","","","","","","","","",""
"","response","","html-keyboard-response","113","198365","0.0-1.0-149.0-0.0","0","0","44521","","414","","","68","16","","","1","16","training","adjacent","DE","4","5","Q.jpg","M.jpg","0","1","0","",""
"","feedback","","html-keyboard-response","114","199368","0.0-1.0-150.0-0.0","0","0","44521","","null","","","null","16","","","","","","","","","","","","","","","",""
"","time_out","","html-keyboard-response","115","201371","0.0-1.0-152.0-0.0","0","0","44521","","null","","","null","16","","","","","","","","","","","","","","","",""
"","ITI","","html-keyboard-response","116","202374","0.0-1.0-153.0","0","0","44521","","null","","","null","16","","","","","","","","","","","","","","","NaN",""
"","S1","","html-keyboard-response","117","202628","0.0-1.0-155.0","0","0","44521","","null","","","null","17","","","","","","","","","","","","","","","",""
"","ISI","","html-keyboard-response","118","203631","0.0-1.0-156.0","0","0","44521","","null","","","null","17","NaN","","","","","","","","","","","","","","",""
"","S2","","html-keyboard-response","119","203884","0.0-1.0-157.0","0","0","44521","","null","","","null","17","","NaN","","","","","","","","","","","","","",""
"","response","","html-keyboard-response","120","204173","0.0-1.0-158.0-0.0","0","0","44521","","287","","","68","17","","","1","17","training","adjacent","DC","4","3","Q.jpg","O.jpg","0","0","1","",""
"","feedback","","html-keyboard-response","121","205176","0.0-1.0-159.0-0.0","0","0","44521","","null","","","null","17","","","","","","","","","","","","","","","",""
"","ITI","","html-keyboard-response","122","206179","0.0-1.0-162.0","0","0","44521","","null","","","null","17","","","","","","","","","","","","","","","NaN",""
"","S1","","html-keyboard-response","123","206432","0.0-1.0-164.0","0","0","44521","","null","","","null","18","","","","","","","","","","","","","","","",""
"","ISI","","html-keyboard-response","124","207435","0.0-1.0-165.0","0","0","44521","","null","","","null","18","NaN","","","","","","","","","","","","","","",""
"","S2","","html-keyboard-response","125","207688","0.0-1.0-166.0","0","0","44521","","null","","","null","18","","NaN","","","","","","","","","","","","","",""
"","response","","html-keyboard-response","126","208237","0.0-1.0-167.0-0.0","0","0","44521","","547","","","68","18","","","1","18","training","adjacent","AB","1","2","N.jpg","P.jpg","0","1","0","",""
"","feedback","","html-keyboard-response","127","209240","0.0-1.0-168.0-0.0","0","0","44521","","null","","","null","18","","","","","","","","","","","","","","","",""
"","time_out","","html-keyboard-response","128","211243","0.0-1.0-170.0-0.0","0","0","44521","","null","","","null","18","","","","","","","","","","","","","","","",""
"","ITI","","html-keyboard-response","129","212246","0.0-1.0-171.0","0","0","44521","","null","","","null","18","","","","","","","","","","","","","","","NaN",""
"","S1","","html-keyboard-response","130","212500","0.0-1.0-173.0","0","0","44521","","null","","","null","19","","","","","","","","","","","","","","","",""
"","ISI","","html-keyboard-response","131","213503","0.0-1.0-174.0","0","0","44521","","null","","","null","19","NaN","","","","","","","","","","","","","","",""
"","S2","","html-keyboard-response","132","213757","0.0-1.0-175.0","0","0","44521","","null","","","null","19","","NaN","","","","","","","","","","","","","",""
"","response","","html-keyboard-response","133","214269","0.0-1.0-176.0-0.0","0","0","44521","","509","","","68","19","","","1","19","training","adjacent","GF","7","6","R.jpg","L.jpg","0","0","1","",""
"","feedback","","html-keyboard-response","134","215272","0.0-1.0-177.0-0.0","0","0","44521","","null","","","null","19","","","","","","","","","","","","","","","",""
"","ITI","","html-keyboard-response","135","216274","0.0-1.0-180.0","0","0","44521","","null","","","null","19","","","","","","","","","","","","","","","NaN",""
"","S1","","html-keyboard-response","136","216528","0.0-1.0-182.0","0","0","44521","","null","","","null","20","","","","","","","","","","","","","","","",""
"","ISI","","html-keyboard-response","137","217531","0.0-1.0-183.0","0","0","44521","","null","","","null","20","NaN","","","","","","","","","","","","","","",""
"","S2","","html-keyboard-response","138","217784","0.0-1.0-184.0","0","0","44521","","null","","","null","20","","NaN","","","","","","","","","","","","","",""
"","response","","html-keyboard-response","139","218141","0.0-1.0-185.0-0.0","0","0","44521","","354","","","68","20","","","1","20","training","adjacent","GF","7","6","R.jpg","L.jpg","0","0","1","",""
"","feedback","","html-keyboard-response","140","219144","0.0-1.0-186.0-0.0","0","0","44521","","null","","","null","20","","","","","","","","","","","","","","","",""
"","ITI","","html-keyboard-response","141","220147","0.0-1.0-189.0","0","0","44521","","null","","","null","20","","","","","","","","","","","","","","","NaN",""
"","S1","","html-keyboard-response","142","220400","0.0-1.0-191.0","0","0","44521","","null","","","null","21","","","","","","","","","","","","","","","",""
"","ISI","","html-keyboard-response","143","221403","0.0-1.0-192.0","0","0","44521","","null","","","null","21","NaN","","","","","","","","","","","","","","",""
"","S2","","html-keyboard-response","144","221656","0.0-1.0-193.0","0","0","44521","","null","","","null","21","","NaN","","","","","","","","","","","","","",""
"","response","","html-keyboard-response","145","221965","0.0-1.0-194.0-0.0","0","0","44521","","306","","","68","21","","","1","21","training","adjacent","DE","4","5","Q.jpg","M.jpg","0","1","0","",""
"","feedback","","html-keyboard-response","146","222968","0.0-1.0-195.0-0.0","0","0","44521","","null","","","null","21","","","","","","","","","","","","","","","",""
"","time_out","","html-keyboard-response","147","224972","0.0-1.0-197.0-0.0","0","0","44521","","null","","","null","21","","","","","","","","","","","","","","","",""
"","ITI","","html-keyboard-response","148","225975","0.0-1.0-198.0","0","0","44521","","null","","","null","21","","","","","","","","","","","","","","","NaN",""
"","S1","","html-keyboard-response","149","226228","0.0-1.0-200.0","0","0","44521","","null","","","null","22","","","","","","","","","","","","","","","",""
"","ISI","","html-keyboard-response","150","227230","0.0-1.0-201.0","0","0","44521","","null","","","null","22","NaN","","","","","","","","","","","","","","",""
"","S2","","html-keyboard-response","151","227483","0.0-1.0-202.0","0","0","44521","","null","","","null","22","","NaN","","","","","","","","","","","","","",""
"","response","","html-keyboard-response","152","227900","0.0-1.0-203.0-0.0","0","0","44521","","415","","","68","22","","","1","22","training","adjacent","DC","4","3","Q.jpg","O.jpg","0","0","1","",""
"","feedback","","html-keyboard-response","153","228904","0.0-1.0-204.0-0.0","0","0","44521","","null","","","null","22","","","","","","","","","","","","","","","",""
"","ITI","","html-keyboard-response","154","229907","0.0-1.0-207.0","0","0","44521","","null","","","null","22","","","","","","","","","","","","","","","NaN",""
"","S1","","html-keyboard-response","155","230160","0.0-1.0-209.0","0","0","44521","","null","","","null","23","","","","","","","","","","","","","","","",""
"","ISI","","html-keyboard-response","156","231163","0.0-1.0-210.0","0","0","44521","","null","","","null","23","NaN","","","","","","","","","","","","","","",""
"","S2","","html-keyboard-response","157","231417","0.0-1.0-211.0","0","0","44521","","null","","","null","23","","NaN","","","","","","","","","","","","","",""
"","response","","html-keyboard-response","158","231788","0.0-1.0-212.0-0.0","0","0","44521","","370","","","68","23","","","1","23","training","adjacent","FG","6","7","L.jpg","R.jpg","0","1","0","",""
"","feedback","","html-keyboard-response","159","232793","0.0-1.0-213.0-0.0","0","0","44521","","null","","","null","23","","","","","","","","","","","","","","","",""
"","time_out","","html-keyboard-response","160","234796","0.0-1.0-215.0-0.0","0","0","44521","","null","","","null","23","","","","","","","","","","","","","","","",""
"","ITI","","html-keyboard-response","161","235799","0.0-1.0-216.0","0","0","44521","","null","","","null","23","","","","","","","","","","","","","","","NaN",""
"","S1","","html-keyboard-response","162","236053","0.0-1.0-218.0","0","0","44521","","null","","","null","24","","","","","","","","","","","","","","","",""
"","ISI","","html-keyboard-response","163","237055","0.0-1.0-219.0","0","0","44521","","null","","","null","24","NaN","","","","","","","","","","","","","","",""
"","S2","","html-keyboard-response","164","237308","0.0-1.0-220.0","0","0","44521","","null","","","null","24","","NaN","","","","","","","","","","","","","",""
"","response","","html-keyboard-response","165","237660","0.0-1.0-221.0-0.0","0","0","44521","","350","","","68","24","","","1","24","training","adjacent","EF","5","6","M.jpg","L.jpg","0","1","0","",""
"","feedback","","html-keyboard-response","166","238664","0.0-1.0-222.0-0.0","0","0","44521","","null","","","null","24","","","","","","","","","","","","","","","",""
"","time_out","","html-keyboard-response","167","240667","0.0-1.0-224.0-0.0","0","0","44521","","null","","","null","24","","","","","","","","","","","","","","","",""
"","ITI","","html-keyboard-response","168","241671","0.0-1.0-225.0","0","0","44521","","null","","","null","24","","","","","","","","","","","","","","","NaN",""
"","S1","","html-keyboard-response","169","241925","0.0-1.0-227.0","0","0","44521","","null","","","null","25","","","","","","","","","","","","","","","",""
"","ISI","","html-keyboard-response","170","242928","0.0-1.0-228.0","0","0","44521","","null","","","null","25","NaN","","","","","","","","","","","","","","",""
"","S2","","html-keyboard-response","171","243181","0.0-1.0-229.0","0","0","44521","","null","","","null","25","","NaN","","","","","","","","","","","","","",""
"","response","","html-keyboard-response","172","243532","0.0-1.0-230.0-0.0","0","0","44521","","350","","","75","25","","","1","25","training","adjacent","FE","6","5","L.jpg","M.jpg","1","0","0","",""
"","feedback","","html-keyboard-response","173","244536","0.0-1.0-231.0-0.0","0","0","44521","","null","","","null","25","","","","","","","","","","","","","","","",""
"","time_out","","html-keyboard-response","174","246539","0.0-1.0-233.0-0.0","0","0","44521","","null","","","null","25","","","","","","","","","","","","","","","",""
"","ITI","","html-keyboard-response","175","247542","0.0-1.0-234.0","0","0","44521","","null","","","null","25","","","","","","","","","","","","","","","NaN",""
"","S1","","html-keyboard-response","176","247795","0.0-1.0-236.0","0","0","44521","","null","","","null","26","","","","","","","","","","","","","","","",""
"","ISI","","html-keyboard-response","177","248799","0.0-1.0-237.0","0","0","44521","","null","","","null","26","NaN","","","","","","","","","","","","","","",""
"","S2","","html-keyboard-response","178","249052","0.0-1.0-238.0","0","0","44521","","null","","","null","26","","NaN","","","","","","","","","","","","","",""
"","response","","html-keyboard-response","179","249452","0.0-1.0-239.0-0.0","0","0","44521","","398","","","68","26","","","1","26","training","adjacent","BC","2","3","P.jpg","O.jpg","0","1","0","",""
"","feedback","","html-keyboard-response","180","250455","0.0-1.0-240.0-0.0","0","0","44521","","null","","","null","26","","","","","","","","","","","","","","","",""
"","time_out","","html-keyboard-response","181","252458","0.0-1.0-242.0-0.0","0","0","44521","","null","","","null","26","","","","","","","","","","","","","","","",""
"","ITI","","html-keyboard-response","182","253462","0.0-1.0-243.0","0","0","44521","","null","","","null","26","","","","","","","","","","","","","","","NaN",""
"","S1","","html-keyboard-response","183","253715","0.0-1.0-245.0","0","0","44521","","null","","","null","27","","","","","","","","","","","","","","","",""
"","ISI","","html-keyboard-response","184","254718","0.0-1.0-246.0","0","0","44521","","null","","","null","27","NaN","","","","","","","","","","","","","","",""
"","S2","","html-keyboard-response","185","254971","0.0-1.0-247.0","0","0","44521","","null","","","null","27","","NaN","","","","","","","","","","","","","",""
"","response","","html-keyboard-response","186","255085","0.0-1.0-248.0-0.0","0","0","44521","","112","","","75","27","","","1","27","training","adjacent","BC","2","3","P.jpg","O.jpg","1","1","1","",""
"","feedback","","html-keyboard-response","187","256088","0.0-1.0-249.0-0.0","0","0","44521","","null","","","null","27","","","","","","","","","","","","","","","",""
"","ITI","","html-keyboard-response","188","257090","0.0-1.0-252.0","0","0","44521","","null","","","null","27","","","","","","","","","","","","","","","NaN",""
"","S1","","html-keyboard-response","189","257343","0.0-1.0-254.0","0","0","44521","","null","","","null","28","","","","","","","","","","","","","","","",""
"","ISI","","html-keyboard-response","190","258346","0.0-1.0-255.0","0","0","44521","","null","","","null","28","NaN","","","","","","","","","","","","","","",""
"","S2","","html-keyboard-response","191","258599","0.0-1.0-256.0","0","0","44521","","null","","","null","28","","NaN","","","","","","","","","","","","","",""
"","response","","html-keyboard-response","192","258956","0.0-1.0-257.0-0.0","0","0","44521","","355","","","75","28","","","1","28","training","adjacent","DE","4","5","Q.jpg","M.jpg","1","1","1","",""
"","feedback","","html-keyboard-response","193","259960","0.0-1.0-258.0-0.0","0","0","44521","","null","","","null","28","","","","","","","","","","","","","","","",""
"","ITI","","html-keyboard-response","194","260962","0.0-1.0-261.0","0","0","44521","","null","","","null","28","","","","","","","","","","","","","","","NaN",""
"","S1","","html-keyboard-response","195","261216","0.0-1.0-263.0","0","0","44521","","null","","","null","29","","","","","","","","","","","","","","","",""
"","ISI","","html-keyboard-response","196","262219","0.0-1.0-264.0","0","0","44521","","null","","","null","29","NaN","","","","","","","","","","","","","","",""
"","S2","","html-keyboard-response","197","262473","0.0-1.0-265.0","0","0","44521","","null","","","null","29","","NaN","","","","","","","","","","","","","",""
"","response","","html-keyboard-response","198","262908","0.0-1.0-266.0-0.0","0","0","44521","","433","","","75","29","","","1","29","training","adjacent","AB","1","2","N.jpg","P.jpg","1","1","1","",""
"","feedback","","html-keyboard-response","199","263911","0.0-1.0-267.0-0.0","0","0","44521","","null","","","null","29","","","","","","","","","","","","","","","",""
"","ITI","","html-keyboard-response","200","264916","0.0-1.0-270.0","0","0","44521","","null","","","null","29","","","","","","","","","","","","","","","NaN",""
"","S1","","html-keyboard-response","201","265169","0.0-1.0-272.0","0","0","44521","","null","","","null","30","","","","","","","","","","","","","","","",""
"","ISI","","html-keyboard-response","202","266173","0.0-1.0-273.0","0","0","44521","","null","","","null","30","NaN","","","","","","","","","","","","","","",""
"","S2","","html-keyboard-response","203","266426","0.0-1.0-274.0","0","0","44521","","null","","","null","30","","NaN","","","","","","","","","","","","","",""
"","response","","html-keyboard-response","204","266668","0.0-1.0-275.0-0.0","0","0","44521","","240","","","75","30","","","1","30","training","adjacent","CB","3","2","O.jpg","P.jpg","1","0","0","",""
"","feedback","","html-keyboard-response","205","267672","0.0-1.0-276.0-0.0","0","0","44521","","null","","","null","30","","","","","","","","","","","","","","","",""
"","time_out","","html-keyboard-response","206","269676","0.0-1.0-278.0-0.0","0","0","44521","","null","","","null","30","","","","","","","","","","","","","","","",""
"","ITI","","html-keyboard-response","207","270679","0.0-1.0-279.0","0","0","44521","","null","","","null","30","","","","","","","","","","","","","","","NaN",""
"","S1","","html-keyboard-response","208","270931","0.0-1.0-281.0","0","0","44521","","null","","","null","31","","","","","","","","","","","","","","","",""
"","ISI","","html-keyboard-response","209","271935","0.0-1.0-282.0","0","0","44521","","null","","","null","31","NaN","","","","","","","","","","","","","","",""
"","S2","","html-keyboard-response","210","272189","0.0-1.0-283.0","0","0","44521","","null","","","null","31","","NaN","","","","","","","","","","","","","",""
"","response","","html-keyboard-response","211","272540","0.0-1.0-284.0-0.0","0","0","44521","","348","","","68","31","","","1","31","training","adjacent","FG","6","7","L.jpg","R.jpg","0","1","0","",""
"","feedback","","html-keyboard-response","212","273543","0.0-1.0-285.0-0.0","0","0","44521","","null","","","null","31","","","","","","","","","","","","","","","",""
"","time_out","","html-keyboard-response","213","275546","0.0-1.0-287.0-0.0","0","0","44521","","null","","","null","31","","","","","","","","","","","","","","","",""
"","ITI","","html-keyboard-response","214","276549","0.0-1.0-288.0","0","0","44521","","null","","","null","31","","","","","","","","","","","","","","","NaN",""
"","S1","","html-keyboard-response","215","276803","0.0-1.0-290.0","0","0","44521","","null","","","null","32","","","","","","","","","","","","","","","",""
"","ISI","","html-keyboard-response","216","277806","0.0-1.0-291.0","0","0","44521","","null","","","null","32","NaN","","","","","","","","","","","","","","",""
"","S2","","html-keyboard-response","217","278060","0.0-1.0-292.0","0","0","44521","","null","","","null","32","","NaN","","","","","","","","","","","","","",""
"","response","","html-keyboard-response","218","278316","0.0-1.0-293.0-0.0","0","0","44521","","254","","","75","32","","","1","32","training","adjacent","DC","4","3","Q.jpg","O.jpg","1","0","0","",""
"","feedback","","html-keyboard-response","219","279319","0.0-1.0-294.0-0.0","0","0","44521","","null","","","null","32","","","","","","","","","","","","","","","",""
"","time_out","","html-keyboard-response","220","281322","0.0-1.0-296.0-0.0","0","0","44521","","null","","","null","32","","","","","","","","","","","","","","","",""
"","ITI","","html-keyboard-response","221","282326","0.0-1.0-297.0","0","0","44521","","null","","","null","32","","","","","","","","","","","","","","","NaN",""
"","S1","","html-keyboard-response","222","282580","0.0-1.0-299.0","0","0","44521","","null","","","null","33","","","","","","","","","","","","","","","",""
"","ISI","","html-keyboard-response","223","283583","0.0-1.0-300.0","0","0","44521","","null","","","null","33","NaN","","","","","","","","","","","","","","",""
"","S2","","html-keyboard-response","224","283837","0.0-1.0-301.0","0","0","44521","","null","","","null","33","","NaN","","","","","","","","","","","","","",""
"","response","","html-keyboard-response","225","284220","0.0-1.0-302.0-0.0","0","0","44521","","381","","","68","33","","","1","33","training","adjacent","CB","3","2","O.jpg","P.jpg","0","0","1","",""
"","feedback","","html-keyboard-response","226","285224","0.0-1.0-303.0-0.0","0","0","44521","","null","","","null","33","","","","","","","","","","","","","","","",""
"","ITI","","html-keyboard-response","227","286227","0.0-1.0-306.0","0","0","44521","","null","","","null","33","","","","","","","","","","","","","","","NaN",""
"","S1","","html-keyboard-response","228","286479","0.0-1.0-308.0","0","0","44521","","null","","","null","34","","","","","","","","","","","","","","","",""
"","ISI","","html-keyboard-response","229","287482","0.0-1.0-309.0","0","0","44521","","null","","","null","34","NaN","","","","","","","","","","","","","","",""
"","S2","","html-keyboard-response","230","287736","0.0-1.0-310.0","0","0","44521","","null","","","null","34","","NaN","","","","","","","","","","","","","",""
"","response","","html-keyboard-response","231","288172","0.0-1.0-311.0-0.0","0","0","44521","","434","","","75","34","","","1","34","training","adjacent","BA","2","1","P.jpg","N.jpg","1","0","0","",""
"","feedback","","html-keyboard-response","232","289175","0.0-1.0-312.0-0.0","0","0","44521","","null","","","null","34","","","","","","","","","","","","","","","",""
"","time_out","","html-keyboard-response","233","291178","0.0-1.0-314.0-0.0","0","0","44521","","null","","","null","34","","","","","","","","","","","","","","","",""
"","ITI","","html-keyboard-response","234","292181","0.0-1.0-315.0","0","0","44521","","null","","","null","34","","","","","","","","","","","","","","","NaN",""
"","S1","","html-keyboard-response","235","292433","0.0-1.0-317.0","0","0","44521","","null","","","null","35","","","","","","","","","","","","","","","",""
"","ISI","","html-keyboard-response","236","293436","0.0-1.0-318.0","0","0","44521","","null","","","null","35","NaN","","","","","","","","","","","","","","",""
"","S2","","html-keyboard-response","237","293691","0.0-1.0-319.0","0","0","44521","","null","","","null","35","","NaN","","","","","","","","","","","","","",""
"","response","","html-keyboard-response","238","294492","0.0-1.0-320.0-0.0","0","0","44521","","799","","","75","35","","","1","35","training","adjacent","ED","5","4","M.jpg","Q.jpg","1","0","0","",""
"","feedback","","html-keyboard-response","239","295496","0.0-1.0-321.0-0.0","0","0","44521","","null","","","null","35","","","","","","","","","","","","","","","",""
"","time_out","","html-keyboard-response","240","297499","0.0-1.0-323.0-0.0","0","0","44521","","null","","","null","35","","","","","","","","","","","","","","","",""
"","ITI","","html-keyboard-response","241","298501","0.0-1.0-324.0","0","0","44521","","null","","","null","35","","","","","","","","","","","","","","","NaN",""
"","S1","","html-keyboard-response","242","298755","0.0-1.0-326.0","0","0","44521","","null","","","null","36","","","","","","","","","","","","","","","",""
"","ISI","","html-keyboard-response","243","299759","0.0-1.0-327.0","0","0","44521","","null","","","null","36","NaN","","","","","","","","","","","","","","",""
"","S2","","html-keyboard-response","244","300012","0.0-1.0-328.0","0","0","44521","","null","","","null","36","","NaN","","","","","","","","","","","","","",""
"","response","","html-keyboard-response","245","300908","0.0-1.0-329.0-0.0","0","0","44521","","893","","","68","36","","","1","36","training","adjacent","EF","5","6","M.jpg","L.jpg","0","1","0","",""
"","feedback","","html-keyboard-response","246","301911","0.0-1.0-330.0-0.0","0","0","44521","","null","","","null","36","","","","","","","","","","","","","","","",""
"","time_out","","html-keyboard-response","247","303913","0.0-1.0-332.0-0.0","0","0","44521","","null","","","null","36","","","","","","","","","","","","","","","",""
"","ITI","","html-keyboard-response","248","304916","0.0-1.0-333.0","0","0","44521","","null","","","null","36","","","","","","","","","","","","","","","NaN",""
"","S1","","html-keyboard-response","249","305170","0.0-1.0-335.0","0","0","44521","","null","","","null","37","","","","","","","","","","","","","","","",""
"","ISI","","html-keyboard-response","250","306172","0.0-1.0-336.0","0","0","44521","","null","","","null","37","NaN","","","","","","","","","","","","","","",""
"","S2","","html-keyboard-response","251","306426","0.0-1.0-337.0","0","0","44521","","null","","","null","37","","NaN","","","","","","","","","","","","","",""
"","response","","html-keyboard-response","252","306892","0.0-1.0-338.0-0.0","0","0","44521","","464","","","68","37","","","1","37","training","adjacent","CD","3","4","O.jpg","Q.jpg","0","1","0","",""
"","feedback","","html-keyboard-response","253","307895","0.0-1.0-339.0-0.0","0","0","44521","","null","","","null","37","","","","","","","","","","","","","","","",""
"","time_out","","html-keyboard-response","254","309899","0.0-1.0-341.0-0.0","0","0","44521","","null","","","null","37","","","","","","","","","","","","","","","",""
"","ITI","","html-keyboard-response","255","310902","0.0-1.0-342.0","0","0","44521","","null","","","null","37","","","","","","","","","","","","","","","NaN",""
"","S1","","html-keyboard-response","256","311155","0.0-1.0-344.0","0","0","44521","","null","","","null","38","","","","","","","","","","","","","","","",""
"","ISI","","html-keyboard-response","257","312158","0.0-1.0-345.0","0","0","44521","","null","","","null","38","NaN","","","","","","","","","","","","","","",""
"","S2","","html-keyboard-response","258","312412","0.0-1.0-346.0","0","0","44521","","null","","","null","38","","NaN","","","","","","","","","","","","","",""
"","response","","html-keyboard-response","259","312828","0.0-1.0-347.0-0.0","0","0","44521","","414","","","75","38","","","1","38","training","adjacent","CD","3","4","O.jpg","Q.jpg","1","1","1","",""
"","feedback","","html-keyboard-response","260","313831","0.0-1.0-348.0-0.0","0","0","44521","","null","","","null","38","","","","","","","","","","","","","","","",""
"","ITI","","html-keyboard-response","261","314834","0.0-1.0-351.0","0","0","44521","","null","","","null","38","","","","","","","","","","","","","","","NaN",""
"","S1","","html-keyboard-response","262","315087","0.0-1.0-353.0","0","0","44521","","null","","","null","39","","","","","","","","","","","","","","","",""
"","ISI","","html-keyboard-response","263","316091","0.0-1.0-354.0","0","0","44521","","null","","","null","39","NaN","","","","","","","","","","","","","","",""
"","S2","","html-keyboard-response","264","316344","0.0-1.0-355.0","0","0","44521","","null","","","null","39","","NaN","","","","","","","","","","","","","",""
"","response","","html-keyboard-response","265","316795","0.0-1.0-356.0-0.0","0","0","44521","","450","","","75","39","","","1","39","training","adjacent","BC","2","3","P.jpg","O.jpg","1","1","1","",""
"","feedback","","html-keyboard-response","266","317800","0.0-1.0-357.0-0.0","0","0","44521","","null","","","null","39","","","","","","","","","","","","","","","",""
"","ITI","","html-keyboard-response","267","318802","0.0-1.0-360.0","0","0","44521","","null","","","null","39","","","","","","","","","","","","","","","NaN",""
"","S1","","html-keyboard-response","268","319055","0.0-1.0-362.0","0","0","44521","","null","","","null","40","","","","","","","","","","","","","","","",""
"","ISI","","html-keyboard-response","269","320058","0.0-1.0-363.0","0","0","44521","","null","","","null","40","NaN","","","","","","","","","","","","","","",""
"","S2","","html-keyboard-response","270","320312","0.0-1.0-364.0","0","0","44521","","null","","","null","40","","NaN","","","","","","","","","","","","","",""
"","response","","html-keyboard-response","271","320731","0.0-1.0-365.0-0.0","0","0","44521","","417","","","75","40","","","1","40","training","adjacent","BC","2","3","P.jpg","O.jpg","1","1","1","",""
"","feedback","","html-keyboard-response","272","321735","0.0-1.0-366.0-0.0","0","0","44521","","null","","","null","40","","","","","","","","","","","","","","","",""
"","ITI","","html-keyboard-response","273","322739","0.0-1.0-369.0","0","0","44521","","null","","","null","40","","","","","","","","","","","","","","","NaN",""
"","S1","","html-keyboard-response","274","322991","0.0-1.0-371.0","0","0","44521","","null","","","null","41","","","","","","","","","","","","","","","",""
"","ISI","","html-keyboard-response","275","323995","0.0-1.0-372.0","0","0","44521","","null","","","null","41","NaN","","","","","","","","","","","","","","",""
"","S2","","html-keyboard-response","276","324248","0.0-1.0-373.0","0","0","44521","","null","","","null","41","","NaN","","","","","","","","","","","","","",""
"","response","","html-keyboard-response","277","324683","0.0-1.0-374.0-0.0","0","0","44521","","433","","","75","41","","","1","41","training","adjacent","CB","3","2","O.jpg","P.jpg","1","0","0","",""
"","feedback","","html-keyboard-response","278","325687","0.0-1.0-375.0-0.0","0","0","44521","","null","","","null","41","","","","","","","","","","","","","","","",""
"","time_out","","html-keyboard-response","279","327691","0.0-1.0-377.0-0.0","0","0","44521","","null","","","null","41","","","","","","","","","","","","","","","",""
"","ITI","","html-keyboard-response","280","328693","0.0-1.0-378.0","0","0","44521","","null","","","null","41","","","","","","","","","","","","","","","NaN",""
"","S1","","html-keyboard-response","281","328947","0.0-1.0-380.0","0","0","44521","","null","","","null","42","","","","","","","","","","","","","","","",""
"","ISI","","html-keyboard-response","282","329950","0.0-1.0-381.0","0","0","44521","","null","","","null","42","NaN","","","","","","","","","","","","","","",""
"","S2","","html-keyboard-response","283","330203","0.0-1.0-382.0","0","0","44521","","null","","","null","42","","NaN","","","","","","","","","","","","","",""
"","response","","html-keyboard-response","284","330411","0.0-1.0-383.0-0.0","0","0","44521","","206","","","68","42","","","1","42","training","adjacent","FE","6","5","L.jpg","M.jpg","0","0","1","",""
"","feedback","","html-keyboard-response","285","331415","0.0-1.0-384.0-0.0","0","0","44521","","null","","","null","42","","","","","","","","","","","","","","","",""
"","ITI","","html-keyboard-response","286","332417","0.0-1.0-387.0","0","0","44521","","null","","","null","42","","","","","","","","","","","","","","","NaN",""
"","S1","","html-keyboard-response","287","332670","0.0-1.0-389.0","0","0","44521","","null","","","null","43","","","","","","","","","","","","","","","",""
"","ISI","","html-keyboard-response","288","333673","0.0-1.0-390.0","0","0","44521","","null","","","null","43","NaN","","","","","","","","","","","","","","",""
"","S2","","html-keyboard-response","289","333927","0.0-1.0-391.0","0","0","44521","","null","","","null","43","","NaN","","","","","","","","","","","","","",""
"","response","","html-keyboard-response","290","334604","0.0-1.0-392.0-0.0","0","0","44521","","675","","","68","43","","","1","43","training","adjacent","EF","5","6","M.jpg","L.jpg","0","1","0","",""
"","feedback","","html-keyboard-response","291","335607","0.0-1.0-393.0-0.0","0","0","44521","","null","","","null","43","","","","","","","","","","","","","","","",""
"","time_out","","html-keyboard-response","292","337610","0.0-1.0-395.0-0.0","0","0","44521","","null","","","null","43","","","","","","","","","","","","","","","",""
"","ITI","","html-keyboard-response","293","338613","0.0-1.0-396.0","0","0","44521","","null","","","null","43","","","","","","","","","","","","","","","NaN",""
"","S1","","html-keyboard-response","294","338866","0.0-1.0-398.0","0","0","44521","","null","","","null","44","","","","","","","","","","","","","","","",""
"","ISI","","html-keyboard-response","295","339870","0.0-1.0-399.0","0","0","44521","","null","","","null","44","NaN","","","","","","","","","","","","","","",""
"","S2","","html-keyboard-response","296","340123","0.0-1.0-400.0","0","0","44521","","null","","","null","44","","NaN","","","","","","","","","","","","","",""
"","response","","html-keyboard-response","297","340348","0.0-1.0-401.0-0.0","0","0","44521","","222","","","75","44","","","1","44","training","adjacent","CB","3","2","O.jpg","P.jpg","1","0","0","",""
"","feedback","","html-keyboard-response","298","341351","0.0-1.0-402.0-0.0","0","0","44521","","null","","","null","44","","","","","","","","","","","","","","","",""
"","time_out","","html-keyboard-response","299","343353","0.0-1.0-404.0-0.0","0","0","44521","","null","","","null","44","","","","","","","","","","","","","","","",""
"","ITI","","html-keyboard-response","300","344357","0.0-1.0-405.0","0","0","44521","","null","","","null","44","","","","","","","","","","","","","","","NaN",""
"","S1","","html-keyboard-response","301","344611","0.0-1.0-407.0","0","0","44521","","null","","","null","45","","","","","","","","","","","","","","","",""
"","ISI","","html-keyboard-response","302","345614","0.0-1.0-408.0","0","0","44521","","null","","","null","45","NaN","","","","","","","","","","","","","","",""
"","S2","","html-keyboard-response","303","345867","0.0-1.0-409.0","0","0","44521","","null","","","null","45","","NaN","","","","","","","","","","","","","",""
"","response","","html-keyboard-response","304","346092","0.0-1.0-410.0-0.0","0","0","44521","","223","","","68","45","","","1","45","training","adjacent","ED","5","4","M.jpg","Q.jpg","0","0","1","",""
"","feedback","","html-keyboard-response","305","347096","0.0-1.0-411.0-0.0","0","0","44521","","null","","","null","45","","","","","","","","","","","","","","","",""
"","ITI","","html-keyboard-response","306","348098","0.0-1.0-414.0","0","0","44521","","null","","","null","45","","","","","","","","","","","","","","","NaN",""
"","S1","","html-keyboard-response","307","348351","0.0-1.0-416.0","0","0","44521","","null","","","null","46","","","","","","","","","","","","","","","",""
"","ISI","","html-keyboard-response","308","349354","0.0-1.0-417.0","0","0","44521","","null","","","null","46","NaN","","","","","","","","","","","","","","",""
"","S2","","html-keyboard-response","309","349608","0.0-1.0-418.0","0","0","44521","","null","","","null","46","","NaN","","","","","","","","","","","","","",""
"","response","","html-keyboard-response","310","350076","0.0-1.0-419.0-0.0","0","0","44521","","466","","","68","46","","","1","46","training","adjacent","AB","1","2","N.jpg","P.jpg","0","1","0","",""
"","feedback","","html-keyboard-response","311","351079","0.0-1.0-420.0-0.0","0","0","44521","","null","","","null","46","","","","","","","","","","","","","","","",""
"","time_out","","html-keyboard-response","312","353081","0.0-1.0-422.0-0.0","0","0","44521","","null","","","null","46","","","","","","","","","","","","","","","",""
"","ITI","","html-keyboard-response","313","354084","0.0-1.0-423.0","0","0","44521","","null","","","null","46","","","","","","","","","","","","","","","NaN",""
"","S1","","html-keyboard-response","314","354337","0.0-1.0-425.0","0","0","44521","","null","","","null","47","","","","","","","","","","","","","","","",""
"","ISI","","html-keyboard-response","315","355339","0.0-1.0-426.0","0","0","44521","","null","","","null","47","NaN","","","","","","","","","","","","","","",""
"","S2","","html-keyboard-response","316","355592","0.0-1.0-427.0","0","0","44521","","null","","","null","47","","NaN","","","","","","","","","","","","","",""
"","response","","html-keyboard-response","317","355756","0.0-1.0-428.0-0.0","0","0","44521","","161","","","75","47","","","1","47","training","adjacent","FE","6","5","L.jpg","M.jpg","1","0","0","",""
"","feedback","","html-keyboard-response","318","356760","0.0-1.0-429.0-0.0","0","0","44521","","null","","","null","47","","","","","","","","","","","","","","","",""
"","time_out","","html-keyboard-response","319","358763","0.0-1.0-431.0-0.0","0","0","44521","","null","","","null","47","","","","","","","","","","","","","","","",""
"","ITI","","html-keyboard-response","320","359766","0.0-1.0-432.0","0","0","44521","","null","","","null","47","","","","","","","","","","","","","","","NaN",""
"","block_over","","html-keyboard-response","321","363708","0.0-1.0-433.0-0.0","0","0","44521","","3938","","","32","47","","","","","","","","","","","","","","","",""
"","S1","","html-keyboard-response","322","363961","0.0-1.0-434.0","0","0","44521","","null","","","null","48","","","","","","","","","","","","","","","",""
"","ISI","","html-keyboard-response","323","364964","0.0-1.0-435.0","0","0","44521","","null","","","null","48","NaN","","","","","","","","","","","","","","",""
"","S2","","html-keyboard-response","324","365217","0.0-1.0-436.0","0","0","44521","","null","","","null","48","","NaN","","","","","","","","","","","","","",""
"","response","","html-keyboard-response","325","365627","0.0-1.0-437.0-0.0","0","0","44521","","408","","","75","48","","","2","48","training","adjacent","CB","3","2","O.jpg","P.jpg","1","0","0","",""
"","feedback","","html-keyboard-response","326","366631","0.0-1.0-438.0-0.0","0","0","44521","","null","","","null","48","","","","","","","","","","","","","","","",""
"","time_out","","html-keyboard-response","327","368634","0.0-1.0-440.0-0.0","0","0","44521","","null","","","null","48","","","","","","","","","","","","","","","",""
"","ITI","","html-keyboard-response","328","369637","0.0-1.0-441.0","0","0","44521","","null","","","null","48","","","","","","","","","","","","","","","NaN",""
"","S1","","html-keyboard-response","329","369889","0.0-1.0-443.0","0","0","44521","","null","","","null","49","","","","","","","","","","","","","","","",""
"","ISI","","html-keyboard-response","330","370893","0.0-1.0-444.0","0","0","44521","","null","","","null","49","NaN","","","","","","","","","","","","","","",""
"","S2","","html-keyboard-response","331","371146","0.0-1.0-445.0","0","0","44521","","null","","","null","49","","NaN","","","","","","","","","","","","","",""
"","response","","html-keyboard-response","332","371467","0.0-1.0-446.0-0.0","0","0","44521","","319","","","68","49","","","2","49","training","adjacent","ED","5","4","M.jpg","Q.jpg","0","0","1","",""
"","feedback","","html-keyboard-response","333","372471","0.0-1.0-447.0-0.0","0","0","44521","","null","","","null","49","","","","","","","","","","","","","","","",""
"","ITI","","html-keyboard-response","334","373473","0.0-1.0-450.0","0","0","44521","","null","","","null","49","","","","","","","","","","","","","","","NaN",""
"","S1","","html-keyboard-response","335","373727","0.0-1.0-452.0","0","0","44521","","null","","","null","50","","","","","","","","","","","","","","","",""
"","ISI","","html-keyboard-response","336","374731","0.0-1.0-453.0","0","0","44521","","null","","","null","50","NaN","","","","","","","","","","","","","","",""
"","S2","","html-keyboard-response","337","374984","0.0-1.0-454.0","0","0","44521","","null","","","null","50","","NaN","","","","","","","","","","","","","",""
"","response","","html-keyboard-response","338","375835","0.0-1.0-455.0-0.0","0","0","44521","","849","","","68","50","","","2","50","training","adjacent","FE","6","5","L.jpg","M.jpg","0","0","1","",""
"","feedback","","html-keyboard-response","339","376839","0.0-1.0-456.0-0.0","0","0","44521","","null","","","null","50","","","","","","","","","","","","","","","",""
"","ITI","","html-keyboard-response","340","377842","0.0-1.0-459.0","0","0","44521","","null","","","null","50","","","","","","","","","","","","","","","NaN",""
"","S1","","html-keyboard-response","341","378095","0.0-1.0-461.0","0","0","44521","","null","","","null","51","","","","","","","","","","","","","","","",""
"","ISI","","html-keyboard-response","342","379098","0.0-1.0-462.0","0","0","44521","","null","","","null","51","NaN","","","","","","","","","","","","","","",""
"","S2","","html-keyboard-response","343","379352","0.0-1.0-463.0","0","0","44521","","null","","","null","51","","NaN","","","","","","","","","","","","","",""
"","response","","html-keyboard-response","344","379820","0.0-1.0-464.0-0.0","0","0","44521","","467","","","68","51","","","2","51","training","adjacent","BC","2","3","P.jpg","O.jpg","0","1","0","",""
"","feedback","","html-keyboard-response","345","380824","0.0-1.0-465.0-0.0","0","0","44521","","null","","","null","51","","","","","","","","","","","","","","","",""
"","time_out","","html-keyboard-response","346","382826","0.0-1.0-467.0-0.0","0","0","44521","","null","","","null","51","","","","","","","","","","","","","","","",""
"","ITI","","html-keyboard-response","347","383830","0.0-1.0-468.0","0","0","44521","","null","","","null","51","","","","","","","","","","","","","","","NaN",""
"","S1","","html-keyboard-response","348","384083","0.0-1.0-470.0","0","0","44521","","null","","","null","52","","","","","","","","","","","","","","","",""
"","ISI","","html-keyboard-response","349","385086","0.0-1.0-471.0","0","0","44521","","null","","","null","52","NaN","","","","","","","","","","","","","","",""
"","S2","","html-keyboard-response","350","385340","0.0-1.0-472.0","0","0","44521","","null","","","null","52","","NaN","","","","","","","","","","","","","",""
"","response","","html-keyboard-response","351","385805","0.0-1.0-473.0-0.0","0","0","44521","","462","","","75","52","","","2","52","training","adjacent","CD","3","4","O.jpg","Q.jpg","1","1","1","",""
"","feedback","","html-keyboard-response","352","386808","0.0-1.0-474.0-0.0","0","0","44521","","null","","","null","52","","","","","","","","","","","","","","","",""
"","ITI","","html-keyboard-response","353","387811","0.0-1.0-477.0","0","0","44521","","null","","","null","52","","","","","","","","","","","","","","","NaN",""
"","S1","","html-keyboard-response","354","388064","0.0-1.0-479.0","0","0","44521","","null","","","null","53","","","","","","","","","","","","","","","",""
"","ISI","","html-keyboard-response","355","389067","0.0-1.0-480.0","0","0","44521","","null","","","null","53","NaN","","","","","","","","","","","","","","",""
"","S2","","html-keyboard-response","356","389321","0.0-1.0-481.0","0","0","44521","","null","","","null","53","","NaN","","","","","","","","","","","","","",""
"","response","","html-keyboard-response","357","389740","0.0-1.0-482.0-0.0","0","0","44521","","417","","","75","53","","","2","53","training","adjacent","DE","4","5","Q.jpg","M.jpg","1","1","1","",""
"","feedback","","html-keyboard-response","358","390743","0.0-1.0-483.0-0.0","0","0","44521","","null","","","null","53","","","","","","","","","","","","","","","",""
"","ITI","","html-keyboard-response","359","391746","0.0-1.0-486.0","0","0","44521","","null","","","null","53","","","","","","","","","","","","","","","NaN",""
"","S1","","html-keyboard-response","360","392000","0.0-1.0-488.0","0","0","44521","","null","","","null","54","","","","","","","","","","","","","","","",""
"","ISI","","html-keyboard-response","361","393002","0.0-1.0-489.0","0","0","44521","","null","","","null","54","NaN","","","","","","","","","","","","","","",""
"","S2","","html-keyboard-response","362","393256","0.0-1.0-490.0","0","0","44521","","null","","","null","54","","NaN","","","","","","","","","","","","","",""
"","response","","html-keyboard-response","363","393643","0.0-1.0-491.0-0.0","0","0","44521","","384","","","75","54","","","2","54","training","adjacent","CB","3","2","O.jpg","P.jpg","1","0","0","",""
"","feedback","","html-keyboard-response","364","394647","0.0-1.0-492.0-0.0","0","0","44521","","null","","","null","54","","","","","","","","","","","","","","","",""
"","time_out","","html-keyboard-response","365","396650","0.0-1.0-494.0-0.0","0","0","44521","","null","","","null","54","","","","","","","","","","","","","","","",""
"","ITI","","html-keyboard-response","366","397653","0.0-1.0-495.0","0","0","44521","","null","","","null","54","","","","","","","","","","","","","","","NaN",""
"","S1","","html-keyboard-response","367","397907","0.0-1.0-497.0","0","0","44521","","null","","","null","55","","","","","","","","","","","","","","","",""
"","ISI","","html-keyboard-response","368","398909","0.0-1.0-498.0","0","0","44521","","null","","","null","55","NaN","","","","","","","","","","","","","","",""
"","S2","","html-keyboard-response","369","399164","0.0-1.0-499.0","0","0","44521","","null","","","null","55","","NaN","","","","","","","","","","","","","",""
"","response","","html-keyboard-response","370","399531","0.0-1.0-500.0-0.0","0","0","44521","","365","","","68","55","","","2","55","training","adjacent","DE","4","5","Q.jpg","M.jpg","0","1","0","",""
"","feedback","","html-keyboard-response","371","400534","0.0-1.0-501.0-0.0","0","0","44521","","null","","","null","55","","","","","","","","","","","","","","","",""
"","time_out","","html-keyboard-response","372","402538","0.0-1.0-503.0-0.0","0","0","44521","","null","","","null","55","","","","","","","","","","","","","","","",""
"","ITI","","html-keyboard-response","373","403541","0.0-1.0-504.0","0","0","44521","","null","","","null","55","","","","","","","","","","","","","","","NaN",""
"","S1","","html-keyboard-response","374","403795","0.0-1.0-506.0","0","0","44521","","null","","","null","56","","","","","","","","","","","","","","","",""
"","ISI","","html-keyboard-response","375","404798","0.0-1.0-507.0","0","0","44521","","null","","","null","56","NaN","","","","","","","","","","","","","","",""
"","S2","","html-keyboard-response","376","405051","0.0-1.0-508.0","0","0","44521","","null","","","null","56","","NaN","","","","","","","","","","","","","",""
"","response","","html-keyboard-response","377","405419","0.0-1.0-509.0-0.0","0","0","44521","","365","","","75","56","","","2","56","training","adjacent","BA","2","1","P.jpg","N.jpg","1","0","0","",""
"","feedback","","html-keyboard-response","378","406423","0.0-1.0-510.0-0.0","0","0","44521","","null","","","null","56","","","","","","","","","","","","","","","",""
"","time_out","","html-keyboard-response","379","408426","0.0-1.0-512.0-0.0","0","0","44521","","null","","","null","56","","","","","","","","","","","","","","","",""
"","ITI","","html-keyboard-response","380","409428","0.0-1.0-513.0","0","0","44521","","null","","","null","56","","","","","","","","","","","","","","","NaN",""
"","S1","","html-keyboard-response","381","409683","0.0-1.0-515.0","0","0","44521","","null","","","null","57","","","","","","","","","","","","","","","",""
"","ISI","","html-keyboard-response","382","410686","0.0-1.0-516.0","0","0","44521","","null","","","null","57","NaN","","","","","","","","","","","","","","",""
"","S2","","html-keyboard-response","383","410940","0.0-1.0-517.0","0","0","44521","","null","","","null","57","","NaN","","","","","","","","","","","","","",""
"","response","","html-keyboard-response","384","411371","0.0-1.0-518.0-0.0","0","0","44521","","428","","","75","57","","","2","57","training","adjacent","FG","6","7","L.jpg","R.jpg","1","1","1","",""
"","feedback","","html-keyboard-response","385","412374","0.0-1.0-519.0-0.0","0","0","44521","","null","","","null","57","","","","","","","","","","","","","","","",""
"","ITI","","html-keyboard-response","386","413378","0.0-1.0-522.0","0","0","44521","","null","","","null","57","","","","","","","","","","","","","","","NaN",""
"","S1","","html-keyboard-response","387","413632","0.0-1.0-524.0","0","0","44521","","null","","","null","58","","","","","","","","","","","","","","","",""
"","ISI","","html-keyboard-response","388","414635","0.0-1.0-525.0","0","0","44521","","null","","","null","58","NaN","","","","","","","","","","","","","","",""
"","S2","","html-keyboard-response","389","414889","0.0-1.0-526.0","0","0","44521","","null","","","null","58","","NaN","","","","","","","","","","","","","",""
"","response","","html-keyboard-response","390","415274","0.0-1.0-527.0-0.0","0","0","44521","","383","","","75","58","","","2","58","training","adjacent","FE","6","5","L.jpg","M.jpg","1","0","0","",""
"","feedback","","html-keyboard-response","391","416278","0.0-1.0-528.0-0.0","0","0","44521","","null","","","null","58","","","","","","","","","","","","","","","",""
"","time_out","","html-keyboard-response","392","418282","0.0-1.0-530.0-0.0","0","0","44521","","null","","","null","58","","","","","","","","","","","","","","","",""
"","ITI","","html-keyboard-response","393","419286","0.0-1.0-531.0","0","0","44521","","null","","","null","58","","","","","","","","","","","","","","","NaN",""
"","S1","","html-keyboard-response","394","419540","0.0-1.0-533.0","0","0","44521","","null","","","null","59","","","","","","","","","","","","","","","",""
"","ISI","","html-keyboard-response","395","420543","0.0-1.0-534.0","0","0","44521","","null","","","null","59","NaN","","","","","","","","","","","","","","",""
"","S2","","html-keyboard-response","396","420795","0.0-1.0-535.0","0","0","44521","","null","","","null","59","","NaN","","","","","","","","","","","","","",""
"","response","","html-keyboard-response","397","420939","0.0-1.0-536.0-0.0","0","0","44521","","141","","","68","59","","","2","59","training","adjacent","DC","4","3","Q.jpg","O.jpg","0","0","1","",""
"","feedback","","html-keyboard-response","398","421943","0.0-1.0-537.0-0.0","0","0","44521","","null","","","null","59","","","","","","","","","","","","","","","",""
"","ITI","","html-keyboard-response","399","422946","0.0-1.0-540.0","0","0","44521","","null","","","null","59","","","","","","","","","","","","","","","NaN",""
"","S1","","html-keyboard-response","400","423200","0.0-1.0-542.0","0","0","44521","","null","","","null","60","","","","","","","","","","","","","","","",""
"","ISI","","html-keyboard-response","401","424203","0.0-1.0-543.0","0","0","44521","","null","","","null","60","NaN","","","","","","","","","","","","","","",""
"","S2","","html-keyboard-response","402","424456","0.0-1.0-544.0","0","0","44521","","null","","","null","60","","NaN","","","","","","","","","","","","","",""
"","response","","html-keyboard-response","403","424923","0.0-1.0-545.0-0.0","0","0","44521","","464","","","68","60","","","2","60","training","adjacent","EF","5","6","M.jpg","L.jpg","0","1","0","",""
"","feedback","","html-keyboard-response","404","425927","0.0-1.0-546.0-0.0","0","0","44521","","null","","","null","60","","","","","","","","","","","","","","","",""
"","time_out","","html-keyboard-response","405","427931","0.0-1.0-548.0-0.0","0","0","44521","","null","","","null","60","","","","","","","","","","","","","","","",""
"","ITI","","html-keyboard-response","406","428933","0.0-1.0-549.0","0","0","44521","","null","","","null","60","","","","","","","","","","","","","","","NaN",""
"","S1","","html-keyboard-response","407","429187","0.0-1.0-551.0","0","0","44521","","null","","","null","61","","","","","","","","","","","","","","","",""
"","ISI","","html-keyboard-response","408","430190","0.0-1.0-552.0","0","0","44521","","null","","","null","61","NaN","","","","","","","","","","","","","","",""
"","S2","","html-keyboard-response","409","430444","0.0-1.0-553.0","0","0","44521","","null","","","null","61","","NaN","","","","","","","","","","","","","",""
"","response","","html-keyboard-response","410","430842","0.0-1.0-554.0-0.0","0","0","44521","","397","","","75","61","","","2","61","training","adjacent","GF","7","6","R.jpg","L.jpg","1","0","0","",""
"","feedback","","html-keyboard-response","411","431847","0.0-1.0-555.0-0.0","0","0","44521","","null","","","null","61","","","","","","","","","","","","","","","",""
"","time_out","","html-keyboard-response","412","433849","0.0-1.0-557.0-0.0","0","0","44521","","null","","","null","61","","","","","","","","","","","","","","","",""
"","ITI","","html-keyboard-response","413","434853","0.0-1.0-558.0","0","0","44521","","null","","","null","61","","","","","","","","","","","","","","","NaN",""
"","S1","","html-keyboard-response","414","435107","0.0-1.0-560.0","0","0","44521","","null","","","null","62","","","","","","","","","","","","","","","",""
"","ISI","","html-keyboard-response","415","436110","0.0-1.0-561.0","0","0","44521","","null","","","null","62","NaN","","","","","","","","","","","","","","",""
"","S2","","html-keyboard-response","416","436363","0.0-1.0-562.0","0","0","44521","","null","","","null","62","","NaN","","","","","","","","","","","","","",""
"","response","","html-keyboard-response","417","436811","0.0-1.0-563.0-0.0","0","0","44521","","445","","","68","62","","","2","62","training","adjacent","FE","6","5","L.jpg","M.jpg","0","0","1","",""
"","feedback","","html-keyboard-response","418","437814","0.0-1.0-564.0-0.0","0","0","44521","","null","","","null","62","","","","","","","","","","","","","","","",""
"","ITI","","html-keyboard-response","419","438818","0.0-1.0-567.0","0","0","44521","","null","","","null","62","","","","","","","","","","","","","","","NaN",""
"","S1","","html-keyboard-response","420","439072","0.0-1.0-569.0","0","0","44521","","null","","","null","63","","","","","","","","","","","","","","","",""
"","ISI","","html-keyboard-response","421","440074","0.0-1.0-570.0","0","0","44521","","null","","","null","63","NaN","","","","","","","","","","","","","","",""
"","S2","","html-keyboard-response","422","440327","0.0-1.0-571.0","0","0","44521","","null","","","null","63","","NaN","","","","","","","","","","","","","",""
"","response","","html-keyboard-response","423","440922","0.0-1.0-572.0-0.0","0","0","44521","","593","","","75","63","","","2","63","training","adjacent","DC","4","3","Q.jpg","O.jpg","1","0","0","",""
"","feedback","","html-keyboard-response","424","441926","0.0-1.0-573.0-0.0","0","0","44521","","null","","","null","63","","","","","","","","","","","","","","","",""
"","time_out","","html-keyboard-response","425","443929","0.0-1.0-575.0-0.0","0","0","44521","","null","","","null","63","","","","","","","","","","","","","","","",""
"","ITI","","html-keyboard-response","426","444932","0.0-1.0-576.0","0","0","44521","","null","","","null","63","","","","","","","","","","","","","","","NaN",""
"","S1","","html-keyboard-response","427","445185","0.0-1.0-578.0","0","0","44521","","null","","","null","64","","","","","","","","","","","","","","","",""
"","ISI","","html-keyboard-response","428","446187","0.0-1.0-579.0","0","0","44521","","null","","","null","64","NaN","","","","","","","","","","","","","","",""
"","S2","","html-keyboard-response","429","446441","0.0-1.0-580.0","0","0","44521","","null","","","null","64","","NaN","","","","","","","","","","","","","",""
"","response","","html-keyboard-response","430","446666","0.0-1.0-581.0-0.0","0","0","44521","","223","","","68","64","","","2","64","training","adjacent","DE","4","5","Q.jpg","M.jpg","0","1","0","",""
"","feedback","","html-keyboard-response","431","447670","0.0-1.0-582.0-0.0","0","0","44521","","null","","","null","64","","","","","","","","","","","","","","","",""
"","time_out","","html-keyboard-response","432","449673","0.0-1.0-584.0-0.0","0","0","44521","","null","","","null","64","","","","","","","","","","","","","","","",""
"","ITI","","html-keyboard-response","433","450676","0.0-1.0-585.0","0","0","44521","","null","","","null","64","","","","","","","","","","","","","","","NaN",""
"","S1","","html-keyboard-response","434","450929","0.0-1.0-587.0","0","0","44521","","null","","","null","65","","","","","","","","","","","","","","","",""
"","ISI","","html-keyboard-response","435","451931","0.0-1.0-588.0","0","0","44521","","null","","","null","65","NaN","","","","","","","","","","","","","","",""
"","S2","","html-keyboard-response","436","452186","0.0-1.0-589.0","0","0","44521","","null","","","null","65","","NaN","","","","","","","","","","","","","",""
"","response","","html-keyboard-response","437","452587","0.0-1.0-590.0-0.0","0","0","44521","","399","","","75","65","","","2","65","training","adjacent","CD","3","4","O.jpg","Q.jpg","1","1","1","",""
"","feedback","","html-keyboard-response","438","453590","0.0-1.0-591.0-0.0","0","0","44521","","null","","","null","65","","","","","","","","","","","","","","","",""
"","ITI","","html-keyboard-response","439","454593","0.0-1.0-594.0","0","0","44521","","null","","","null","65","","","","","","","","","","","","","","","NaN",""
"","S1","","html-keyboard-response","440","454845","0.0-1.0-596.0","0","0","44521","","null","","","null","66","","","","","","","","","","","","","","","",""
"","ISI","","html-keyboard-response","441","455849","0.0-1.0-597.0","0","0","44521","","null","","","null","66","NaN","","","","","","","","","","","","","","",""
"","S2","","html-keyboard-response","442","456102","0.0-1.0-598.0","0","0","44521","","null","","","null","66","","NaN","","","","","","","","","","","","","",""
"","response","","html-keyboard-response","443","456602","0.0-1.0-599.0-0.0","0","0","44521","","497","","","75","66","","","2","66","training","adjacent","BC","2","3","P.jpg","O.jpg","1","1","1","",""
"","feedback","","html-keyboard-response","444","457605","0.0-1.0-600.0-0.0","0","0","44521","","null","","","null","66","","","","","","","","","","","","","","","",""
"","ITI","","html-keyboard-response","445","458609","0.0-1.0-603.0","0","0","44521","","null","","","null","66","","","","","","","","","","","","","","","NaN",""
"","S1","","html-keyboard-response","446","458863","0.0-1.0-605.0","0","0","44521","","null","","","null","67","","","","","","","","","","","","","","","",""
"","ISI","","html-keyboard-response","447","459866","0.0-1.0-606.0","0","0","44521","","null","","","null","67","NaN","","","","","","","","","","","","","","",""
"","S2","","html-keyboard-response","448","460119","0.0-1.0-607.0","0","0","44521","","null","","","null","67","","NaN","","","","","","","","","","","","","",""
"","response","","html-keyboard-response","449","460730","0.0-1.0-608.0-0.0","0","0","44521","","608","","","68","67","","","2","67","training","adjacent","CD","3","4","O.jpg","Q.jpg","0","1","0","",""
"","feedback","","html-keyboard-response","450","461732","0.0-1.0-609.0-0.0","0","0","44521","","null","","","null","67","","","","","","","","","","","","","","","",""
"","time_out","","html-keyboard-response","451","463735","0.0-1.0-611.0-0.0","0","0","44521","","null","","","null","67","","","","","","","","","","","","","","","",""
"","ITI","","html-keyboard-response","452","464740","0.0-1.0-612.0","0","0","44521","","null","","","null","67","","","","","","","","","","","","","","","NaN",""
"","S1","","html-keyboard-response","453","464993","0.0-1.0-614.0","0","0","44521","","null","","","null","68","","","","","","","","","","","","","","","",""
"","ISI","","html-keyboard-response","454","465996","0.0-1.0-615.0","0","0","44521","","null","","","null","68","NaN","","","","","","","","","","","","","","",""
"","S2","","html-keyboard-response","455","466250","0.0-1.0-616.0","0","0","44521","","null","","","null","68","","NaN","","","","","","","","","","","","","",""
"","response","","html-keyboard-response","456","466618","0.0-1.0-617.0-0.0","0","0","44521","","365","","","75","68","","","2","68","training","adjacent","ED","5","4","M.jpg","Q.jpg","1","0","0","",""
"","feedback","","html-keyboard-response","457","467621","0.0-1.0-618.0-0.0","0","0","44521","","null","","","null","68","","","","","","","","","","","","","","","",""
"","time_out","","html-keyboard-response","458","469625","0.0-1.0-620.0-0.0","0","0","44521","","null","","","null","68","","","","","","","","","","","","","","","",""
"","ITI","","html-keyboard-response","459","470628","0.0-1.0-621.0","0","0","44521","","null","","","null","68","","","","","","","","","","","","","","","NaN",""
"","S1","","html-keyboard-response","460","470881","0.0-1.0-623.0","0","0","44521","","null","","","null","69","","","","","","","","","","","","","","","",""
"","ISI","","html-keyboard-response","461","471883","0.0-1.0-624.0","0","0","44521","","null","","","null","69","NaN","","","","","","","","","","","","","","",""
"","S2","","html-keyboard-response","462","472137","0.0-1.0-625.0","0","0","44521","","null","","","null","69","","NaN","","","","","","","","","","","","","",""
"","response","","html-keyboard-response","463","472490","0.0-1.0-626.0-0.0","0","0","44521","","350","","","68","69","","","2","69","training","adjacent","DC","4","3","Q.jpg","O.jpg","0","0","1","",""
"","feedback","","html-keyboard-response","464","473494","0.0-1.0-627.0-0.0","0","0","44521","","null","","","null","69","","","","","","","","","","","","","","","",""
"","ITI","","html-keyboard-response","465","474497","0.0-1.0-630.0","0","0","44521","","null","","","null","69","","","","","","","","","","","","","","","NaN",""
"","S1","","html-keyboard-response","466","474750","0.0-1.0-632.0","0","0","44521","","null","","","null","70","","","","","","","","","","","","","","","",""
"","ISI","","html-keyboard-response","467","475754","0.0-1.0-633.0","0","0","44521","","null","","","null","70","NaN","","","","","","","","","","","","","","",""
"","S2","","html-keyboard-response","468","476008","0.0-1.0-634.0","0","0","44521","","null","","","null","70","","NaN","","","","","","","","","","","","","",""
"","response","","html-keyboard-response","469","476522","0.0-1.0-635.0-0.0","0","0","44521","","511","","","68","70","","","2","70","training","adjacent","AB","1","2","N.jpg","P.jpg","0","1","0","",""
"","feedback","","html-keyboard-response","470","477525","0.0-1.0-636.0-0.0","0","0","44521","","null","","","null","70","","","","","","","","","","","","","","","",""
"","time_out","","html-keyboard-response","471","479527","0.0-1.0-638.0-0.0","0","0","44521","","null","","","null","70","","","","","","","","","","","","","","","",""
"","ITI","","html-keyboard-response","472","480530","0.0-1.0-639.0","0","0","44521","","null","","","null","70","","","","","","","","","","","","","","","NaN",""
"","S1","","html-keyboard-response","473","480783","0.0-1.0-641.0","0","0","44521","","null","","","null","71","","","","","","","","","","","","","","","",""
"","ISI","","html-keyboard-response","474","481785","0.0-1.0-642.0","0","0","44521","","null","","","null","71","NaN","","","","","","","","","","","","","","",""
"","S2","","html-keyboard-response","475","482039","0.0-1.0-643.0","0","0","44521","","null","","","null","71","","NaN","","","","","","","","","","","","","",""
"","response","","html-keyboard-response","476","482394","0.0-1.0-644.0-0.0","0","0","44521","","352","","","75","71","","","2","71","training","adjacent","EF","5","6","M.jpg","L.jpg","1","1","1","",""
"","feedback","","html-keyboard-response","477","483397","0.0-1.0-645.0-0.0","0","0","44521","","null","","","null","71","","","","","","","","","","","","","","","",""
"","ITI","","html-keyboard-response","478","484401","0.0-1.0-648.0","0","0","44521","","null","","","null","71","","","","","","","","","","","","","","","NaN",""
"","S1","","html-keyboard-response","479","484654","0.0-1.0-650.0","0","0","44521","","null","","","null","72","","","","","","","","","","","","","","","",""
"","ISI","","html-keyboard-response","480","485658","0.0-1.0-651.0","0","0","44521","","null","","","null","72","NaN","","","","","","","","","","","","","","",""
"","S2","","html-keyboard-response","481","485912","0.0-1.0-652.0","0","0","44521","","null","","","null","72","","NaN","","","","","","","","","","","","","",""
"","response","","html-keyboard-response","482","486937","0.0-1.0-653.0-0.0","0","0","44521","","1024","","","75","72","","","2","72","training","adjacent","BA","2","1","P.jpg","N.jpg","1","0","0","",""
"","feedback","","html-keyboard-response","483","487941","0.0-1.0-654.0-0.0","0","0","44521","","null","","","null","72","","","","","","","","","","","","","","","",""
"","time_out","","html-keyboard-response","484","489944","0.0-1.0-656.0-0.0","0","0","44521","","null","","","null","72","","","","","","","","","","","","","","","",""
"","ITI","","html-keyboard-response","485","490947","0.0-1.0-657.0","0","0","44521","","null","","","null","72","","","","","","","","","","","","","","","NaN",""
"","S1","","html-keyboard-response","486","491199","0.0-1.0-659.0","0","0","44521","","null","","","null","73","","","","","","","","","","","","","","","",""
"","ISI","","html-keyboard-response","487","492203","0.0-1.0-660.0","0","0","44521","","null","","","null","73","NaN","","","","","","","","","","","","","","",""
"","S2","","html-keyboard-response","488","492457","0.0-1.0-661.0","0","0","44521","","null","","","null","73","","NaN","","","","","","","","","","","","","",""
"","response","","html-keyboard-response","489","492906","0.0-1.0-662.0-0.0","0","0","44521","","446","","","68","73","","","2","73","training","adjacent","EF","5","6","M.jpg","L.jpg","0","1","0","",""
"","feedback","","html-keyboard-response","490","493909","0.0-1.0-663.0-0.0","0","0","44521","","null","","","null","73","","","","","","","","","","","","","","","",""
"","time_out","","html-keyboard-response","491","495912","0.0-1.0-665.0-0.0","0","0","44521","","null","","","null","73","","","","","","","","","","","","","","","",""
"","ITI","","html-keyboard-response","492","496915","0.0-1.0-666.0","0","0","44521","","null","","","null","73","","","","","","","","","","","","","","","NaN",""
"","S1","","html-keyboard-response","493","497168","0.0-1.0-668.0","0","0","44521","","null","","","null","74","","","","","","","","","","","","","","","",""
"","ISI","","html-keyboard-response","494","498171","0.0-1.0-669.0","0","0","44521","","null","","","null","74","NaN","","","","","","","","","","","","","","",""
"","S2","","html-keyboard-response","495","498424","0.0-1.0-670.0","0","0","44521","","null","","","null","74","","NaN","","","","","","","","","","","","","",""
"","response","","html-keyboard-response","496","498857","0.0-1.0-671.0-0.0","0","0","44521","","431","","","75","74","","","2","74","training","adjacent","AB","1","2","N.jpg","P.jpg","1","1","1","",""
"","feedback","","html-keyboard-response","497","499861","0.0-1.0-672.0-0.0","0","0","44521","","null","","","null","74","","","","","","","","","","","","","","","",""
"","ITI","","html-keyboard-response","498","500864","0.0-1.0-675.0","0","0","44521","","null","","","null","74","","","","","","","","","","","","","","","NaN",""
"","S1","","html-keyboard-response","499","501117","0.0-1.0-677.0","0","0","44521","","null","","","null","75","","","","","","","","","","","","","","","",""
"","ISI","","html-keyboard-response","500","502120","0.0-1.0-678.0","0","0","44521","","null","","","null","75","NaN","","","","","","","","","","","","","","",""
"","S2","","html-keyboard-response","501","502372","0.0-1.0-679.0","0","0","44521","","null","","","null","75","","NaN","","","","","","","","","","","","","",""
"","response","","html-keyboard-response","502","502681","0.0-1.0-680.0-0.0","0","0","44521","","307","","","75","75","","","2","75","training","adjacent","GF","7","6","R.jpg","L.jpg","1","0","0","",""
"","feedback","","html-keyboard-response","503","503685","0.0-1.0-681.0-0.0","0","0","44521","","null","","","null","75","","","","","","","","","","","","","","","",""
"","time_out","","html-keyboard-response","504","505688","0.0-1.0-683.0-0.0","0","0","44521","","null","","","null","75","","","","","","","","","","","","","","","",""
"","ITI","","html-keyboard-response","505","506690","0.0-1.0-684.0","0","0","44521","","null","","","null","75","","","","","","","","","","","","","","","NaN",""
"","S1","","html-keyboard-response","506","506943","0.0-1.0-686.0","0","0","44521","","null","","","null","76","","","","","","","","","","","","","","","",""
"","ISI","","html-keyboard-response","507","507945","0.0-1.0-687.0","0","0","44521","","null","","","null","76","NaN","","","","","","","","","","","","","","",""
"","S2","","html-keyboard-response","508","508198","0.0-1.0-688.0","0","0","44521","","null","","","null","76","","NaN","","","","","","","","","","","","","",""
"","response","","html-keyboard-response","509","508809","0.0-1.0-689.0-0.0","0","0","44521","","609","","","75","76","","","2","76","training","adjacent","BC","2","3","P.jpg","O.jpg","1","1","1","",""
"","feedback","","html-keyboard-response","510","509813","0.0-1.0-690.0-0.0","0","0","44521","","null","","","null","76","","","","","","","","","","","","","","","",""
"","ITI","","html-keyboard-response","511","510817","0.0-1.0-693.0","0","0","44521","","null","","","null","76","","","","","","","","","","","","","","","NaN",""
"","S1","","html-keyboard-response","512","511071","0.0-1.0-695.0","0","0","44521","","null","","","null","77","","","","","","","","","","","","","","","",""
"","ISI","","html-keyboard-response","513","512074","0.0-1.0-696.0","0","0","44521","","null","","","null","77","NaN","","","","","","","","","","","","","","",""
"","S2","","html-keyboard-response","514","512328","0.0-1.0-697.0","0","0","44521","","null","","","null","77","","NaN","","","","","","","","","","","","","",""
"","response","","html-keyboard-response","515","512905","0.0-1.0-698.0-0.0","0","0","44521","","574","","","75","77","","","2","77","training","adjacent","EF","5","6","M.jpg","L.jpg","1","1","1","",""
"","feedback","","html-keyboard-response","516","513909","0.0-1.0-699.0-0.0","0","0","44521","","null","","","null","77","","","","","","","","","","","","","","","",""
"","ITI","","html-keyboard-response","517","514912","0.0-1.0-702.0","0","0","44521","","null","","","null","77","","","","","","","","","","","","","","","NaN",""
"","S1","","html-keyboard-response","518","515166","0.0-1.0-704.0","0","0","44521","","null","","","null","78","","","","","","","","","","","","","","","",""
"","ISI","","html-keyboard-response","519","516168","0.0-1.0-705.0","0","0","44521","","null","","","null","78","NaN","","","","","","","","","","","","","","",""
"","S2","","html-keyboard-response","520","516422","0.0-1.0-706.0","0","0","44521","","null","","","null","78","","NaN","","","","","","","","","","","","","",""
"","response","","html-keyboard-response","521","516825","0.0-1.0-707.0-0.0","0","0","44521","","400","","","68","78","","","2","78","training","adjacent","FG","6","7","L.jpg","R.jpg","0","1","0","",""
"","feedback","","html-keyboard-response","522","517828","0.0-1.0-708.0-0.0","0","0","44521","","null","","","null","78","","","","","","","","","","","","","","","",""
"","time_out","","html-keyboard-response","523","519832","0.0-1.0-710.0-0.0","0","0","44521","","null","","","null","78","","","","","","","","","","","","","","","",""
"","ITI","","html-keyboard-response","524","520836","0.0-1.0-711.0","0","0","44521","","null","","","null","78","","","","","","","","","","","","","","","NaN",""
"","S1","","html-keyboard-response","525","521088","0.0-1.0-713.0","0","0","44521","","null","","","null","79","","","","","","","","","","","","","","","",""
"","ISI","","html-keyboard-response","526","522091","0.0-1.0-714.0","0","0","44521","","null","","","null","79","NaN","","","","","","","","","","","","","","",""
"","S2","","html-keyboard-response","527","522345","0.0-1.0-715.0","0","0","44521","","null","","","null","79","","NaN","","","","","","","","","","","","","",""
"","response","","html-keyboard-response","528","522729","0.0-1.0-716.0-0.0","0","0","44521","","383","","","75","79","","","2","79","training","adjacent","CD","3","4","O.jpg","Q.jpg","1","1","1","",""
"","feedback","","html-keyboard-response","529","523733","0.0-1.0-717.0-0.0","0","0","44521","","null","","","null","79","","","","","","","","","","","","","","","",""
"","ITI","","html-keyboard-response","530","524738","0.0-1.0-720.0","0","0","44521","","null","","","null","79","","","","","","","","","","","","","","","NaN",""
"","S1","","html-keyboard-response","531","524991","0.0-1.0-722.0","0","0","44521","","null","","","null","80","","","","","","","","","","","","","","","",""
"","ISI","","html-keyboard-response","532","525995","0.0-1.0-723.0","0","0","44521","","null","","","null","80","NaN","","","","","","","","","","","","","","",""
"","S2","","html-keyboard-response","533","526249","0.0-1.0-724.0","0","0","44521","","null","","","null","80","","NaN","","","","","","","","","","","","","",""
"","response","","html-keyboard-response","534","526585","0.0-1.0-725.0-0.0","0","0","44521","","333","","","75","80","","","2","80","training","adjacent","FG","6","7","L.jpg","R.jpg","1","1","1","",""
"","feedback","","html-keyboard-response","535","527588","0.0-1.0-726.0-0.0","0","0","44521","","null","","","null","80","","","","","","","","","","","","","","","",""
"","ITI","","html-keyboard-response","536","528592","0.0-1.0-729.0","0","0","44521","","null","","","null","80","","","","","","","","","","","","","","","NaN",""
"","S1","","html-keyboard-response","537","528845","0.0-1.0-731.0","0","0","44521","","null","","","null","81","","","","","","","","","","","","","","","",""
"","ISI","","html-keyboard-response","538","529847","0.0-1.0-732.0","0","0","44521","","null","","","null","81","NaN","","","","","","","","","","","","","","",""
"","S2","","html-keyboard-response","539","530101","0.0-1.0-733.0","0","0","44521","","null","","","null","81","","NaN","","","","","","","","","","","","","",""
"","response","","html-keyboard-response","540","530618","0.0-1.0-734.0-0.0","0","0","44521","","514","","","75","81","","","2","81","training","adjacent","BA","2","1","P.jpg","N.jpg","1","0","0","",""
"","feedback","","html-keyboard-response","541","531622","0.0-1.0-735.0-0.0","0","0","44521","","null","","","null","81","","","","","","","","","","","","","","","",""
"","time_out","","html-keyboard-response","542","533626","0.0-1.0-737.0-0.0","0","0","44521","","null","","","null","81","","","","","","","","","","","","","","","",""
"","ITI","","html-keyboard-response","543","534628","0.0-1.0-738.0","0","0","44521","","null","","","null","81","","","","","","","","","","","","","","","NaN",""
"","S1","","html-keyboard-response","544","534883","0.0-1.0-740.0","0","0","44521","","null","","","null","82","","","","","","","","","","","","","","","",""
"","ISI","","html-keyboard-response","545","535885","0.0-1.0-741.0","0","0","44521","","null","","","null","82","NaN","","","","","","","","","","","","","","",""
"","S2","","html-keyboard-response","546","536138","0.0-1.0-742.0","0","0","44521","","null","","","null","82","","NaN","","","","","","","","","","","","","",""
"","response","","html-keyboard-response","547","536217","0.0-1.0-743.0-0.0","0","0","44521","","77","","","68","82","","","2","82","training","adjacent","GF","7","6","R.jpg","L.jpg","0","0","1","",""
"","feedback","","html-keyboard-response","548","537220","0.0-1.0-744.0-0.0","0","0","44521","","null","","","null","82","","","","","","","","","","","","","","","",""
"","ITI","","html-keyboard-response","549","538223","0.0-1.0-747.0","0","0","44521","","null","","","null","82","","","","","","","","","","","","","","","NaN",""
"","S1","","html-keyboard-response","550","538476","0.0-1.0-749.0","0","0","44521","","null","","","null","83","","","","","","","","","","","","","","","",""
"","ISI","","html-keyboard-response","551","539479","0.0-1.0-750.0","0","0","44521","","null","","","null","83","NaN","","","","","","","","","","","","","","",""
"","S2","","html-keyboard-response","552","539732","0.0-1.0-751.0","0","0","44521","","null","","","null","83","","NaN","","","","","","","","","","","","","",""
"","response","","html-keyboard-response","553","540473","0.0-1.0-752.0-0.0","0","0","44521","","739","","","75","83","","","2","83","training","adjacent","BA","2","1","P.jpg","N.jpg","1","0","0","",""
"","feedback","","html-keyboard-response","554","541476","0.0-1.0-753.0-0.0","0","0","44521","","null","","","null","83","","","","","","","","","","","","","","","",""
"","time_out","","html-keyboard-response","555","543480","0.0-1.0-755.0-0.0","0","0","44521","","null","","","null","83","","","","","","","","","","","","","","","",""
"","ITI","","html-keyboard-response","556","544484","0.0-1.0-756.0","0","0","44521","","null","","","null","83","","","","","","","","","","","","","","","NaN",""
"","S1","","html-keyboard-response","557","544737","0.0-1.0-758.0","0","0","44521","","null","","","null","84","","","","","","","","","","","","","","","",""
"","ISI","","html-keyboard-response","558","545741","0.0-1.0-759.0","0","0","44521","","null","","","null","84","NaN","","","","","","","","","","","","","","",""
"","S2","","html-keyboard-response","559","545994","0.0-1.0-760.0","0","0","44521","","null","","","null","84","","NaN","","","","","","","","","","","","","",""
"","response","","html-keyboard-response","560","546473","0.0-1.0-761.0-0.0","0","0","44521","","476","","","68","84","","","2","84","training","adjacent","DE","4","5","Q.jpg","M.jpg","0","1","0","",""
"","feedback","","html-keyboard-response","561","547476","0.0-1.0-762.0-0.0","0","0","44521","","null","","","null","84","","","","","","","","","","","","","","","",""
"","time_out","","html-keyboard-response","562","549479","0.0-1.0-764.0-0.0","0","0","44521","","null","","","null","84","","","","","","","","","","","","","","","",""
"","ITI","","html-keyboard-response","563","550483","0.0-1.0-765.0","0","0","44521","","null","","","null","84","","","","","","","","","","","","","","","NaN",""
"","S1","","html-keyboard-response","564","550736","0.0-1.0-767.0","0","0","44521","","null","","","null","85","","","","","","","","","","","","","","","",""
"","ISI","","html-keyboard-response","565","551740","0.0-1.0-768.0","0","0","44521","","null","","","null","85","NaN","","","","","","","","","","","","","","",""
"","S2","","html-keyboard-response","566","551992","0.0-1.0-769.0","0","0","44521","","null","","","null","85","","NaN","","","","","","","","","","","","","",""
"","response","","html-keyboard-response","567","552409","0.0-1.0-770.0-0.0","0","0","44521","","414","","","75","85","","","2","85","training","adjacent","FG","6","7","L.jpg","R.jpg","1","1","1","",""
"","feedback","","html-keyboard-response","568","553412","0.0-1.0-771.0-0.0","0","0","44521","","null","","","null","85","","","","","","","","","","","","","","","",""
"","ITI","","html-keyboard-response","569","554415","0.0-1.0-774.0","0","0","44521","","null","","","null","85","","","","","","","","","","","","","","","NaN",""
"","S1","","html-keyboard-response","570","554669","0.0-1.0-776.0","0","0","44521","","null","","","null","86","","","","","","","","","","","","","","","",""
"","ISI","","html-keyboard-response","571","555671","0.0-1.0-777.0","0","0","44521","","null","","","null","86","NaN","","","","","","","","","","","","","","",""
"","S2","","html-keyboard-response","572","555925","0.0-1.0-778.0","0","0","44521","","null","","","null","86","","NaN","","","","","","","","","","","","","",""
"","response","","html-keyboard-response","573","556489","0.0-1.0-779.0-0.0","0","0","44521","","562","","","75","86","","","2","86","training","adjacent","DC","4","3","Q.jpg","O.jpg","1","0","0","",""
"","feedback","","html-keyboard-response","574","557493","0.0-1.0-780.0-0.0","0","0","44521","","null","","","null","86","","","","","","","","","","","","","","","",""
"","time_out","","html-keyboard-response","575","559497","0.0-1.0-782.0-0.0","0","0","44521","","null","","","null","86","","","","","","","","","","","","","","","",""
"","ITI","","html-keyboard-response","576","560500","0.0-1.0-783.0","0","0","44521","","null","","","null","86","","","","","","","","","","","","","","","NaN",""
"","S1","","html-keyboard-response","577","560753","0.0-1.0-785.0","0","0","44521","","null","","","null","87","","","","","","","","","","","","","","","",""
"","ISI","","html-keyboard-response","578","561757","0.0-1.0-786.0","0","0","44521","","null","","","null","87","NaN","","","","","","","","","","","","","","",""
"","S2","","html-keyboard-response","579","562010","0.0-1.0-787.0","0","0","44521","","null","","","null","87","","NaN","","","","","","","","","","","","","",""
"","response","","html-keyboard-response","580","562920","0.0-1.0-788.0-0.0","0","0","44521","","908","","","68","87","","","2","87","training","adjacent","FE","6","5","L.jpg","M.jpg","0","0","1","",""
