"success","ttype","start_time","trial_type","trial_index","time_elapsed","internal_node_id","warning","missed_checkup","PID","view_history","rt","responses","repeat_instructions","key_press","index","keypress_isi","keypress_S2","block","trial_num","phase","group_type","pair_type","S1_stim","S2_stim","S1_img","S2_img","S1_chosen","S1_higher","accuracy","keypress_iti","total_bonus_tally"
"true","full_screen","d08012022hr1522","fullscreen","0","12953","0.0-0.0","0","0","39014","","","","","","","","","","","","","","","","","","","","","",""
"","instructions","","instructions","1","282107","0.0-1.0-0.0-0.0","0","0","39014","[{""page_index"":0,""viewing_time"":197738},{""page_index"":1,""viewing_time"":20197},{""page_index"":2,""viewing_time"":48111},{""page_index"":3,""viewing_time"":3099}]","269148","","","","","","","","","","","","","","","","","","","",""
"","comprehension_check","","survey-multi-choice","2","320597","0.0-1.0-0.0-1.0","0","0","39014","","38396","{""Q0"":""False"",""Q1"":""D"",""Q2"":""While the images are shown"",""Q3"":""Green mark"",""Q4"":""either D or K""}","1","","","","","","","","","","","","","","","","","",""
"","missed_instruction_checkup","","html-keyboard-response","3","324370","0.0-1.0-0.0-2.0-0.0","0","1","39014","","3762","","","32","","","","","","","","","","","","","","","","",""
"","instructions","","instructions","4","340268","0.0-1.0-0.1-0.1","0","0","39014","[{""page_index"":0,""viewing_time"":5883},{""page_index"":1,""viewing_time"":5739},{""page_index"":2,""viewing_time"":3162},{""page_index"":3,""viewing_time"":1108}]","15893","","","","","","","","","","","","","","","","","","","",""
"","comprehension_check","","survey-multi-choice","5","368441","0.0-1.0-0.1-1.1","0","0","39014","","28159","{""Q0"":""True"",""Q1"":""D"",""Q2"":""When you see the prompt 'MAKE A CHOICE' after the second image was presented"",""Q3"":""Green mark"",""Q4"":""either D or K""}","0","","","","","","","","","","","","","","","","","",""
"","start_exp","","html-keyboard-response","6","372054","0.0-1.0-1.0","0","0","39014","","3608","","","32","","","","","","","","","","","","","","","","",""
"","S1","","html-keyboard-response","7","372311","0.0-1.0-2.0","0","0","39014","","null","","","null","0","","","","","","","","","","","","","","","",""
"","ISI","","html-keyboard-response","8","374316","0.0-1.0-3.0","0","0","39014","","null","","","null","0","NaN","","","","","","","","","","","","","","",""
"","S2","","html-keyboard-response","9","374571","0.0-1.0-4.0","0","0","39014","","null","","","null","0","","NaN","","","","","","","","","","","","","",""
"","response","","html-keyboard-response","10","375238","0.0-1.0-5.0","0","0","39014","","662","","","68","0","","","1","0","training","adjacent","ED","5","4","L.jpg","N.jpg","1","0","0","",""
"","feedback","","html-keyboard-response","11","376243","0.0-1.0-6.0-0.0","0","0","39014","","null","","","null","0","","","","","","","","","","","","","","","",""
"","time_out","","html-keyboard-response","12","378247","0.0-1.0-8.0-0.0","0","0","39014","","null","","","null","0","","","","","","","","","","","","","","","",""
"","ITI","","html-keyboard-response","13","379251","0.0-1.0-9.0","0","0","39014","","null","","","null","0","","","","","","","","","","","","","","","NaN",""
"","S1","","html-keyboard-response","14","379507","0.0-1.0-11.0","0","0","39014","","null","","","null","1","","","","","","","","","","","","","","","",""
"","ISI","","html-keyboard-response","15","381511","0.0-1.0-12.0","0","0","39014","","null","","","null","1","NaN","","","","","","","","","","","","","","",""
"","S2","","html-keyboard-response","16","381766","0.0-1.0-13.0","0","0","39014","","null","","","null","1","","NaN","","","","","","","","","","","","","",""
"","response","","html-keyboard-response","17","382208","0.0-1.0-14.0","0","0","39014","","438","","","75","1","","","1","1","training","adjacent","EF","5","6","L.jpg","O.jpg","0","1","0","",""
"","feedback","","html-keyboard-response","18","383213","0.0-1.0-15.0-0.0","0","0","39014","","null","","","null","1","","","","","","","","","","","","","","","",""
"","time_out","","html-keyboard-response","19","385217","0.0-1.0-17.0-0.0","0","0","39014","","null","","","null","1","","","","","","","","","","","","","","","",""
"","ITI","","html-keyboard-response","20","386221","0.0-1.0-18.0","0","0","39014","","null","","","null","1","","","","","","","","","","","","","","","NaN",""
"","S1","","html-keyboard-response","21","386475","0.0-1.0-20.0","0","0","39014","","null","","","null","2","","","","","","","","","","","","","","","",""
"","ISI","","html-keyboard-response","22","388479","0.0-1.0-21.0","0","0","39014","","null","","","null","2","NaN","","","","","","","","","","","","","","",""
"","S2","","html-keyboard-response","23","388733","0.0-1.0-22.0","0","0","39014","","null","","","null","2","","NaN","","","","","","","","","","","","","",""
"","response","","html-keyboard-response","24","389191","0.0-1.0-23.0","0","0","39014","","454","","","75","2","","","1","2","training","adjacent","AB","1","2","Q.jpg","M.jpg","0","1","0","",""
"","feedback","","html-keyboard-response","25","390198","0.0-1.0-24.0-0.0","0","0","39014","","null","","","null","2","","","","","","","","","","","","","","","",""
"","time_out","","html-keyboard-response","26","392202","0.0-1.0-26.0-0.0","0","0","39014","","null","","","null","2","","","","","","","","","","","","","","","",""
"","ITI","","html-keyboard-response","27","393207","0.0-1.0-27.0","0","0","39014","","null","","","null","2","","","","","","","","","","","","","","","NaN",""
"","S1","","html-keyboard-response","28","393461","0.0-1.0-29.0","0","0","39014","","null","","","null","3","","","","","","","","","","","","","","","",""
"","ISI","","html-keyboard-response","29","395465","0.0-1.0-30.0","0","0","39014","","null","","","null","3","NaN","","","","","","","","","","","","","","",""
"","S2","","html-keyboard-response","30","395720","0.0-1.0-31.0","0","0","39014","","null","","","null","3","","NaN","","","","","","","","","","","","","",""
"","response","","html-keyboard-response","31","396124","0.0-1.0-32.0","0","0","39014","","400","","","68","3","","","1","3","training","adjacent","DE","4","5","N.jpg","L.jpg","1","1","1","",""
"","feedback","","html-keyboard-response","32","397129","0.0-1.0-33.0-0.0","0","0","39014","","null","","","null","3","","","","","","","","","","","","","","","",""
"","ITI","","html-keyboard-response","33","398134","0.0-1.0-36.0","0","0","39014","","null","","","null","3","","","","","","","","","","","","","","","NaN",""
"","S1","","html-keyboard-response","34","398389","0.0-1.0-38.0","0","0","39014","","null","","","null","4","","","","","","","","","","","","","","","",""
"","ISI","","html-keyboard-response","35","400393","0.0-1.0-39.0","0","0","39014","","null","","","null","4","NaN","","","","","","","","","","","","","","",""
"","S2","","html-keyboard-response","36","400648","0.0-1.0-40.0","0","0","39014","","null","","","null","4","","NaN","","","","","","","","","","","","","",""
"","response","","html-keyboard-response","37","400938","0.0-1.0-41.0","0","0","39014","","287","","","75","4","","","1","4","training","adjacent","BA","2","1","M.jpg","Q.jpg","0","0","1","",""
"","feedback","","html-keyboard-response","38","401943","0.0-1.0-42.0-0.0","0","0","39014","","null","","","null","4","","","","","","","","","","","","","","","",""
"","ITI","","html-keyboard-response","39","402947","0.0-1.0-45.0","0","0","39014","","null","","","null","4","","","","","","","","","","","","","","","NaN",""
"","S1","","html-keyboard-response","40","403202","0.0-1.0-47.0","0","0","39014","","null","","","null","5","","","","","","","","","","","","","","","",""
"","ISI","","html-keyboard-response","41","405206","0.0-1.0-48.0","0","0","39014","","null","","","null","5","NaN","","","","","","","","","","","","","","",""
"","S2","","html-keyboard-response","42","405461","0.0-1.0-49.0","0","0","39014","","null","","","null","5","","NaN","","","","","","","","","","","","","",""
"","response","","html-keyboard-response","43","406109","0.0-1.0-50.0","0","0","39014","","645","","","68","5","","","1","5","training","adjacent","GF","7","6","P.jpg","O.jpg","1","0","0","",""
"","feedback","","html-keyboard-response","44","407114","0.0-1.0-51.0-0.0","0","0","39014","","null","","","null","5","","","","","","","","","","","","","","","",""
"","time_out","","html-keyboard-response","45","409119","0.0-1.0-53.0-0.0","0","0","39014","","null","","","null","5","","","","","","","","","","","","","","","",""
"","ITI","","html-keyboard-response","46","410123","0.0-1.0-54.0","0","0","39014","","null","","","null","5","","","","","","","","","","","","","","","NaN",""
"","S1","","html-keyboard-response","47","410378","0.0-1.0-56.0","0","0","39014","","null","","","null","6","","","","","","","","","","","","","","","",""
"","ISI","","html-keyboard-response","48","412382","0.0-1.0-57.0","0","0","39014","","null","","","null","6","NaN","","","","","","","","","","","","","","",""
"","S2","","html-keyboard-response","49","412637","0.0-1.0-58.0","0","0","39014","","null","","","null","6","","NaN","","","","","","","","","","","","","",""
"","response","","html-keyboard-response","50","413001","0.0-1.0-59.0","0","0","39014","","359","","","75","6","","","1","6","training","adjacent","ED","5","4","L.jpg","N.jpg","0","0","1","",""
"","feedback","","html-keyboard-response","51","414005","0.0-1.0-60.0-0.0","0","0","39014","","null","","","null","6","","","","","","","","","","","","","","","",""
"","ITI","","html-keyboard-response","52","415011","0.0-1.0-63.0","0","0","39014","","null","","","null","6","","","","","","","","","","","","","","","NaN",""
"","S1","","html-keyboard-response","53","415265","0.0-1.0-65.0","0","0","39014","","null","","","null","7","","","","","","","","","","","","","","","",""
"","ISI","","html-keyboard-response","54","417269","0.0-1.0-66.0","0","0","39014","","null","","","null","7","NaN","","","","","","","","","","","","","","",""
"","S2","","html-keyboard-response","55","417524","0.0-1.0-67.0","0","0","39014","","null","","","null","7","","NaN","","","","","","","","","","","","","",""
"","response","","html-keyboard-response","56","417926","0.0-1.0-68.0","0","0","39014","","397","","","75","7","","","1","7","training","adjacent","EF","5","6","L.jpg","O.jpg","0","1","0","",""
"","feedback","","html-keyboard-response","57","418930","0.0-1.0-69.0-0.0","0","0","39014","","null","","","null","7","","","","","","","","","","","","","","","",""
"","time_out","","html-keyboard-response","58","420932","0.0-1.0-71.0-0.0","0","0","39014","","null","","","null","7","","","","","","","","","","","","","","","",""
"","ITI","","html-keyboard-response","59","421937","0.0-1.0-72.0","0","0","39014","","null","","","null","7","","","","","","","","","","","","","","","NaN",""
"","S1","","html-keyboard-response","60","422191","0.0-1.0-74.0","0","0","39014","","null","","","null","8","","","","","","","","","","","","","","","",""
"","ISI","","html-keyboard-response","61","424196","0.0-1.0-75.0","0","0","39014","","null","","","null","8","NaN","","","","","","","","","","","","","","",""
"","S2","","html-keyboard-response","62","424451","0.0-1.0-76.0","0","0","39014","","null","","","null","8","","NaN","","","","","","","","","","","","","",""
"","response","","html-keyboard-response","63","424825","0.0-1.0-77.0","0","0","39014","","370","","","75","8","","","1","8","training","adjacent","ED","5","4","L.jpg","N.jpg","0","0","1","",""
"","feedback","","html-keyboard-response","64","425830","0.0-1.0-78.0-0.0","0","0","39014","","null","","","null","8","","","","","","","","","","","","","","","",""
"","ITI","","html-keyboard-response","65","426835","0.0-1.0-81.0","0","0","39014","","null","","","null","8","","","","","","","","","","","","","","","NaN",""
"","S1","","html-keyboard-response","66","427089","0.0-1.0-83.0","0","0","39014","","null","","","null","9","","","","","","","","","","","","","","","",""
"","ISI","","html-keyboard-response","67","429092","0.0-1.0-84.0","0","0","39014","","null","","","null","9","NaN","","","","","","","","","","","","","","",""
"","S2","","html-keyboard-response","68","429347","0.0-1.0-85.0","0","0","39014","","null","","","null","9","","NaN","","","","","","","","","","","","","",""
"","response","","html-keyboard-response","69","429691","0.0-1.0-86.0","0","0","39014","","341","","","68","9","","","1","9","training","adjacent","DC","4","3","N.jpg","R.jpg","1","0","0","",""
"","feedback","","html-keyboard-response","70","430696","0.0-1.0-87.0-0.0","0","0","39014","","null","","","null","9","","","","","","","","","","","","","","","",""
"","time_out","","html-keyboard-response","71","432700","0.0-1.0-89.0-0.0","0","0","39014","","null","","","null","9","","","","","","","","","","","","","","","",""
"","ITI","","html-keyboard-response","72","433704","0.0-1.0-90.0","0","0","39014","","null","","","null","9","","","","","","","","","","","","","","","NaN",""
"","S1","","html-keyboard-response","73","433959","0.0-1.0-92.0","0","0","39014","","null","","","null","10","","","","","","","","","","","","","","","",""
"","ISI","","html-keyboard-response","74","435963","0.0-1.0-93.0","0","0","39014","","null","","","null","10","NaN","","","","","","","","","","","","","","",""
"","S2","","html-keyboard-response","75","436217","0.0-1.0-94.0","0","0","39014","","null","","","null","10","","NaN","","","","","","","","","","","","","",""
"","response","","html-keyboard-response","76","436576","0.0-1.0-95.0","0","0","39014","","357","","","68","10","","","1","10","training","adjacent","DE","4","5","N.jpg","L.jpg","1","1","1","",""
"","feedback","","html-keyboard-response","77","437581","0.0-1.0-96.0-0.0","0","0","39014","","null","","","null","10","","","","","","","","","","","","","","","",""
"","ITI","","html-keyboard-response","78","438585","0.0-1.0-99.0","0","0","39014","","null","","","null","10","","","","","","","","","","","","","","","NaN",""
"","S1","","html-keyboard-response","79","438840","0.0-1.0-101.0","0","0","39014","","null","","","null","11","","","","","","","","","","","","","","","",""
"","ISI","","html-keyboard-response","80","440844","0.0-1.0-102.0","0","0","39014","","null","","","null","11","NaN","","","","","","","","","","","","","","",""
"","S2","","html-keyboard-response","81","441099","0.0-1.0-103.0","0","0","39014","","null","","","null","11","","NaN","","","","","","","","","","","","","",""
"","response","","html-keyboard-response","82","441714","0.0-1.0-104.0","0","0","39014","","611","","","68","11","","","1","11","training","adjacent","FE","6","5","O.jpg","L.jpg","1","0","0","",""
"","feedback","","html-keyboard-response","83","442718","0.0-1.0-105.0-0.0","0","0","39014","","null","","","null","11","","","","","","","","","","","","","","","",""
"","time_out","","html-keyboard-response","84","444722","0.0-1.0-107.0-0.0","0","0","39014","","null","","","null","11","","","","","","","","","","","","","","","",""
"","ITI","","html-keyboard-response","85","445726","0.0-1.0-108.0","0","0","39014","","null","","","null","11","","","","","","","","","","","","","","","NaN",""
"","S1","","html-keyboard-response","86","445981","0.0-1.0-110.0","0","0","39014","","null","","","null","12","","","","","","","","","","","","","","","",""
"","ISI","","html-keyboard-response","87","447985","0.0-1.0-111.0","0","0","39014","","null","","","null","12","NaN","","","","","","","","","","","","","","",""
"","S2","","html-keyboard-response","88","448240","0.0-1.0-112.0","0","0","39014","","null","","","null","12","","NaN","","","","","","","","","","","","","",""
"","response","","html-keyboard-response","89","448811","0.0-1.0-113.0","0","0","39014","","568","","","75","12","","","1","12","training","adjacent","FE","6","5","O.jpg","L.jpg","0","0","1","",""
"","feedback","","html-keyboard-response","90","449816","0.0-1.0-114.0-0.0","0","0","39014","","null","","","null","12","","","","","","","","","","","","","","","",""
"","ITI","","html-keyboard-response","91","450822","0.0-1.0-117.0","0","0","39014","","null","","","null","12","","","","","","","","","","","","","","","NaN",""
"","S1","","html-keyboard-response","92","451077","0.0-1.0-119.0","0","0","39014","","null","","","null","13","","","","","","","","","","","","","","","",""
"","ISI","","html-keyboard-response","93","453081","0.0-1.0-120.0","0","0","39014","","null","","","null","13","NaN","","","","","","","","","","","","","","",""
"","S2","","html-keyboard-response","94","453336","0.0-1.0-121.0","0","0","39014","","null","","","null","13","","NaN","","","","","","","","","","","","","",""
"","response","","html-keyboard-response","95","453912","0.0-1.0-122.0","0","0","39014","","572","","","68","13","","","1","13","training","adjacent","DC","4","3","N.jpg","R.jpg","1","0","0","",""
"","feedback","","html-keyboard-response","96","454917","0.0-1.0-123.0-0.0","0","0","39014","","null","","","null","13","","","","","","","","","","","","","","","",""
"","time_out","","html-keyboard-response","97","456921","0.0-1.0-125.0-0.0","0","0","39014","","null","","","null","13","","","","","","","","","","","","","","","",""
"","ITI","","html-keyboard-response","98","457925","0.0-1.0-126.0","0","0","39014","","null","","","null","13","","","","","","","","","","","","","","","NaN",""
"","S1","","html-keyboard-response","99","458180","0.0-1.0-128.0","0","0","39014","","null","","","null","14","","","","","","","","","","","","","","","",""
"","ISI","","html-keyboard-response","100","460184","0.0-1.0-129.0","0","0","39014","","null","","","null","14","NaN","","","","","","","","","","","","","","",""
"","S2","","html-keyboard-response","101","460439","0.0-1.0-130.0","0","0","39014","","null","","","null","14","","NaN","","","","","","","","","","","","","",""
"","response","","html-keyboard-response","102","460979","0.0-1.0-131.0","0","0","39014","","536","","","68","14","","","1","14","training","adjacent","CB","3","2","R.jpg","M.jpg","1","0","0","",""
"","feedback","","html-keyboard-response","103","461984","0.0-1.0-132.0-0.0","0","0","39014","","null","","","null","14","","","","","","","","","","","","","","","",""
"","time_out","","html-keyboard-response","104","463988","0.0-1.0-134.0-0.0","0","0","39014","","null","","","null","14","","","","","","","","","","","","","","","",""
"","ITI","","html-keyboard-response","105","464992","0.0-1.0-135.0","0","0","39014","","null","","","null","14","","","","","","","","","","","","","","","NaN",""
"","S1","","html-keyboard-response","106","465247","0.0-1.0-137.0","0","0","39014","","null","","","null","15","","","","","","","","","","","","","","","",""
"","ISI","","html-keyboard-response","107","467252","0.0-1.0-138.0","0","0","39014","","null","","","null","15","NaN","","","","","","","","","","","","","","",""
"","S2","","html-keyboard-response","108","467507","0.0-1.0-139.0","0","0","39014","","null","","","null","15","","NaN","","","","","","","","","","","","","",""
"","response","","html-keyboard-response","109","468250","0.0-1.0-140.0","0","0","39014","","739","","","75","15","","","1","15","training","adjacent","CD","3","4","R.jpg","N.jpg","0","1","0","",""
"","feedback","","html-keyboard-response","110","469255","0.0-1.0-141.0-0.0","0","0","39014","","null","","","null","15","","","","","","","","","","","","","","","",""
"","time_out","","html-keyboard-response","111","471259","0.0-1.0-143.0-0.0","0","0","39014","","null","","","null","15","","","","","","","","","","","","","","","",""
"","ITI","","html-keyboard-response","112","472263","0.0-1.0-144.0","0","0","39014","","null","","","null","15","","","","","","","","","","","","","","","NaN",""
"","S1","","html-keyboard-response","113","472518","0.0-1.0-146.0","0","0","39014","","null","","","null","16","","","","","","","","","","","","","","","",""
"","ISI","","html-keyboard-response","114","474522","0.0-1.0-147.0","0","0","39014","","null","","","null","16","NaN","","","","","","","","","","","","","","",""
"","S2","","html-keyboard-response","115","474776","0.0-1.0-148.0","0","0","39014","","null","","","null","16","","NaN","","","","","","","","","","","","","",""
"","response","","html-keyboard-response","116","475524","0.0-1.0-149.0","0","0","39014","","744","","","75","16","","","1","16","training","adjacent","CD","3","4","R.jpg","N.jpg","0","1","0","",""
"","feedback","","html-keyboard-response","117","476529","0.0-1.0-150.0-0.0","0","0","39014","","null","","","null","16","","","","","","","","","","","","","","","",""
"","time_out","","html-keyboard-response","118","478533","0.0-1.0-152.0-0.0","0","0","39014","","null","","","null","16","","","","","","","","","","","","","","","",""
"","ITI","","html-keyboard-response","119","479537","0.0-1.0-153.0","0","0","39014","","null","","","null","16","","","","","","","","","","","","","","","NaN",""
"","S1","","html-keyboard-response","120","479791","0.0-1.0-155.0","0","0","39014","","null","","","null","17","","","","","","","","","","","","","","","",""
"","ISI","","html-keyboard-response","121","481795","0.0-1.0-156.0","0","0","39014","","null","","","null","17","NaN","","","","","","","","","","","","","","",""
"","S2","","html-keyboard-response","122","482049","0.0-1.0-157.0","0","0","39014","","null","","","null","17","","NaN","","","","","","","","","","","","","",""
"","response","","html-keyboard-response","123","482824","0.0-1.0-158.0","0","0","39014","","771","","","75","17","","","1","17","training","adjacent","CD","3","4","R.jpg","N.jpg","0","1","0","",""
"","feedback","","html-keyboard-response","124","483829","0.0-1.0-159.0-0.0","0","0","39014","","null","","","null","17","","","","","","","","","","","","","","","",""
"","time_out","","html-keyboard-response","125","485833","0.0-1.0-161.0-0.0","0","0","39014","","null","","","null","17","","","","","","","","","","","","","","","",""
"","ITI","","html-keyboard-response","126","486837","0.0-1.0-162.0","0","0","39014","","null","","","null","17","","","","","","","","","","","","","","","NaN",""
"","S1","","html-keyboard-response","127","487092","0.0-1.0-164.0","0","0","39014","","null","","","null","18","","","","","","","","","","","","","","","",""
"","ISI","","html-keyboard-response","128","489096","0.0-1.0-165.0","0","0","39014","","null","","","null","18","NaN","","","","","","","","","","","","","","",""
"","S2","","html-keyboard-response","129","489351","0.0-1.0-166.0","0","0","39014","","null","","","null","18","","NaN","","","","","","","","","","","","","",""
"","response","","html-keyboard-response","130","489970","0.0-1.0-167.0","0","0","39014","","613","","","68","18","","","1","18","training","adjacent","AB","1","2","Q.jpg","M.jpg","1","1","1","",""
"","feedback","","html-keyboard-response","131","490975","0.0-1.0-168.0-0.0","0","0","39014","","null","","","null","18","","","","","","","","","","","","","","","",""
"","ITI","","html-keyboard-response","132","491979","0.0-1.0-171.0","0","0","39014","","null","","","null","18","","","","","","","","","","","","","","","NaN",""
"","S1","","html-keyboard-response","133","492233","0.0-1.0-173.0","0","0","39014","","null","","","null","19","","","","","","","","","","","","","","","",""
"","ISI","","html-keyboard-response","134","494236","0.0-1.0-174.0","0","0","39014","","null","","","null","19","NaN","","","","","","","","","","","","","","",""
"","S2","","html-keyboard-response","135","494491","0.0-1.0-175.0","0","0","39014","","null","","","null","19","","NaN","","","","","","","","","","","","","",""
"","response","","html-keyboard-response","136","495265","0.0-1.0-176.0","0","0","39014","","769","","","75","19","","","1","19","training","adjacent","BA","2","1","M.jpg","Q.jpg","0","0","1","",""
"","feedback","","html-keyboard-response","137","496269","0.0-1.0-177.0-0.0","0","0","39014","","null","","","null","19","","","","","","","","","","","","","","","",""
"","ITI","","html-keyboard-response","138","497273","0.0-1.0-180.0","0","0","39014","","null","","","null","19","","","","","","","","","","","","","","","NaN",""
"","S1","","html-keyboard-response","139","497528","0.0-1.0-182.0","0","0","39014","","null","","","null","20","","","","","","","","","","","","","","","",""
"","ISI","","html-keyboard-response","140","499532","0.0-1.0-183.0","0","0","39014","","null","","","null","20","NaN","","","","","","","","","","","","","","",""
"","S2","","html-keyboard-response","141","499787","0.0-1.0-184.0","0","0","39014","","null","","","null","20","","NaN","","","","","","","","","","","","","",""
"","response","","html-keyboard-response","142","500891","0.0-1.0-185.0","0","0","39014","","1100","","","68","20","","","1","20","training","adjacent","FG","6","7","O.jpg","P.jpg","1","1","1","",""
"","feedback","","html-keyboard-response","143","501896","0.0-1.0-186.0-0.0","0","0","39014","","null","","","null","20","","","","","","","","","","","","","","","",""
"","ITI","","html-keyboard-response","144","502900","0.0-1.0-189.0","0","0","39014","","null","","","null","20","","","","","","","","","","","","","","","NaN",""
"","S1","","html-keyboard-response","145","503154","0.0-1.0-191.0","0","0","39014","","null","","","null","21","","","","","","","","","","","","","","","",""
"","ISI","","html-keyboard-response","146","505159","0.0-1.0-192.0","0","0","39014","","null","","","null","21","NaN","","","","","","","","","","","","","","",""
"","S2","","html-keyboard-response","147","505414","0.0-1.0-193.0","0","0","39014","","null","","","null","21","","NaN","","","","","","","","","","","","","",""
"","response","","html-keyboard-response","148","506541","0.0-1.0-194.0","0","0","39014","","1123","","","75","21","","","1","21","training","adjacent","DC","4","3","N.jpg","R.jpg","0","0","1","",""
"","feedback","","html-keyboard-response","149","507546","0.0-1.0-195.0-0.0","0","0","39014","","null","","","null","21","","","","","","","","","","","","","","","",""
"","ITI","","html-keyboard-response","150","508548","0.0-1.0-198.0","0","0","39014","","null","","","null","21","","","","","","","","","","","","","","","NaN",""
"","S1","","html-keyboard-response","151","508802","0.0-1.0-200.0","0","0","39014","","null","","","null","22","","","","","","","","","","","","","","","",""
"","ISI","","html-keyboard-response","152","510806","0.0-1.0-201.0","0","0","39014","","null","","","null","22","NaN","","","","","","","","","","","","","","",""
"","S2","","html-keyboard-response","153","511063","0.0-1.0-202.0","0","0","39014","","null","","","null","22","","NaN","","","","","","","","","","","","","",""
"","response","","html-keyboard-response","154","511723","0.0-1.0-203.0","0","0","39014","","656","","","68","22","","","1","22","training","adjacent","DE","4","5","N.jpg","L.jpg","1","1","1","",""
"","feedback","","html-keyboard-response","155","512728","0.0-1.0-204.0-0.0","0","0","39014","","null","","","null","22","","","","","","","","","","","","","","","",""
"","ITI","","html-keyboard-response","156","513732","0.0-1.0-207.0","0","0","39014","","null","","","null","22","","","","","","","","","","","","","","","NaN",""
"","S1","","html-keyboard-response","157","513986","0.0-1.0-209.0","0","0","39014","","null","","","null","23","","","","","","","","","","","","","","","",""
"","ISI","","html-keyboard-response","158","515991","0.0-1.0-210.0","0","0","39014","","null","","","null","23","NaN","","","","","","","","","","","","","","",""
"","S2","","html-keyboard-response","159","516246","0.0-1.0-211.0","0","0","39014","","null","","","null","23","","NaN","","","","","","","","","","","","","",""
"","response","","html-keyboard-response","160","517655","0.0-1.0-212.0","0","0","39014","","1405","","","68","23","","","1","23","training","adjacent","CB","3","2","R.jpg","M.jpg","1","0","0","",""
"","feedback","","html-keyboard-response","161","518660","0.0-1.0-213.0-0.0","0","0","39014","","null","","","null","23","","","","","","","","","","","","","","","",""
"","time_out","","html-keyboard-response","162","520664","0.0-1.0-215.0-0.0","0","0","39014","","null","","","null","23","","","","","","","","","","","","","","","",""
"","ITI","","html-keyboard-response","163","521668","0.0-1.0-216.0","0","0","39014","","null","","","null","23","","","","","","","","","","","","","","","NaN",""
"","S1","","html-keyboard-response","164","521923","0.0-1.0-218.0","0","0","39014","","null","","","null","24","","","","","","","","","","","","","","","",""
"","ISI","","html-keyboard-response","165","523927","0.0-1.0-219.0","0","0","39014","","null","","","null","24","NaN","","","","","","","","","","","","","","",""
"","S2","","html-keyboard-response","166","524182","0.0-1.0-220.0","0","0","39014","","null","","","null","24","","NaN","","","","","","","","","","","","","",""
"","response","","html-keyboard-response","167","525087","0.0-1.0-221.0","0","0","39014","","902","","","68","24","","","1","24","training","adjacent","GF","7","6","P.jpg","O.jpg","1","0","0","",""
"","feedback","","html-keyboard-response","168","526092","0.0-1.0-222.0-0.0","0","0","39014","","null","","","null","24","","","","","","","","","","","","","","","",""
"","time_out","","html-keyboard-response","169","528096","0.0-1.0-224.0-0.0","0","0","39014","","null","","","null","24","","","","","","","","","","","","","","","",""
"","ITI","","html-keyboard-response","170","529100","0.0-1.0-225.0","0","0","39014","","null","","","null","24","","","","","","","","","","","","","","","NaN",""
"","S1","","html-keyboard-response","171","529355","0.0-1.0-227.0","0","0","39014","","null","","","null","25","","","","","","","","","","","","","","","",""
"","ISI","","html-keyboard-response","172","531359","0.0-1.0-228.0","0","0","39014","","null","","","null","25","NaN","","","","","","","","","","","","","","",""
"","S2","","html-keyboard-response","173","531614","0.0-1.0-229.0","0","0","39014","","null","","","null","25","","NaN","","","","","","","","","","","","","",""
"","response","","html-keyboard-response","174","532105","0.0-1.0-230.0","0","0","39014","","488","","","75","25","","","1","25","training","adjacent","ED","5","4","L.jpg","N.jpg","0","0","1","",""
"","feedback","","html-keyboard-response","175","533110","0.0-1.0-231.0-0.0","0","0","39014","","null","","","null","25","","","","","","","","","","","","","","","",""
"","ITI","","html-keyboard-response","176","534114","0.0-1.0-234.0","0","0","39014","","null","","","null","25","","","","","","","","","","","","","","","NaN",""
"","S1","","html-keyboard-response","177","534369","0.0-1.0-236.0","0","0","39014","","null","","","null","26","","","","","","","","","","","","","","","",""
"","ISI","","html-keyboard-response","178","536373","0.0-1.0-237.0","0","0","39014","","null","","","null","26","NaN","","","","","","","","","","","","","","",""
"","S2","","html-keyboard-response","179","536628","0.0-1.0-238.0","0","0","39014","","null","","","null","26","","NaN","","","","","","","","","","","","","",""
"","response","","html-keyboard-response","180","537550","0.0-1.0-239.0","0","0","39014","","919","","","68","26","","","1","26","training","adjacent","CD","3","4","R.jpg","N.jpg","1","1","1","",""
"","feedback","","html-keyboard-response","181","538555","0.0-1.0-240.0-0.0","0","0","39014","","null","","","null","26","","","","","","","","","","","","","","","",""
"","ITI","","html-keyboard-response","182","539561","0.0-1.0-243.0","0","0","39014","","null","","","null","26","","","","","","","","","","","","","","","NaN",""
"","S1","","html-keyboard-response","183","539815","0.0-1.0-245.0","0","0","39014","","null","","","null","27","","","","","","","","","","","","","","","",""
"","ISI","","html-keyboard-response","184","541819","0.0-1.0-246.0","0","0","39014","","null","","","null","27","NaN","","","","","","","","","","","","","","",""
"","S2","","html-keyboard-response","185","542074","0.0-1.0-247.0","0","0","39014","","null","","","null","27","","NaN","","","","","","","","","","","","","",""
"","response","","html-keyboard-response","186","542831","0.0-1.0-248.0","0","0","39014","","752","","","68","27","","","1","27","training","adjacent","GF","7","6","P.jpg","O.jpg","1","0","0","",""
"","feedback","","html-keyboard-response","187","543836","0.0-1.0-249.0-0.0","0","0","39014","","null","","","null","27","","","","","","","","","","","","","","","",""
"","time_out","","html-keyboard-response","188","545840","0.0-1.0-251.0-0.0","0","0","39014","","null","","","null","27","","","","","","","","","","","","","","","",""
"","ITI","","html-keyboard-response","189","546844","0.0-1.0-252.0","0","0","39014","","null","","","null","27","","","","","","","","","","","","","","","NaN",""
"","S1","","html-keyboard-response","190","547099","0.0-1.0-254.0","0","0","39014","","null","","","null","28","","","","","","","","","","","","","","","",""
"","ISI","","html-keyboard-response","191","549104","0.0-1.0-255.0","0","0","39014","","null","","","null","28","NaN","","","","","","","","","","","","","","",""
"","S2","","html-keyboard-response","192","549358","0.0-1.0-256.0","0","0","39014","","null","","","null","28","","NaN","","","","","","","","","","","","","",""
"","response","","html-keyboard-response","193","550366","0.0-1.0-257.0","0","0","39014","","1005","","","68","28","","","1","28","training","adjacent","BC","2","3","M.jpg","R.jpg","1","1","1","",""
"","feedback","","html-keyboard-response","194","551371","0.0-1.0-258.0-0.0","0","0","39014","","null","","","null","28","","","","","","","","","","","","","","","",""
"","ITI","","html-keyboard-response","195","552378","0.0-1.0-261.0","0","0","39014","","null","","","null","28","","","","","","","","","","","","","","","NaN",""
"","S1","","html-keyboard-response","196","552633","0.0-1.0-263.0","0","0","39014","","null","","","null","29","","","","","","","","","","","","","","","",""
"","ISI","","html-keyboard-response","197","554637","0.0-1.0-264.0","0","0","39014","","null","","","null","29","NaN","","","","","","","","","","","","","","",""
"","S2","","html-keyboard-response","198","554892","0.0-1.0-265.0","0","0","39014","","null","","","null","29","","NaN","","","","","","","","","","","","","",""
"","response","","html-keyboard-response","199","555472","0.0-1.0-266.0","0","0","39014","","577","","","75","29","","","1","29","training","adjacent","BA","2","1","M.jpg","Q.jpg","0","0","1","",""
"","feedback","","html-keyboard-response","200","556477","0.0-1.0-267.0-0.0","0","0","39014","","null","","","null","29","","","","","","","","","","","","","","","",""
"","ITI","","html-keyboard-response","201","557480","0.0-1.0-270.0","0","0","39014","","null","","","null","29","","","","","","","","","","","","","","","NaN",""
"","S1","","html-keyboard-response","202","557734","0.0-1.0-272.0","0","0","39014","","null","","","null","30","","","","","","","","","","","","","","","",""
"","ISI","","html-keyboard-response","203","559739","0.0-1.0-273.0","0","0","39014","","null","","","null","30","NaN","","","","","","","","","","","","","","",""
"","S2","","html-keyboard-response","204","559994","0.0-1.0-274.0","0","0","39014","","null","","","null","30","","NaN","","","","","","","","","","","","","",""
"","response","","html-keyboard-response","205","561321","0.0-1.0-275.0","0","0","39014","","1323","","","68","30","","","1","30","training","adjacent","DC","4","3","N.jpg","R.jpg","1","0","0","",""
"","feedback","","html-keyboard-response","206","562326","0.0-1.0-276.0-0.0","0","0","39014","","null","","","null","30","","","","","","","","","","","","","","","",""
"","time_out","","html-keyboard-response","207","564330","0.0-1.0-278.0-0.0","0","0","39014","","null","","","null","30","","","","","","","","","","","","","","","",""
"","ITI","","html-keyboard-response","208","565334","0.0-1.0-279.0","0","0","39014","","null","","","null","30","","","","","","","","","","","","","","","NaN",""
"","S1","","html-keyboard-response","209","565588","0.0-1.0-281.0","0","0","39014","","null","","","null","31","","","","","","","","","","","","","","","",""
"","ISI","","html-keyboard-response","210","567592","0.0-1.0-282.0","0","0","39014","","null","","","null","31","NaN","","","","","","","","","","","","","","",""
"","S2","","html-keyboard-response","211","567847","0.0-1.0-283.0","0","0","39014","","null","","","null","31","","NaN","","","","","","","","","","","","","",""
"","response","","html-keyboard-response","212","569311","0.0-1.0-284.0","0","0","39014","","1460","","","75","31","","","1","31","training","adjacent","CB","3","2","R.jpg","M.jpg","0","0","1","",""
"","feedback","","html-keyboard-response","213","570315","0.0-1.0-285.0-0.0","0","0","39014","","null","","","null","31","","","","","","","","","","","","","","","",""
"","ITI","","html-keyboard-response","214","571321","0.0-1.0-288.0","0","0","39014","","null","","","null","31","","","","","","","","","","","","","","","NaN",""
"","S1","","html-keyboard-response","215","571577","0.0-1.0-290.0","0","0","39014","","null","","","null","32","","","","","","","","","","","","","","","",""
"","ISI","","html-keyboard-response","216","573581","0.0-1.0-291.0","0","0","39014","","null","","","null","32","NaN","","","","","","","","","","","","","","",""
"","S2","","html-keyboard-response","217","573835","0.0-1.0-292.0","0","0","39014","","null","","","null","32","","NaN","","","","","","","","","","","","","",""
"","response","","html-keyboard-response","218","574956","0.0-1.0-293.0","0","0","39014","","1119","","","68","32","","","1","32","training","adjacent","FE","6","5","O.jpg","L.jpg","1","0","0","",""
"","feedback","","html-keyboard-response","219","575960","0.0-1.0-294.0-0.0","0","0","39014","","null","","","null","32","","","","","","","","","","","","","","","",""
"","time_out","","html-keyboard-response","220","577964","0.0-1.0-296.0-0.0","0","0","39014","","null","","","null","32","","","","","","","","","","","","","","","",""
"","ITI","","html-keyboard-response","221","578968","0.0-1.0-297.0","0","0","39014","","null","","","null","32","","","","","","","","","","","","","","","NaN",""
"","S1","","html-keyboard-response","222","579223","0.0-1.0-299.0","0","0","39014","","null","","","null","33","","","","","","","","","","","","","","","",""
"","ISI","","html-keyboard-response","223","581227","0.0-1.0-300.0","0","0","39014","","null","","","null","33","NaN","","","","","","","","","","","","","","",""
"","S2","","html-keyboard-response","224","581482","0.0-1.0-301.0","0","0","39014","","null","","","null","33","","NaN","","","","","","","","","","","","","",""
"","response","","html-keyboard-response","225","581903","0.0-1.0-302.0","0","0","39014","","417","","","68","33","","","1","33","training","adjacent","AB","1","2","Q.jpg","M.jpg","1","1","1","",""
"","feedback","","html-keyboard-response","226","582906","0.0-1.0-303.0-0.0","0","0","39014","","null","","","null","33","","","","","","","","","","","","","","","",""
"","ITI","","html-keyboard-response","227","583910","0.0-1.0-306.0","0","0","39014","","null","","","null","33","","","","","","","","","","","","","","","NaN",""
"","S1","","html-keyboard-response","228","584165","0.0-1.0-308.0","0","0","39014","","null","","","null","34","","","","","","","","","","","","","","","",""
"","ISI","","html-keyboard-response","229","586169","0.0-1.0-309.0","0","0","39014","","null","","","null","34","NaN","","","","","","","","","","","","","","",""
"","S2","","html-keyboard-response","230","586424","0.0-1.0-310.0","0","0","39014","","null","","","null","34","","NaN","","","","","","","","","","","","","",""
"","response","","html-keyboard-response","231","587449","0.0-1.0-311.0","0","0","39014","","1022","","","75","34","","","1","34","training","adjacent","FE","6","5","O.jpg","L.jpg","0","0","1","",""
"","feedback","","html-keyboard-response","232","588455","0.0-1.0-312.0-0.0","0","0","39014","","null","","","null","34","","","","","","","","","","","","","","","",""
"","ITI","","html-keyboard-response","233","589459","0.0-1.0-315.0","0","0","39014","","null","","","null","34","","","","","","","","","","","","","","","NaN",""
"","S1","","html-keyboard-response","234","589714","0.0-1.0-317.0","0","0","39014","","null","","","null","35","","","","","","","","","","","","","","","",""
"","ISI","","html-keyboard-response","235","591718","0.0-1.0-318.0","0","0","39014","","null","","","null","35","NaN","","","","","","","","","","","","","","",""
"","S2","","html-keyboard-response","236","591971","0.0-1.0-319.0","0","0","39014","","null","","","null","35","","NaN","","","","","","","","","","","","","",""
"","response","","html-keyboard-response","237","593101","0.0-1.0-320.0","0","0","39014","","1126","","","75","35","","","1","35","training","adjacent","CB","3","2","R.jpg","M.jpg","0","0","1","",""
"","feedback","","html-keyboard-response","238","594107","0.0-1.0-321.0-0.0","0","0","39014","","null","","","null","35","","","","","","","","","","","","","","","",""
"","ITI","","html-keyboard-response","239","595111","0.0-1.0-324.0","0","0","39014","","null","","","null","35","","","","","","","","","","","","","","","NaN",""
"","S1","","html-keyboard-response","240","595366","0.0-1.0-326.0","0","0","39014","","null","","","null","36","","","","","","","","","","","","","","","",""
"","ISI","","html-keyboard-response","241","597370","0.0-1.0-327.0","0","0","39014","","null","","","null","36","NaN","","","","","","","","","","","","","","",""
"","S2","","html-keyboard-response","242","597624","0.0-1.0-328.0","0","0","39014","","null","","","null","36","","NaN","","","","","","","","","","","","","",""
"","response","","html-keyboard-response","243","598357","0.0-1.0-329.0","0","0","39014","","729","","","75","36","","","1","36","training","adjacent","BA","2","1","M.jpg","Q.jpg","0","0","1","",""
"","feedback","","html-keyboard-response","244","599362","0.0-1.0-330.0-0.0","0","0","39014","","null","","","null","36","","","","","","","","","","","","","","","",""
"","ITI","","html-keyboard-response","245","600367","0.0-1.0-333.0","0","0","39014","","null","","","null","36","","","","","","","","","","","","","","","NaN",""
"","S1","","html-keyboard-response","246","600622","0.0-1.0-335.0","0","0","39014","","null","","","null","37","","","","","","","","","","","","","","","",""
"","ISI","","html-keyboard-response","247","602626","0.0-1.0-336.0","0","0","39014","","null","","","null","37","NaN","","","","","","","","","","","","","","",""
"","S2","","html-keyboard-response","248","602881","0.0-1.0-337.0","0","0","39014","","null","","","null","37","","NaN","","","","","","","","","","","","","",""
"","response","","html-keyboard-response","249","603278","0.0-1.0-338.0","0","0","39014","","394","","","68","37","","","1","37","training","adjacent","FG","6","7","O.jpg","P.jpg","1","1","1","",""
"","feedback","","html-keyboard-response","250","604284","0.0-1.0-339.0-0.0","0","0","39014","","null","","","null","37","","","","","","","","","","","","","","","",""
"","ITI","","html-keyboard-response","251","605289","0.0-1.0-342.0","0","0","39014","","null","","","null","37","","","","","","","","","","","","","","","NaN",""
"","S1","","html-keyboard-response","252","605544","0.0-1.0-344.0","0","0","39014","","null","","","null","38","","","","","","","","","","","","","","","",""
"","ISI","","html-keyboard-response","253","607548","0.0-1.0-345.0","0","0","39014","","null","","","null","38","NaN","","","","","","","","","","","","","","",""
"","S2","","html-keyboard-response","254","607802","0.0-1.0-346.0","0","0","39014","","null","","","null","38","","NaN","","","","","","","","","","","","","",""
"","response","","html-keyboard-response","255","608366","0.0-1.0-347.0","0","0","39014","","560","","","68","38","","","1","38","training","adjacent","AB","1","2","Q.jpg","M.jpg","1","1","1","",""
"","feedback","","html-keyboard-response","256","609371","0.0-1.0-348.0-0.0","0","0","39014","","null","","","null","38","","","","","","","","","","","","","","","",""
"","ITI","","html-keyboard-response","257","610376","0.0-1.0-351.0","0","0","39014","","null","","","null","38","","","","","","","","","","","","","","","NaN",""
"","S1","","html-keyboard-response","258","610631","0.0-1.0-353.0","0","0","39014","","null","","","null","39","","","","","","","","","","","","","","","",""
"","ISI","","html-keyboard-response","259","612635","0.0-1.0-354.0","0","0","39014","","null","","","null","39","NaN","","","","","","","","","","","","","","",""
"","S2","","html-keyboard-response","260","612890","0.0-1.0-355.0","0","0","39014","","null","","","null","39","","NaN","","","","","","","","","","","","","",""
"","response","","html-keyboard-response","261","614103","0.0-1.0-356.0","0","0","39014","","1208","","","68","39","","","1","39","training","adjacent","EF","5","6","L.jpg","O.jpg","1","1","1","",""
"","feedback","","html-keyboard-response","262","615107","0.0-1.0-357.0-0.0","0","0","39014","","null","","","null","39","","","","","","","","","","","","","","","",""
"","ITI","","html-keyboard-response","263","616110","0.0-1.0-360.0","0","0","39014","","null","","","null","39","","","","","","","","","","","","","","","NaN",""
"","S1","","html-keyboard-response","264","616364","0.0-1.0-362.0","0","0","39014","","null","","","null","40","","","","","","","","","","","","","","","",""
"","ISI","","html-keyboard-response","265","618368","0.0-1.0-363.0","0","0","39014","","null","","","null","40","NaN","","","","","","","","","","","","","","",""
"","S2","","html-keyboard-response","266","618623","0.0-1.0-364.0","0","0","39014","","null","","","null","40","","NaN","","","","","","","","","","","","","",""
"","response","","html-keyboard-response","267","620149","0.0-1.0-365.0","0","0","39014","","1521","","","75","40","","","1","40","training","adjacent","FG","6","7","O.jpg","P.jpg","0","1","0","",""
"","feedback","","html-keyboard-response","268","621154","0.0-1.0-366.0-0.0","0","0","39014","","null","","","null","40","","","","","","","","","","","","","","","",""
"","time_out","","html-keyboard-response","269","623158","0.0-1.0-368.0-0.0","0","0","39014","","null","","","null","40","","","","","","","","","","","","","","","",""
"","ITI","","html-keyboard-response","270","624162","0.0-1.0-369.0","0","0","39014","","null","","","null","40","","","","","","","","","","","","","","","NaN",""
"","S1","","html-keyboard-response","271","624417","0.0-1.0-371.0","0","0","39014","","null","","","null","41","","","","","","","","","","","","","","","",""
"","ISI","","html-keyboard-response","272","626421","0.0-1.0-372.0","0","0","39014","","null","","","null","41","NaN","","","","","","","","","","","","","","",""
"","S2","","html-keyboard-response","273","626676","0.0-1.0-373.0","0","0","39014","","null","","","null","41","","NaN","","","","","","","","","","","","","",""
"","response","","html-keyboard-response","274","627543","0.0-1.0-374.0","0","0","39014","","862","","","68","41","","","1","41","training","adjacent","EF","5","6","L.jpg","O.jpg","1","1","1","",""
"","feedback","","html-keyboard-response","275","628547","0.0-1.0-375.0-0.0","0","0","39014","","null","","","null","41","","","","","","","","","","","","","","","",""
"","ITI","","html-keyboard-response","276","629551","0.0-1.0-378.0","0","0","39014","","null","","","null","41","","","","","","","","","","","","","","","NaN",""
"","S1","","html-keyboard-response","277","629807","0.0-1.0-380.0","0","0","39014","","null","","","null","42","","","","","","","","","","","","","","","",""
"","ISI","","html-keyboard-response","278","631812","0.0-1.0-381.0","0","0","39014","","null","","","null","42","NaN","","","","","","","","","","","","","","",""
"","S2","","html-keyboard-response","279","632067","0.0-1.0-382.0","0","0","39014","","null","","","null","42","","NaN","","","","","","","","","","","","","",""
"","response","","html-keyboard-response","280","633110","0.0-1.0-383.0","0","0","39014","","1038","","","68","42","","","1","42","training","adjacent","BC","2","3","M.jpg","R.jpg","1","1","1","",""
"","feedback","","html-keyboard-response","281","634115","0.0-1.0-384.0-0.0","0","0","39014","","null","","","null","42","","","","","","","","","","","","","","","",""
"","ITI","","html-keyboard-response","282","635119","0.0-1.0-387.0","0","0","39014","","null","","","null","42","","","","","","","","","","","","","","","NaN",""
"","S1","","html-keyboard-response","283","635375","0.0-1.0-389.0","0","0","39014","","null","","","null","43","","","","","","","","","","","","","","","",""
"","ISI","","html-keyboard-response","284","637378","0.0-1.0-390.0","0","0","39014","","null","","","null","43","NaN","","","","","","","","","","","","","","",""
"","S2","","html-keyboard-response","285","637632","0.0-1.0-391.0","0","0","39014","","null","","","null","43","","NaN","","","","","","","","","","","","","",""
"","response","","html-keyboard-response","286","638177","0.0-1.0-392.0","0","0","39014","","542","","","75","43","","","1","43","training","adjacent","GF","7","6","P.jpg","O.jpg","0","0","1","",""
"","feedback","","html-keyboard-response","287","639183","0.0-1.0-393.0-0.0","0","0","39014","","null","","","null","43","","","","","","","","","","","","","","","",""
"","ITI","","html-keyboard-response","288","640188","0.0-1.0-396.0","0","0","39014","","null","","","null","43","","","","","","","","","","","","","","","NaN",""
"","S1","","html-keyboard-response","289","640443","0.0-1.0-398.0","0","0","39014","","null","","","null","44","","","","","","","","","","","","","","","",""
"","ISI","","html-keyboard-response","290","642447","0.0-1.0-399.0","0","0","39014","","null","","","null","44","NaN","","","","","","","","","","","","","","",""
"","S2","","html-keyboard-response","291","642702","0.0-1.0-400.0","0","0","39014","","null","","","null","44","","NaN","","","","","","","","","","","","","",""
"","response","","html-keyboard-response","292","643122","0.0-1.0-401.0","0","0","39014","","416","","","68","44","","","1","44","training","adjacent","BC","2","3","M.jpg","R.jpg","1","1","1","",""
"","feedback","","html-keyboard-response","293","644127","0.0-1.0-402.0-0.0","0","0","39014","","null","","","null","44","","","","","","","","","","","","","","","",""
"","ITI","","html-keyboard-response","294","645131","0.0-1.0-405.0","0","0","39014","","null","","","null","44","","","","","","","","","","","","","","","NaN",""
"","S1","","html-keyboard-response","295","645386","0.0-1.0-407.0","0","0","39014","","null","","","null","45","","","","","","","","","","","","","","","",""
"","ISI","","html-keyboard-response","296","647390","0.0-1.0-408.0","0","0","39014","","null","","","null","45","NaN","","","","","","","","","","","","","","",""
"","S2","","html-keyboard-response","297","647645","0.0-1.0-409.0","0","0","39014","","null","","","null","45","","NaN","","","","","","","","","","","","","",""
"","response","","html-keyboard-response","298","648179","0.0-1.0-410.0","0","0","39014","","531","","","68","45","","","1","45","training","adjacent","DE","4","5","N.jpg","L.jpg","1","1","1","",""
"","feedback","","html-keyboard-response","299","649184","0.0-1.0-411.0-0.0","0","0","39014","","null","","","null","45","","","","","","","","","","","","","","","",""
"","ITI","","html-keyboard-response","300","650188","0.0-1.0-414.0","0","0","39014","","null","","","null","45","","","","","","","","","","","","","","","NaN",""
"","S1","","html-keyboard-response","301","650443","0.0-1.0-416.0","0","0","39014","","null","","","null","46","","","","","","","","","","","","","","","",""
"","ISI","","html-keyboard-response","302","652447","0.0-1.0-417.0","0","0","39014","","null","","","null","46","NaN","","","","","","","","","","","","","","",""
"","S2","","html-keyboard-response","303","652702","0.0-1.0-418.0","0","0","39014","","null","","","null","46","","NaN","","","","","","","","","","","","","",""
"","response","","html-keyboard-response","304","653730","0.0-1.0-419.0","0","0","39014","","1024","","","68","46","","","1","46","training","adjacent","BC","2","3","M.jpg","R.jpg","1","1","1","",""
"","feedback","","html-keyboard-response","305","654735","0.0-1.0-420.0-0.0","0","0","39014","","null","","","null","46","","","","","","","","","","","","","","","",""
"","ITI","","html-keyboard-response","306","655739","0.0-1.0-423.0","0","0","39014","","null","","","null","46","","","","","","","","","","","","","","","NaN",""
"","S1","","html-keyboard-response","307","655993","0.0-1.0-425.0","0","0","39014","","null","","","null","47","","","","","","","","","","","","","","","",""
"","ISI","","html-keyboard-response","308","657997","0.0-1.0-426.0","0","0","39014","","null","","","null","47","NaN","","","","","","","","","","","","","","",""
"","S2","","html-keyboard-response","309","658252","0.0-1.0-427.0","0","0","39014","","null","","","null","47","","NaN","","","","","","","","","","","","","",""
"","response","","html-keyboard-response","310","659722","0.0-1.0-428.0","0","0","39014","","1466","","","68","47","","","1","47","training","adjacent","FG","6","7","O.jpg","P.jpg","1","1","1","",""
"","feedback","","html-keyboard-response","311","660727","0.0-1.0-429.0-0.0","0","0","39014","","null","","","null","47","","","","","","","","","","","","","","","",""
"","ITI","","html-keyboard-response","312","661732","0.0-1.0-432.0","0","0","39014","","null","","","null","47","","","","","","","","","","","","","","","NaN",""
"","block_over","","html-keyboard-response","313","678564","0.0-1.0-433.0-0.0","0","0","39014","","16825","","","32","47","","","","","","","","","","","","","","","",""
"","S1","","html-keyboard-response","314","678819","0.0-1.0-434.0","0","0","39014","","null","","","null","48","","","","","","","","","","","","","","","",""
"","ISI","","html-keyboard-response","315","680823","0.0-1.0-435.0","0","0","39014","","null","","","null","48","NaN","","","","","","","","","","","","","","",""
"","S2","","html-keyboard-response","316","681078","0.0-1.0-436.0","0","0","39014","","null","","","null","48","","NaN","","","","","","","","","","","","","",""
"","response","","html-keyboard-response","317","682350","0.0-1.0-437.0","0","0","39014","","1268","","","68","48","","","2","48","training","adjacent","CD","3","4","R.jpg","N.jpg","1","1","1","",""
"","feedback","","html-keyboard-response","318","683355","0.0-1.0-438.0-0.0","0","0","39014","","null","","","null","48","","","","","","","","","","","","","","","",""
"","ITI","","html-keyboard-response","319","684360","0.0-1.0-441.0","0","0","39014","","null","","","null","48","","","","","","","","","","","","","","","NaN",""
"","S1","","html-keyboard-response","320","684615","0.0-1.0-443.0","0","0","39014","","null","","","null","49","","","","","","","","","","","","","","","",""
"","ISI","","html-keyboard-response","321","686619","0.0-1.0-444.0","0","0","39014","","null","","","null","49","NaN","","","","","","","","","","","","","","",""
"","S2","","html-keyboard-response","322","686874","0.0-1.0-445.0","0","0","39014","","null","","","null","49","","NaN","","","","","","","","","","","","","",""
"","response","","html-keyboard-response","323","687974","0.0-1.0-446.0","0","0","39014","","1097","","","68","49","","","2","49","training","adjacent","FG","6","7","O.jpg","P.jpg","1","1","1","",""
"","feedback","","html-keyboard-response","324","688979","0.0-1.0-447.0-0.0","0","0","39014","","null","","","null","49","","","","","","","","","","","","","","","",""
"","ITI","","html-keyboard-response","325","689984","0.0-1.0-450.0","0","0","39014","","null","","","null","49","","","","","","","","","","","","","","","NaN",""
"","S1","","html-keyboard-response","326","690239","0.0-1.0-452.0","0","0","39014","","null","","","null","50","","","","","","","","","","","","","","","",""
"","ISI","","html-keyboard-response","327","692245","0.0-1.0-453.0","0","0","39014","","null","","","null","50","NaN","","","","","","","","","","","","","","",""
"","S2","","html-keyboard-response","328","692500","0.0-1.0-454.0","0","0","39014","","null","","","null","50","","NaN","","","","","","","","","","","","","",""
"","response","","html-keyboard-response","329","693179","0.0-1.0-455.0","0","0","39014","","676","","","68","50","","","2","50","training","adjacent","FG","6","7","O.jpg","P.jpg","1","1","1","",""
"","feedback","","html-keyboard-response","330","694184","0.0-1.0-456.0-0.0","0","0","39014","","null","","","null","50","","","","","","","","","","","","","","","",""
"","ITI","","html-keyboard-response","331","695189","0.0-1.0-459.0","0","0","39014","","null","","","null","50","","","","","","","","","","","","","","","NaN",""
"","S1","","html-keyboard-response","332","695444","0.0-1.0-461.0","0","0","39014","","null","","","null","51","","","","","","","","","","","","","","","",""
"","ISI","","html-keyboard-response","333","697448","0.0-1.0-462.0","0","0","39014","","null","","","null","51","NaN","","","","","","","","","","","","","","",""
"","S2","","html-keyboard-response","334","697703","0.0-1.0-463.0","0","0","39014","","null","","","null","51","","NaN","","","","","","","","","","","","","",""
"","response","","html-keyboard-response","335","698665","0.0-1.0-464.0","0","0","39014","","958","","","75","51","","","2","51","training","adjacent","DC","4","3","N.jpg","R.jpg","0","0","1","",""
"","feedback","","html-keyboard-response","336","699671","0.0-1.0-465.0-0.0","0","0","39014","","null","","","null","51","","","","","","","","","","","","","","","",""
"","ITI","","html-keyboard-response","337","700675","0.0-1.0-468.0","0","0","39014","","null","","","null","51","","","","","","","","","","","","","","","NaN",""
"","S1","","html-keyboard-response","338","700930","0.0-1.0-470.0","0","0","39014","","null","","","null","52","","","","","","","","","","","","","","","",""
"","ISI","","html-keyboard-response","339","702934","0.0-1.0-471.0","0","0","39014","","null","","","null","52","NaN","","","","","","","","","","","","","","",""
"","S2","","html-keyboard-response","340","703189","0.0-1.0-472.0","0","0","39014","","null","","","null","52","","NaN","","","","","","","","","","","","","",""
"","response","","html-keyboard-response","341","704379","0.0-1.0-473.0","0","0","39014","","1186","","","75","52","","","2","52","training","adjacent","FE","6","5","O.jpg","L.jpg","0","0","1","",""
"","feedback","","html-keyboard-response","342","705384","0.0-1.0-474.0-0.0","0","0","39014","","null","","","null","52","","","","","","","","","","","","","","","",""
"","ITI","","html-keyboard-response","343","706389","0.0-1.0-477.0","0","0","39014","","null","","","null","52","","","","","","","","","","","","","","","NaN",""
"","S1","","html-keyboard-response","344","706644","0.0-1.0-479.0","0","0","39014","","null","","","null","53","","","","","","","","","","","","","","","",""
"","ISI","","html-keyboard-response","345","708648","0.0-1.0-480.0","0","0","39014","","null","","","null","53","NaN","","","","","","","","","","","","","","",""
"","S2","","html-keyboard-response","346","708903","0.0-1.0-481.0","0","0","39014","","null","","","null","53","","NaN","","","","","","","","","","","","","",""
"","response","","html-keyboard-response","347","709565","0.0-1.0-482.0","0","0","39014","","657","","","75","53","","","2","53","training","adjacent","CD","3","4","R.jpg","N.jpg","0","1","0","",""
"","feedback","","html-keyboard-response","348","710571","0.0-1.0-483.0-0.0","0","0","39014","","null","","","null","53","","","","","","","","","","","","","","","",""
"","time_out","","html-keyboard-response","349","712575","0.0-1.0-485.0-0.0","0","0","39014","","null","","","null","53","","","","","","","","","","","","","","","",""
"","ITI","","html-keyboard-response","350","713580","0.0-1.0-486.0","0","0","39014","","null","","","null","53","","","","","","","","","","","","","","","NaN",""
"","S1","","html-keyboard-response","351","713834","0.0-1.0-488.0","0","0","39014","","null","","","null","54","","","","","","","","","","","","","","","",""
"","ISI","","html-keyboard-response","352","715838","0.0-1.0-489.0","0","0","39014","","null","","","null","54","NaN","","","","","","","","","","","","","","",""
"","S2","","html-keyboard-response","353","716094","0.0-1.0-490.0","0","0","39014","","null","","","null","54","","NaN","","","","","","","","","","","","","",""
"","response","","html-keyboard-response","354","716628","0.0-1.0-491.0","0","0","39014","","530","","","68","54","","","2","54","training","adjacent","AB","1","2","Q.jpg","M.jpg","1","1","1","",""
"","feedback","","html-keyboard-response","355","717633","0.0-1.0-492.0-0.0","0","0","39014","","null","","","null","54","","","","","","","","","","","","","","","",""
"","ITI","","html-keyboard-response","356","718638","0.0-1.0-495.0","0","0","39014","","null","","","null","54","","","","","","","","","","","","","","","NaN",""
"","S1","","html-keyboard-response","357","718893","0.0-1.0-497.0","0","0","39014","","null","","","null","55","","","","","","","","","","","","","","","",""
"","ISI","","html-keyboard-response","358","720897","0.0-1.0-498.0","0","0","39014","","null","","","null","55","NaN","","","","","","","","","","","","","","",""
"","S2","","html-keyboard-response","359","721152","0.0-1.0-499.0","0","0","39014","","null","","","null","55","","NaN","","","","","","","","","","","","","",""
"","response","","html-keyboard-response","360","722665","0.0-1.0-500.0","0","0","39014","","1510","","","68","55","","","2","55","training","adjacent","FE","6","5","O.jpg","L.jpg","1","0","0","",""
"","feedback","","html-keyboard-response","361","723670","0.0-1.0-501.0-0.0","0","0","39014","","null","","","null","55","","","","","","","","","","","","","","","",""
"","time_out","","html-keyboard-response","362","725675","0.0-1.0-503.0-0.0","0","0","39014","","null","","","null","55","","","","","","","","","","","","","","","",""
"","ITI","","html-keyboard-response","363","726679","0.0-1.0-504.0","0","0","39014","","null","","","null","55","","","","","","","","","","","","","","","NaN",""
"","S1","","html-keyboard-response","364","726934","0.0-1.0-506.0","0","0","39014","","null","","","null","56","","","","","","","","","","","","","","","",""
"","ISI","","html-keyboard-response","365","728938","0.0-1.0-507.0","0","0","39014","","null","","","null","56","NaN","","","","","","","","","","","","","","",""
"","S2","","html-keyboard-response","366","729193","0.0-1.0-508.0","0","0","39014","","null","","","null","56","","NaN","","","","","","","","","","","","","",""
"","response","","html-keyboard-response","367","729628","0.0-1.0-509.0","0","0","39014","","431","","","68","56","","","2","56","training","adjacent","BC","2","3","M.jpg","R.jpg","1","1","1","",""
"","feedback","","html-keyboard-response","368","730633","0.0-1.0-510.0-0.0","0","0","39014","","null","","","null","56","","","","","","","","","","","","","","","",""
"","ITI","","html-keyboard-response","369","731638","0.0-1.0-513.0","0","0","39014","","null","","","null","56","","","","","","","","","","","","","","","NaN",""
"","S1","","html-keyboard-response","370","731894","0.0-1.0-515.0","0","0","39014","","null","","","null","57","","","","","","","","","","","","","","","",""
"","ISI","","html-keyboard-response","371","733898","0.0-1.0-516.0","0","0","39014","","null","","","null","57","NaN","","","","","","","","","","","","","","",""
"","S2","","html-keyboard-response","372","734153","0.0-1.0-517.0","0","0","39014","","null","","","null","57","","NaN","","","","","","","","","","","","","",""
"","response","","html-keyboard-response","373","734917","0.0-1.0-518.0","0","0","39014","","760","","","75","57","","","2","57","training","adjacent","FE","6","5","O.jpg","L.jpg","0","0","1","",""
"","feedback","","html-keyboard-response","374","735922","0.0-1.0-519.0-0.0","0","0","39014","","null","","","null","57","","","","","","","","","","","","","","","",""
"","ITI","","html-keyboard-response","375","736927","0.0-1.0-522.0","0","0","39014","","null","","","null","57","","","","","","","","","","","","","","","NaN",""
"","S1","","html-keyboard-response","376","737182","0.0-1.0-524.0","0","0","39014","","null","","","null","58","","","","","","","","","","","","","","","",""
"","ISI","","html-keyboard-response","377","739186","0.0-1.0-525.0","0","0","39014","","null","","","null","58","NaN","","","","","","","","","","","","","","",""
"","S2","","html-keyboard-response","378","739441","0.0-1.0-526.0","0","0","39014","","null","","","null","58","","NaN","","","","","","","","","","","","","",""
"","response","","html-keyboard-response","379","740544","0.0-1.0-527.0","0","0","39014","","1099","","","75","58","","","2","58","training","adjacent","CB","3","2","R.jpg","M.jpg","0","0","1","",""
"","feedback","","html-keyboard-response","380","741549","0.0-1.0-528.0-0.0","0","0","39014","","null","","","null","58","","","","","","","","","","","","","","","",""
"","ITI","","html-keyboard-response","381","742555","0.0-1.0-531.0","0","0","39014","","null","","","null","58","","","","","","","","","","","","","","","NaN",""
"","S1","","html-keyboard-response","382","742809","0.0-1.0-533.0","0","0","39014","","null","","","null","59","","","","","","","","","","","","","","","",""
"","ISI","","html-keyboard-response","383","744814","0.0-1.0-534.0","0","0","39014","","null","","","null","59","NaN","","","","","","","","","","","","","","",""
"","S2","","html-keyboard-response","384","745069","0.0-1.0-535.0","0","0","39014","","null","","","null","59","","NaN","","","","","","","","","","","","","",""
"","response","","html-keyboard-response","385","746474","0.0-1.0-536.0","0","0","39014","","1401","","","68","59","","","2","59","training","adjacent","DC","4","3","N.jpg","R.jpg","1","0","0","",""
"","feedback","","html-keyboard-response","386","747480","0.0-1.0-537.0-0.0","0","0","39014","","null","","","null","59","","","","","","","","","","","","","","","",""
"","time_out","","html-keyboard-response","387","749484","0.0-1.0-539.0-0.0","0","0","39014","","null","","","null","59","","","","","","","","","","","","","","","",""
"","ITI","","html-keyboard-response","388","750489","0.0-1.0-540.0","0","0","39014","","null","","","null","59","","","","","","","","","","","","","","","NaN",""
"","S1","","html-keyboard-response","389","750745","0.0-1.0-542.0","0","0","39014","","null","","","null","60","","","","","","","","","","","","","","","",""
"","ISI","","html-keyboard-response","390","752750","0.0-1.0-543.0","0","0","39014","","null","","","null","60","NaN","","","","","","","","","","","","","","",""
"","S2","","html-keyboard-response","391","753004","0.0-1.0-544.0","0","0","39014","","null","","","null","60","","NaN","","","","","","","","","","","","","",""
"","response","","html-keyboard-response","392","754607","0.0-1.0-545.0","0","0","39014","","1599","","","68","60","","","2","60","training","adjacent","EF","5","6","L.jpg","O.jpg","1","1","1","",""
"","feedback","","html-keyboard-response","393","755612","0.0-1.0-546.0-0.0","0","0","39014","","null","","","null","60","","","","","","","","","","","","","","","",""
"","ITI","","html-keyboard-response","394","756616","0.0-1.0-549.0","0","0","39014","","null","","","null","60","","","","","","","","","","","","","","","NaN",""
"","S1","","html-keyboard-response","395","756871","0.0-1.0-551.0","0","0","39014","","null","","","null","61","","","","","","","","","","","","","","","",""
"","ISI","","html-keyboard-response","396","758876","0.0-1.0-552.0","0","0","39014","","null","","","null","61","NaN","","","","","","","","","","","","","","",""
"","S2","","html-keyboard-response","397","759132","0.0-1.0-553.0","0","0","39014","","null","","","null","61","","NaN","","","","","","","","","","","","","",""
"","response","","html-keyboard-response","398","760349","0.0-1.0-554.0","0","0","39014","","1214","","","68","61","","","2","61","training","adjacent","FG","6","7","O.jpg","P.jpg","1","1","1","",""
"","feedback","","html-keyboard-response","399","761355","0.0-1.0-555.0-0.0","0","0","39014","","null","","","null","61","","","","","","","","","","","","","","","",""
"","ITI","","html-keyboard-response","400","762360","0.0-1.0-558.0","0","0","39014","","null","","","null","61","","","","","","","","","","","","","","","NaN",""
"","S1","","html-keyboard-response","401","762615","0.0-1.0-560.0","0","0","39014","","null","","","null","62","","","","","","","","","","","","","","","",""
"","ISI","","html-keyboard-response","402","764619","0.0-1.0-561.0","0","0","39014","","null","","","null","62","NaN","","","","","","","","","","","","","","",""
"","S2","","html-keyboard-response","403","764874","0.0-1.0-562.0","0","0","39014","","null","","","null","62","","NaN","","","","","","","","","","","","","",""
"","response","","html-keyboard-response","404","766295","0.0-1.0-563.0","0","0","39014","","1417","","","68","62","","","2","62","training","adjacent","EF","5","6","L.jpg","O.jpg","1","1","1","",""
"","feedback","","html-keyboard-response","405","767300","0.0-1.0-564.0-0.0","0","0","39014","","null","","","null","62","","","","","","","","","","","","","","","",""
"","ITI","","html-keyboard-response","406","768305","0.0-1.0-567.0","0","0","39014","","null","","","null","62","","","","","","","","","","","","","","","NaN",""
"","S1","","html-keyboard-response","407","768560","0.0-1.0-569.0","0","0","39014","","null","","","null","63","","","","","","","","","","","","","","","",""
"","ISI","","html-keyboard-response","408","770564","0.0-1.0-570.0","0","0","39014","","null","","","null","63","NaN","","","","","","","","","","","","","","",""
"","S2","","html-keyboard-response","409","770818","0.0-1.0-571.0","0","0","39014","","null","","","null","63","","NaN","","","","","","","","","","","","","",""
"","response","","html-keyboard-response","410","771846","0.0-1.0-572.0","0","0","39014","","1025","","","68","63","","","2","63","training","adjacent","EF","5","6","L.jpg","O.jpg","1","1","1","",""
"","feedback","","html-keyboard-response","411","772851","0.0-1.0-573.0-0.0","0","0","39014","","null","","","null","63","","","","","","","","","","","","","","","",""
"","ITI","","html-keyboard-response","412","773856","0.0-1.0-576.0","0","0","39014","","null","","","null","63","","","","","","","","","","","","","","","NaN",""
"","S1","","html-keyboard-response","413","774111","0.0-1.0-578.0","0","0","39014","","null","","","null","64","","","","","","","","","","","","","","","",""
"","ISI","","html-keyboard-response","414","776116","0.0-1.0-579.0","0","0","39014","","null","","","null","64","NaN","","","","","","","","","","","","","","",""
"","S2","","html-keyboard-response","415","776370","0.0-1.0-580.0","0","0","39014","","null","","","null","64","","NaN","","","","","","","","","","","","","",""
"","response","","html-keyboard-response","416","777023","0.0-1.0-581.0","0","0","39014","","650","","","75","64","","","2","64","training","adjacent","ED","5","4","L.jpg","N.jpg","0","0","1","",""
"","feedback","","html-keyboard-response","417","778028","0.0-1.0-582.0-0.0","0","0","39014","","null","","","null","64","","","","","","","","","","","","","","","",""
"","ITI","","html-keyboard-response","418","779034","0.0-1.0-585.0","0","0","39014","","null","","","null","64","","","","","","","","","","","","","","","NaN",""
"","S1","","html-keyboard-response","419","779289","0.0-1.0-587.0","0","0","39014","","null","","","null","65","","","","","","","","","","","","","","","",""
"","ISI","","html-keyboard-response","420","781293","0.0-1.0-588.0","0","0","39014","","null","","","null","65","NaN","","","","","","","","","","","","","","",""
"","S2","","html-keyboard-response","421","781548","0.0-1.0-589.0","0","0","39014","","null","","","null","65","","NaN","","","","","","","","","","","","","",""
"","response","","html-keyboard-response","422","782321","0.0-1.0-590.0","0","0","39014","","768","","","75","65","","","2","65","training","adjacent","CB","3","2","R.jpg","M.jpg","0","0","1","",""
"","feedback","","html-keyboard-response","423","783326","0.0-1.0-591.0-0.0","0","0","39014","","null","","","null","65","","","","","","","","","","","","","","","",""
"","ITI","","html-keyboard-response","424","784331","0.0-1.0-594.0","0","0","39014","","null","","","null","65","","","","","","","","","","","","","","","NaN",""
"","S1","","html-keyboard-response","425","784586","0.0-1.0-596.0","0","0","39014","","null","","","null","66","","","","","","","","","","","","","","","",""
"","ISI","","html-keyboard-response","426","786590","0.0-1.0-597.0","0","0","39014","","null","","","null","66","NaN","","","","","","","","","","","","","","",""
"","S2","","html-keyboard-response","427","786845","0.0-1.0-598.0","0","0","39014","","null","","","null","66","","NaN","","","","","","","","","","","","","",""
"","response","","html-keyboard-response","428","787906","0.0-1.0-599.0","0","0","39014","","1057","","","68","66","","","2","66","training","adjacent","FG","6","7","O.jpg","P.jpg","1","1","1","",""
"","feedback","","html-keyboard-response","429","788912","0.0-1.0-600.0-0.0","0","0","39014","","null","","","null","66","","","","","","","","","","","","","","","",""
"","ITI","","html-keyboard-response","430","789916","0.0-1.0-603.0","0","0","39014","","null","","","null","66","","","","","","","","","","","","","","","NaN",""
"","S1","","html-keyboard-response","431","790172","0.0-1.0-605.0","0","0","39014","","null","","","null","67","","","","","","","","","","","","","","","",""
"","ISI","","html-keyboard-response","432","792176","0.0-1.0-606.0","0","0","39014","","null","","","null","67","NaN","","","","","","","","","","","","","","",""
"","S2","","html-keyboard-response","433","792431","0.0-1.0-607.0","0","0","39014","","null","","","null","67","","NaN","","","","","","","","","","","","","",""
"","response","","html-keyboard-response","434","793135","0.0-1.0-608.0","0","0","39014","","699","","","68","67","","","2","67","training","adjacent","AB","1","2","Q.jpg","M.jpg","1","1","1","",""
"","feedback","","html-keyboard-response","435","794140","0.0-1.0-609.0-0.0","0","0","39014","","null","","","null","67","","","","","","","","","","","","","","","",""
"","ITI","","html-keyboard-response","436","795146","0.0-1.0-612.0","0","0","39014","","null","","","null","67","","","","","","","","","","","","","","","NaN",""
"","S1","","html-keyboard-response","437","795402","0.0-1.0-614.0","0","0","39014","","null","","","null","68","","","","","","","","","","","","","","","",""
"","ISI","","html-keyboard-response","438","797407","0.0-1.0-615.0","0","0","39014","","null","","","null","68","NaN","","","","","","","","","","","","","","",""
"","S2","","html-keyboard-response","439","797662","0.0-1.0-616.0","0","0","39014","","null","","","null","68","","NaN","","","","","","","","","","","","","",""
"","response","","html-keyboard-response","440","798292","0.0-1.0-617.0","0","0","39014","","626","","","68","68","","","2","68","training","adjacent","EF","5","6","L.jpg","O.jpg","1","1","1","",""
"","feedback","","html-keyboard-response","441","799297","0.0-1.0-618.0-0.0","0","0","39014","","null","","","null","68","","","","","","","","","","","","","","","",""
"","ITI","","html-keyboard-response","442","800302","0.0-1.0-621.0","0","0","39014","","null","","","null","68","","","","","","","","","","","","","","","NaN",""
"","S1","","html-keyboard-response","443","800558","0.0-1.0-623.0","0","0","39014","","null","","","null","69","","","","","","","","","","","","","","","",""
"","ISI","","html-keyboard-response","444","802562","0.0-1.0-624.0","0","0","39014","","null","","","null","69","NaN","","","","","","","","","","","","","","",""
"","S2","","html-keyboard-response","445","802817","0.0-1.0-625.0","0","0","39014","","null","","","null","69","","NaN","","","","","","","","","","","","","",""
"","response","","html-keyboard-response","446","803617","0.0-1.0-626.0","0","0","39014","","797","","","68","69","","","2","69","training","adjacent","DE","4","5","N.jpg","L.jpg","1","1","1","",""
"","feedback","","html-keyboard-response","447","804624","0.0-1.0-627.0-0.0","0","0","39014","","null","","","null","69","","","","","","","","","","","","","","","",""
"","ITI","","html-keyboard-response","448","805630","0.0-1.0-630.0","0","0","39014","","null","","","null","69","","","","","","","","","","","","","","","NaN",""
"","S1","","html-keyboard-response","449","805885","0.0-1.0-632.0","0","0","39014","","null","","","null","70","","","","","","","","","","","","","","","",""
"","ISI","","html-keyboard-response","450","807889","0.0-1.0-633.0","0","0","39014","","null","","","null","70","NaN","","","","","","","","","","","","","","",""
"","S2","","html-keyboard-response","451","808145","0.0-1.0-634.0","0","0","39014","","null","","","null","70","","NaN","","","","","","","","","","","","","",""
"","response","","html-keyboard-response","452","808919","0.0-1.0-635.0","0","0","39014","","771","","","75","70","","","2","70","training","adjacent","ED","5","4","L.jpg","N.jpg","0","0","1","",""
"","feedback","","html-keyboard-response","453","809924","0.0-1.0-636.0-0.0","0","0","39014","","null","","","null","70","","","","","","","","","","","","","","","",""
"","ITI","","html-keyboard-response","454","810929","0.0-1.0-639.0","0","0","39014","","null","","","null","70","","","","","","","","","","","","","","","NaN",""
"","S1","","html-keyboard-response","455","811184","0.0-1.0-641.0","0","0","39014","","null","","","null","71","","","","","","","","","","","","","","","",""
"","ISI","","html-keyboard-response","456","813190","0.0-1.0-642.0","0","0","39014","","null","","","null","71","NaN","","","","","","","","","","","","","","",""
"","S2","","html-keyboard-response","457","813445","0.0-1.0-643.0","0","0","39014","","null","","","null","71","","NaN","","","","","","","","","","","","","",""
"","response","","html-keyboard-response","458","814642","0.0-1.0-644.0","0","0","39014","","1194","","","68","71","","","2","71","training","adjacent","DE","4","5","N.jpg","L.jpg","1","1","1","",""
"","feedback","","html-keyboard-response","459","815648","0.0-1.0-645.0-0.0","0","0","39014","","null","","","null","71","","","","","","","","","","","","","","","",""
"","ITI","","html-keyboard-response","460","816653","0.0-1.0-648.0","0","0","39014","","null","","","null","71","","","","","","","","","","","","","","","NaN",""
"","S1","","html-keyboard-response","461","816909","0.0-1.0-650.0","0","0","39014","","null","","","null","72","","","","","","","","","","","","","","","",""
"","ISI","","html-keyboard-response","462","818913","0.0-1.0-651.0","0","0","39014","","null","","","null","72","NaN","","","","","","","","","","","","","","",""
"","S2","","html-keyboard-response","463","819168","0.0-1.0-652.0","0","0","39014","","null","","","null","72","","NaN","","","","","","","","","","","","","",""
"","response","","html-keyboard-response","464","820098","0.0-1.0-653.0","0","0","39014","","927","","","75","72","","","2","72","training","adjacent","GF","7","6","P.jpg","O.jpg","0","0","1","",""
"","feedback","","html-keyboard-response","465","821103","0.0-1.0-654.0-0.0","0","0","39014","","null","","","null","72","","","","","","","","","","","","","","","",""
"","ITI","","html-keyboard-response","466","822108","0.0-1.0-657.0","0","0","39014","","null","","","null","72","","","","","","","","","","","","","","","NaN",""
"","S1","","html-keyboard-response","467","822363","0.0-1.0-659.0","0","0","39014","","null","","","null","73","","","","","","","","","","","","","","","",""
"","ISI","","html-keyboard-response","468","824367","0.0-1.0-660.0","0","0","39014","","null","","","null","73","NaN","","","","","","","","","","","","","","",""
"","S2","","html-keyboard-response","469","824622","0.0-1.0-661.0","0","0","39014","","null","","","null","73","","NaN","","","","","","","","","","","","","",""
"","response","","html-keyboard-response","470","825782","0.0-1.0-662.0","0","0","39014","","1156","","","75","73","","","2","73","training","adjacent","FE","6","5","O.jpg","L.jpg","0","0","1","",""
"","feedback","","html-keyboard-response","471","826787","0.0-1.0-663.0-0.0","0","0","39014","","null","","","null","73","","","","","","","","","","","","","","","",""
"","ITI","","html-keyboard-response","472","827792","0.0-1.0-666.0","0","0","39014","","null","","","null","73","","","","","","","","","","","","","","","NaN",""
"","S1","","html-keyboard-response","473","828047","0.0-1.0-668.0","0","0","39014","","null","","","null","74","","","","","","","","","","","","","","","",""
"","ISI","","html-keyboard-response","474","830051","0.0-1.0-669.0","0","0","39014","","null","","","null","74","NaN","","","","","","","","","","","","","","",""
"","S2","","html-keyboard-response","475","830306","0.0-1.0-670.0","0","0","39014","","null","","","null","74","","NaN","","","","","","","","","","","","","",""
"","response","","html-keyboard-response","476","831175","0.0-1.0-671.0","0","0","39014","","865","","","68","74","","","2","74","training","adjacent","DE","4","5","N.jpg","L.jpg","1","1","1","",""
"","feedback","","html-keyboard-response","477","832180","0.0-1.0-672.0-0.0","0","0","39014","","null","","","null","74","","","","","","","","","","","","","","","",""
"","ITI","","html-keyboard-response","478","833186","0.0-1.0-675.0","0","0","39014","","null","","","null","74","","","","","","","","","","","","","","","NaN",""
"","S1","","html-keyboard-response","479","833442","0.0-1.0-677.0","0","0","39014","","null","","","null","75","","","","","","","","","","","","","","","",""
"","ISI","","html-keyboard-response","480","835446","0.0-1.0-678.0","0","0","39014","","null","","","null","75","NaN","","","","","","","","","","","","","","",""
"","S2","","html-keyboard-response","481","835701","0.0-1.0-679.0","0","0","39014","","null","","","null","75","","NaN","","","","","","","","","","","","","",""
"","response","","html-keyboard-response","482","836430","0.0-1.0-680.0","0","0","39014","","725","","","75","75","","","2","75","training","adjacent","GF","7","6","P.jpg","O.jpg","0","0","1","",""
"","feedback","","html-keyboard-response","483","837435","0.0-1.0-681.0-0.0","0","0","39014","","null","","","null","75","","","","","","","","","","","","","","","",""
"","ITI","","html-keyboard-response","484","838440","0.0-1.0-684.0","0","0","39014","","null","","","null","75","","","","","","","","","","","","","","","NaN",""
"","S1","","html-keyboard-response","485","838695","0.0-1.0-686.0","0","0","39014","","null","","","null","76","","","","","","","","","","","","","","","",""
"","ISI","","html-keyboard-response","486","840698","0.0-1.0-687.0","0","0","39014","","null","","","null","76","NaN","","","","","","","","","","","","","","",""
"","S2","","html-keyboard-response","487","840953","0.0-1.0-688.0","0","0","39014","","null","","","null","76","","NaN","","","","","","","","","","","","","",""
"","response","","html-keyboard-response","488","841602","0.0-1.0-689.0","0","0","39014","","645","","","68","76","","","2","76","training","adjacent","BC","2","3","M.jpg","R.jpg","1","1","1","",""
"","feedback","","html-keyboard-response","489","842607","0.0-1.0-690.0-0.0","0","0","39014","","null","","","null","76","","","","","","","","","","","","","","","",""
"","ITI","","html-keyboard-response","490","843613","0.0-1.0-693.0","0","0","39014","","null","","","null","76","","","","","","","","","","","","","","","NaN",""
"","S1","","html-keyboard-response","491","843868","0.0-1.0-695.0","0","0","39014","","null","","","null","77","","","","","","","","","","","","","","","",""
"","ISI","","html-keyboard-response","492","845872","0.0-1.0-696.0","0","0","39014","","null","","","null","77","NaN","","","","","","","","","","","","","","",""
"","S2","","html-keyboard-response","493","846127","0.0-1.0-697.0","0","0","39014","","null","","","null","77","","NaN","","","","","","","","","","","","","",""
"","response","","html-keyboard-response","494","847133","0.0-1.0-698.0","0","0","39014","","1001","","","75","77","","","2","77","training","adjacent","DC","4","3","N.jpg","R.jpg","0","0","1","",""
"","feedback","","html-keyboard-response","495","848138","0.0-1.0-699.0-0.0","0","0","39014","","null","","","null","77","","","","","","","","","","","","","","","",""
"","ITI","","html-keyboard-response","496","849143","0.0-1.0-702.0","0","0","39014","","null","","","null","77","","","","","","","","","","","","","","","NaN",""
"","S1","","html-keyboard-response","497","849398","0.0-1.0-704.0","0","0","39014","","null","","","null","78","","","","","","","","","","","","","","","",""
"","ISI","","html-keyboard-response","498","851402","0.0-1.0-705.0","0","0","39014","","null","","","null","78","NaN","","","","","","","","","","","","","","",""
"","S2","","html-keyboard-response","499","851657","0.0-1.0-706.0","0","0","39014","","null","","","null","78","","NaN","","","","","","","","","","","","","",""
"","response","","html-keyboard-response","500","852708","0.0-1.0-707.0","0","0","39014","","1048","","","68","78","","","2","78","training","adjacent","BC","2","3","M.jpg","R.jpg","1","1","1","",""
"","feedback","","html-keyboard-response","501","853713","0.0-1.0-708.0-0.0","0","0","39014","","null","","","null","78","","","","","","","","","","","","","","","",""
"","ITI","","html-keyboard-response","502","854718","0.0-1.0-711.0","0","0","39014","","null","","","null","78","","","","","","","","","","","","","","","NaN",""
"","S1","","html-keyboard-response","503","854973","0.0-1.0-713.0","0","0","39014","","null","","","null","79","","","","","","","","","","","","","","","",""
"","ISI","","html-keyboard-response","504","856976","0.0-1.0-714.0","0","0","39014","","null","","","null","79","NaN","","","","","","","","","","","","","","",""
"","S2","","html-keyboard-response","505","857230","0.0-1.0-715.0","0","0","39014","","null","","","null","79","","NaN","","","","","","","","","","","","","",""
"","response","","html-keyboard-response","506","858072","0.0-1.0-716.0","0","0","39014","","838","","","68","79","","","2","79","training","adjacent","BC","2","3","M.jpg","R.jpg","1","1","1","",""
"","feedback","","html-keyboard-response","507","859077","0.0-1.0-717.0-0.0","0","0","39014","","null","","","null","79","","","","","","","","","","","","","","","",""
"","ITI","","html-keyboard-response","508","860082","0.0-1.0-720.0","0","0","39014","","null","","","null","79","","","","","","","","","","","","","","","NaN",""
"","S1","","html-keyboard-response","509","860337","0.0-1.0-722.0","0","0","39014","","null","","","null","80","","","","","","","","","","","","","","","",""
"","ISI","","html-keyboard-response","510","862341","0.0-1.0-723.0","0","0","39014","","null","","","null","80","NaN","","","","","","","","","","","","","","",""
"","S2","","html-keyboard-response","511","862597","0.0-1.0-724.0","0","0","39014","","null","","","null","80","","NaN","","","","","","","","","","","","","",""
"","response","","html-keyboard-response","512","863346","0.0-1.0-725.0","0","0","39014","","746","","","75","80","","","2","80","training","adjacent","CB","3","2","R.jpg","M.jpg","0","0","1","",""
"","feedback","","html-keyboard-response","513","864351","0.0-1.0-726.0-0.0","0","0","39014","","null","","","null","80","","","","","","","","","","","","","","","",""
"","ITI","","html-keyboard-response","514","865356","0.0-1.0-729.0","0","0","39014","","null","","","null","80","","","","","","","","","","","","","","","NaN",""
"","S1","","html-keyboard-response","515","865611","0.0-1.0-731.0","0","0","39014","","null","","","null","81","","","","","","","","","","","","","","","",""
"","ISI","","html-keyboard-response","516","867615","0.0-1.0-732.0","0","0","39014","","null","","","null","81","NaN","","","","","","","","","","","","","","",""
"","S2","","html-keyboard-response","517","867870","0.0-1.0-733.0","0","0","39014","","null","","","null","81","","NaN","","","","","","","","","","","","","",""
"","response","","html-keyboard-response","518","868913","0.0-1.0-734.0","0","0","39014","","1038","","","68","81","","","2","81","training","adjacent","DE","4","5","N.jpg","L.jpg","1","1","1","",""
"","feedback","","html-keyboard-response","519","869918","0.0-1.0-735.0-0.0","0","0","39014","","null","","","null","81","","","","","","","","","","","","","","","",""
"","ITI","","html-keyboard-response","520","870923","0.0-1.0-738.0","0","0","39014","","null","","","null","81","","","","","","","","","","","","","","","NaN",""
"","S1","","html-keyboard-response","521","871178","0.0-1.0-740.0","0","0","39014","","null","","","null","82","","","","","","","","","","","","","","","",""
"","ISI","","html-keyboard-response","522","873183","0.0-1.0-741.0","0","0","39014","","null","","","null","82","NaN","","","","","","","","","","","","","","",""
"","S2","","html-keyboard-response","523","873439","0.0-1.0-742.0","0","0","39014","","null","","","null","82","","NaN","","","","","","","","","","","","","",""
"","response","","html-keyboard-response","524","874057","0.0-1.0-743.0","0","0","39014","","613","","","75","82","","","2","82","training","adjacent","CB","3","2","R.jpg","M.jpg","0","0","1","",""
"","feedback","","html-keyboard-response","525","875063","0.0-1.0-744.0-0.0","0","0","39014","","null","","","null","82","","","","","","","","","","","","","","","",""
"","ITI","","html-keyboard-response","526","876068","0.0-1.0-747.0","0","0","39014","","null","","","null","82","","","","","","","","","","","","","","","NaN",""
"","S1","","html-keyboard-response","527","876323","0.0-1.0-749.0","0","0","39014","","null","","","null","83","","","","","","","","","","","","","","","",""
"","ISI","","html-keyboard-response","528","878326","0.0-1.0-750.0","0","0","39014","","null","","","null","83","NaN","","","","","","","","","","","","","","",""
"","S2","","html-keyboard-response","529","878581","0.0-1.0-751.0","0","0","39014","","null","","","null","83","","NaN","","","","","","","","","","","","","",""
"","response","","html-keyboard-response","530","879960","0.0-1.0-752.0","0","0","39014","","1375","","","75","83","","","2","83","training","adjacent","ED","5","4","L.jpg","N.jpg","0","0","1","",""
"","feedback","","html-keyboard-response","531","880966","0.0-1.0-753.0-0.0","0","0","39014","","null","","","null","83","","","","","","","","","","","","","","","",""
"","ITI","","html-keyboard-response","532","881971","0.0-1.0-756.0","0","0","39014","","null","","","null","83","","","","","","","","","","","","","","","NaN",""
"","S1","","html-keyboard-response","533","882226","0.0-1.0-758.0","0","0","39014","","null","","","null","84","","","","","","","","","","","","","","","",""
"","ISI","","html-keyboard-response","534","884230","0.0-1.0-759.0","0","0","39014","","null","","","null","84","NaN","","","","","","","","","","","","","","",""
"","S2","","html-keyboard-response","535","884485","0.0-1.0-760.0","0","0","39014","","null","","","null","84","","NaN","","","","","","","","","","","","","",""
"","response","","html-keyboard-response","536","885529","0.0-1.0-761.0","0","0","39014","","1040","","","75","84","","","2","84","training","adjacent","CD","3","4","R.jpg","N.jpg","0","1","0","",""
"","feedback","","html-keyboard-response","537","886534","0.0-1.0-762.0-0.0","0","0","39014","","null","","","null","84","","","","","","","","","","","","","","","",""
"","time_out","","html-keyboard-response","538","888539","0.0-1.0-764.0-0.0","0","0","39014","","null","","","null","84","","","","","","","","","","","","","","","",""
"","ITI","","html-keyboard-response","539","889543","0.0-1.0-765.0","0","0","39014","","null","","","null","84","","","","","","","","","","","","","","","NaN",""
"","S1","","html-keyboard-response","540","889798","0.0-1.0-767.0","0","0","39014","","null","","","null","85","","","","","","","","","","","","","","","",""
"","ISI","","html-keyboard-response","541","891801","0.0-1.0-768.0","0","0","39014","","null","","","null","85","NaN","","","","","","","","","","","","","","",""
"","S2","","html-keyboard-response","542","892055","0.0-1.0-769.0","0","0","39014","","null","","","null","85","","NaN","","","","","","","","","","","","","",""
"","response","","html-keyboard-response","543","892857","0.0-1.0-770.0","0","0","39014","","798","","","75","85","","","2","85","training","adjacent","BA","2","1","M.jpg","Q.jpg","0","0","1","",""
"","feedback","","html-keyboard-response","544","893861","0.0-1.0-771.0-0.0","0","0","39014","","null","","","null","85","","","","","","","","","","","","","","","",""
"","ITI","","html-keyboard-response","545","894866","0.0-1.0-774.0","0","0","39014","","null","","","null","85","","","","","","","","","","","","","","","NaN",""
"","S1","","html-keyboard-response","546","895120","0.0-1.0-776.0","0","0","39014","","null","","","null","86","","","","","","","","","","","","","","","",""
"","ISI","","html-keyboard-response","547","897124","0.0-1.0-777.0","0","0","39014","","null","","","null","86","NaN","","","","","","","","","","","","","","",""
"","S2","","html-keyboard-response","548","897379","0.0-1.0-778.0","0","0","39014","","null","","","null","86","","NaN","","","","","","","","","","","","","",""
"","response","","html-keyboard-response","549","898506","0.0-1.0-779.0","0","0","39014","","1124","","","75","86","","","2","86","training","adjacent","BA","2","1","M.jpg","Q.jpg","0","0","1","",""
"","feedback","","html-keyboard-response","550","899511","0.0-1.0-780.0-0.0","0","0","39014","","null","","","null","86","","","","","","","","","","","","","","","",""
"","ITI","","html-keyboard-response","551","900516","0.0-1.0-783.0","0","0","39014","","null","","","null","86","","","","","","","","","","","","","","","NaN",""
"","S1","","html-keyboard-response","552","900771","0.0-1.0-785.0","0","0","39014","","null","","","null","87","","","","","","","","","","","","","","","",""
"","ISI","","html-keyboard-response","553","902775","0.0-1.0-786.0","0","0","39014","","null","","","null","87","NaN","","","","","","","","","","","","","","",""
"","S2","","html-keyboard-response","554","903030","0.0-1.0-787.0","0","0","39014","","null","","","null","87","","NaN","","","","","","","","","","","","","",""
"","response","","html-keyboard-response","555","903701","0.0-1.0-788.0","0","0","39014","","667","","","75","87","","","2","87","training","adjacent","GF","7","6","P.jpg","O.jpg","0","0","1","",""
"","feedback","","html-keyboard-response","556","904707","0.0-1.0-789.0-0.0","0","0","39014","","null","","","null","87","","","","","","","","","","","","","","","",""
"","ITI","","html-keyboard-response","557","905713","0.0-1.0-792.0","0","0","39014","","null","","","null","87","","","","","","","","","","","","","","","NaN",""
"","S1","","html-keyboard-response","558","905970","0.0-1.0-794.0","0","0","39014","","null","","","null","88","","","","","","","","","","","","","","","",""
"","ISI","","html-keyboard-response","559","907974","0.0-1.0-795.0","0","0","39014","","null","","","null","88","NaN","","","","","","","","","","","","","","",""
"","S2","","html-keyboard-response","560","908229","0.0-1.0-796.0","0","0","39014","","null","","","null","88","","NaN","","","","","","","","","","","","","",""
"","response","","html-keyboard-response","561","909196","0.0-1.0-797.0","0","0","39014","","963","","","75","88","","","2","88","training","adjacent","ED","5","4","L.jpg","N.jpg","0","0","1","",""
"","feedback","","html-keyboard-response","562","910201","0.0-1.0-798.0-0.0","0","0","39014","","null","","","null","88","","","","","","","","","","","","","","","",""
"","ITI","","html-keyboard-response","563","911206","0.0-1.0-801.0","0","0","39014","","null","","","null","88","","","","","","","","","","","","","","","NaN",""
"","S1","","html-keyboard-response","564","911461","0.0-1.0-803.0","0","0","39014","","null","","","null","89","","","","","","","","","","","","","","","",""
"","ISI","","html-keyboard-response","565","913465","0.0-1.0-804.0","0","0","39014","","null","","","null","89","NaN","","","","","","","","","","","","","","",""
"","S2","","html-keyboard-response","566","913720","0.0-1.0-805.0","0","0","39014","","null","","","null","89","","NaN","","","","","","","","","","","","","",""
"","response","","html-keyboard-response","567","914350","0.0-1.0-806.0","0","0","39014","","626","","","75","89","","","2","89","training","adjacent","GF","7","6","P.jpg","O.jpg","0","0","1","",""
"","feedback","","html-keyboard-response","568","915356","0.0-1.0-807.0-0.0","0","0","39014","","null","","","null","89","","","","","","","","","","","","","","","",""
"","ITI","","html-keyboard-response","569","916362","0.0-1.0-810.0","0","0","39014","","null","","","null","89","","","","","","","","","","","","","","","NaN",""
"","S1","","html-keyboard-response","570","916617","0.0-1.0-812.0","0","0","39014","","null","","","null","90","","","","","","","","","","","","","","","",""
"","ISI","","html-keyboard-response","571","918621","0.0-1.0-813.0","0","0","39014","","null","","","null","90","NaN","","","","","","","","","","","","","","",""
"","S2","","html-keyboard-response","572","918876","0.0-1.0-814.0","0","0","39014","","null","","","null","90","","NaN","","","","","","","","","","","","","",""
"","response","","html-keyboard-response","573","919332","0.0-1.0-815.0","0","0","39014","","452","","","68","90","","","2","90","training","adjacent","AB","1","2","Q.jpg","M.jpg","1","1","1","",""
"","feedback","","html-keyboard-response","574","920337","0.0-1.0-816.0-0.0","0","0","39014","","null","","","null","90","","","","","","","","","","","","","","","",""
"","ITI","","html-keyboard-response","575","921342","0.0-1.0-819.0","0","0","39014","","null","","","null","90","","","","","","","","","","","","","","","NaN",""
"","S1","","html-keyboard-response","576","921598","0.0-1.0-821.0","0","0","39014","","null","","","null","91","","","","","","","","","","","","","","","",""
"","ISI","","html-keyboard-response","577","923602","0.0-1.0-822.0","0","0","39014","","null","","","null","91","NaN","","","","","","","","","","","","","","",""
"","S2","","html-keyboard-response","578","923857","0.0-1.0-823.0","0","0","39014","","null","","","null","91","","NaN","","","","","","","","","","","","","",""
"","response","","html-keyboard-response","579","924933","0.0-1.0-824.0","0","0","39014","","1072","","","68","91","","","2","91","training","adjacent","CD","3","4","R.jpg","N.jpg","1","1","1","",""
"","feedback","","html-keyboard-response","580","925939","0.0-1.0-825.0-0.0","0","0","39014","","null","","","null","91","","","","","","","","","","","","","","","",""
"","ITI","","html-keyboard-response","581","926944","0.0-1.0-828.0","0","0","39014","","null","","","null","91","","","","","","","","","","","","","","","NaN",""
"","S1","","html-keyboard-response","582","927199","0.0-1.0-830.0","0","0","39014","","null","","","null","92","","","","","","","","","","","","","","","",""
