"success","ttype","start_time","trial_type","trial_index","time_elapsed","internal_node_id","warning","missed_checkup","PID","view_history","rt","responses","repeat_instructions","key_press","index","keypress_isi","keypress_S2","block","trial_num","phase","group_type","pair_type","S1_stim","S2_stim","S1_img","S2_img","S1_chosen","S1_higher","accuracy","keypress_iti","total_bonus_tally"
"true","full_screen","d08012022hr1655","fullscreen","0","8456","0.0-0.0","0","0","56277","","","","","","","","","","","","","","","","","","","","","",""
"","instructions","","instructions","1","34888","0.0-1.0-0.0-0.0","0","0","56277","[{""page_index"":0,""viewing_time"":3956},{""page_index"":1,""viewing_time"":14620},{""page_index"":2,""viewing_time"":6429},{""page_index"":3,""viewing_time"":1424}]","26430","","","","","","","","","","","","","","","","","","","",""
"","comprehension_check","","survey-multi-choice","2","55384","0.0-1.0-0.0-1.0","0","0","56277","","20491","{""Q0"":""True"",""Q1"":""K"",""Q2"":""When you see the prompt 'MAKE A CHOICE' after the second image was presented"",""Q3"":""Green mark"",""Q4"":""either D or K""}","0","","","","","","","","","","","","","","","","","",""
"","start_exp","","html-keyboard-response","3","57466","0.0-1.0-1.0","0","0","56277","","2076","","","32","","","","","","","","","","","","","","","","",""
"","S1","","html-keyboard-response","4","57718","0.0-1.0-2.0","0","0","56277","","null","","","null","0","","","","","","","","","","","","","","","",""
"","ISI","","html-keyboard-response","5","59720","0.0-1.0-3.0","0","0","56277","","null","","","null","0","NaN","","","","","","","","","","","","","","",""
"","S2","","html-keyboard-response","6","59973","0.0-1.0-4.0","0","0","56277","","null","","","null","0","","NaN","","","","","","","","","","","","","",""
"","response","","html-keyboard-response","7","60369","0.0-1.0-5.0","0","0","56277","","395","","","75","0","","","1","0","training","adjacent","BA","2","1","O.jpg","Q.jpg","1","0","0","",""
"","feedback","","html-keyboard-response","8","61372","0.0-1.0-6.0-0.0","0","0","56277","","null","","","null","0","","","","","","","","","","","","","","","",""
"","time_out","","html-keyboard-response","9","63374","0.0-1.0-8.0-0.0","0","0","56277","","null","","","null","0","","","","","","","","","","","","","","","",""
"","ITI","","html-keyboard-response","10","64377","0.0-1.0-9.0","0","0","56277","","null","","","null","0","","","","","","","","","","","","","","","NaN",""
"","S1","","html-keyboard-response","11","64629","0.0-1.0-11.0","0","0","56277","","null","","","null","1","","","","","","","","","","","","","","","",""
"","ISI","","html-keyboard-response","12","66631","0.0-1.0-12.0","0","0","56277","","null","","","null","1","NaN","","","","","","","","","","","","","","",""
"","S2","","html-keyboard-response","13","66885","0.0-1.0-13.0","0","0","56277","","null","","","null","1","","NaN","","","","","","","","","","","","","",""
"","response","","html-keyboard-response","14","67019","0.0-1.0-14.0","0","0","56277","","132","","","75","1","","","1","1","training","adjacent","AB","1","2","Q.jpg","O.jpg","1","1","1","",""
"","feedback","","html-keyboard-response","15","68021","0.0-1.0-15.0-0.0","0","0","56277","","null","","","null","1","","","","","","","","","","","","","","","",""
"","ITI","","html-keyboard-response","16","69022","0.0-1.0-18.0","0","0","56277","","null","","","null","1","","","","","","","","","","","","","","","NaN",""
"","S1","","html-keyboard-response","17","69274","0.0-1.0-20.0","0","0","56277","","null","","","null","2","","","","","","","","","","","","","","","",""
"","ISI","","html-keyboard-response","18","71277","0.0-1.0-21.0","0","0","56277","","null","","","null","2","NaN","","","","","","","","","","","","","","",""
"","S2","","html-keyboard-response","19","71529","0.0-1.0-22.0","0","0","56277","","null","","","null","2","","NaN","","","","","","","","","","","","","",""
"","response","","html-keyboard-response","20","71719","0.0-1.0-23.0","0","0","56277","","188","","","75","2","","","1","2","training","adjacent","DE","4","5","L.jpg","R.jpg","1","1","1","",""
"","feedback","","html-keyboard-response","21","72721","0.0-1.0-24.0-0.0","0","0","56277","","null","","","null","2","","","","","","","","","","","","","","","",""
"","ITI","","html-keyboard-response","22","73724","0.0-1.0-27.0","0","0","56277","","null","","","null","2","","","","","","","","","","","","","","","NaN",""
"","S1","","html-keyboard-response","23","73977","0.0-1.0-29.0","0","0","56277","","null","","","null","3","","","","","","","","","","","","","","","",""
"","ISI","","html-keyboard-response","24","75979","0.0-1.0-30.0","0","0","56277","","null","","","null","3","NaN","","","","","","","","","","","","","","",""
"","S2","","html-keyboard-response","25","76232","0.0-1.0-31.0","0","0","56277","","null","","","null","3","","NaN","","","","","","","","","","","","","",""
"","response","","html-keyboard-response","26","76546","0.0-1.0-32.0","0","0","56277","","313","","","68","3","","","1","3","training","adjacent","ED","5","4","R.jpg","L.jpg","0","0","1","",""
"","feedback","","html-keyboard-response","27","77548","0.0-1.0-33.0-0.0","0","0","56277","","null","","","null","3","","","","","","","","","","","","","","","",""
"","ITI","","html-keyboard-response","28","78551","0.0-1.0-36.0","0","0","56277","","null","","","null","3","","","","","","","","","","","","","","","NaN",""
"","S1","","html-keyboard-response","29","78803","0.0-1.0-38.0","0","0","56277","","null","","","null","4","","","","","","","","","","","","","","","",""
"","ISI","","html-keyboard-response","30","80806","0.0-1.0-39.0","0","0","56277","","null","","","null","4","NaN","","","","","","","","","","","","","","",""
"","S2","","html-keyboard-response","31","81059","0.0-1.0-40.0","0","0","56277","","null","","","null","4","","NaN","","","","","","","","","","","","","",""
"","response","","html-keyboard-response","32","81316","0.0-1.0-41.0","0","0","56277","","255","","","68","4","","","1","4","training","adjacent","DC","4","3","L.jpg","N.jpg","0","0","1","",""
"","feedback","","html-keyboard-response","33","82319","0.0-1.0-42.0-0.0","0","0","56277","","null","","","null","4","","","","","","","","","","","","","","","",""
"","ITI","","html-keyboard-response","34","83322","0.0-1.0-45.0","0","0","56277","","null","","","null","4","","","","","","","","","","","","","","","NaN",""
"","S1","","html-keyboard-response","35","83573","0.0-1.0-47.0","0","0","56277","","null","","","null","5","","","","","","","","","","","","","","","",""
"","ISI","","html-keyboard-response","36","85575","0.0-1.0-48.0","0","0","56277","","null","","","null","5","NaN","","","","","","","","","","","","","","",""
"","S2","","html-keyboard-response","37","85828","0.0-1.0-49.0","0","0","56277","","null","","","null","5","","NaN","","","","","","","","","","","","","",""
"","response","","html-keyboard-response","38","85964","0.0-1.0-50.0","0","0","56277","","135","","","75","5","","","1","5","training","adjacent","ED","5","4","R.jpg","L.jpg","1","0","0","",""
"","feedback","","html-keyboard-response","39","86967","0.0-1.0-51.0-0.0","0","0","56277","","null","","","null","5","","","","","","","","","","","","","","","",""
"","time_out","","html-keyboard-response","40","88969","0.0-1.0-53.0-0.0","0","0","56277","","null","","","null","5","","","","","","","","","","","","","","","",""
"","ITI","","html-keyboard-response","41","89971","0.0-1.0-54.0","0","0","56277","","null","","","null","5","","","","","","","","","","","","","","","NaN",""
"","S1","","html-keyboard-response","42","90223","0.0-1.0-56.0","0","0","56277","","null","","","null","6","","","","","","","","","","","","","","","",""
"","ISI","","html-keyboard-response","43","92225","0.0-1.0-57.0","0","0","56277","","316","","","68","6","d","","","","","","","","","","","","","","",""
"","S2","","html-keyboard-response","44","92478","0.0-1.0-58.0","0","0","56277","","null","","","null","6","","NaN","","","","","","","","","","","","","",""
"","response","","html-keyboard-response","45","92634","0.0-1.0-59.0","0","0","56277","","154","","","68","6","","","1","6","training","adjacent","CD","3","4","N.jpg","L.jpg","0","1","0","",""
"","feedback","","html-keyboard-response","46","93637","0.0-1.0-60.0-0.0","0","0","56277","","null","","","null","6","","","","","","","","","","","","","","","",""
"","time_out","","html-keyboard-response","47","95639","0.0-1.0-62.0-0.0","0","0","56277","","null","","","null","6","","","","","","","","","","","","","","","",""
"","ITI","","html-keyboard-response","48","96641","0.0-1.0-63.0","0","0","56277","","null","","","null","6","","","","","","","","","","","","","","","NaN",""
"","S1","","html-keyboard-response","49","96894","0.0-1.0-65.0","0","0","56277","","null","","","null","7","","","","","","","","","","","","","","","",""
"","ISI","","html-keyboard-response","50","98896","0.0-1.0-66.0","0","0","56277","","null","","","null","7","NaN","","","","","","","","","","","","","","",""
"","S2","","html-keyboard-response","51","99149","0.0-1.0-67.0","0","0","56277","","null","","","null","7","","NaN","","","","","","","","","","","","","",""
"","response","","html-keyboard-response","52","99711","0.0-1.0-68.0","0","0","56277","","560","","","75","7","","","1","7","training","adjacent","CD","3","4","N.jpg","L.jpg","1","1","1","",""
"","feedback","","html-keyboard-response","53","100713","0.0-1.0-69.0-0.0","0","0","56277","","null","","","null","7","","","","","","","","","","","","","","","",""
"","ITI","","html-keyboard-response","54","101715","0.0-1.0-72.0","0","0","56277","","null","","","null","7","","","","","","","","","","","","","","","NaN",""
"","S1","","html-keyboard-response","55","101967","0.0-1.0-74.0","0","0","56277","","null","","","null","8","","","","","","","","","","","","","","","",""
"","ISI","","html-keyboard-response","56","103970","0.0-1.0-75.0","0","0","56277","","null","","","null","8","NaN","","","","","","","","","","","","","","",""
"","S2","","html-keyboard-response","57","104224","0.0-1.0-76.0","0","0","56277","","null","","","null","8","","NaN","","","","","","","","","","","","","",""
"","response","","html-keyboard-response","58","104368","0.0-1.0-77.0","0","0","56277","","143","","","75","8","","","1","8","training","adjacent","CD","3","4","N.jpg","L.jpg","1","1","1","",""
"","feedback","","html-keyboard-response","59","105370","0.0-1.0-78.0-0.0","0","0","56277","","null","","","null","8","","","","","","","","","","","","","","","",""
"","ITI","","html-keyboard-response","60","106372","0.0-1.0-81.0","0","0","56277","","null","","","null","8","","","","","","","","","","","","","","","NaN",""
"","S1","","html-keyboard-response","61","106625","0.0-1.0-83.0","0","0","56277","","null","","","null","9","","","","","","","","","","","","","","","",""
"","ISI","","html-keyboard-response","62","108628","0.0-1.0-84.0","0","0","56277","","null","","","null","9","NaN","","","","","","","","","","","","","","",""
"","S2","","html-keyboard-response","63","108881","0.0-1.0-85.0","0","0","56277","","null","","","null","9","","NaN","","","","","","","","","","","","","",""
"","response","","html-keyboard-response","64","109441","0.0-1.0-86.0","0","0","56277","","559","","","68","9","","","1","9","training","adjacent","DE","4","5","L.jpg","R.jpg","0","1","0","",""
"","feedback","","html-keyboard-response","65","110443","0.0-1.0-87.0-0.0","0","0","56277","","null","","","null","9","","","","","","","","","","","","","","","",""
"","time_out","","html-keyboard-response","66","112445","0.0-1.0-89.0-0.0","0","0","56277","","null","","","null","9","","","","","","","","","","","","","","","",""
"","ITI","","html-keyboard-response","67","113447","0.0-1.0-90.0","0","0","56277","","null","","","null","9","","","","","","","","","","","","","","","NaN",""
"","S1","","html-keyboard-response","68","113700","0.0-1.0-92.0","0","0","56277","","null","","","null","10","","","","","","","","","","","","","","","",""
"","ISI","","html-keyboard-response","69","115702","0.0-1.0-93.0","0","0","56277","","null","","","null","10","NaN","","","","","","","","","","","","","","",""
"","S2","","html-keyboard-response","70","115955","0.0-1.0-94.0","0","0","56277","","null","","","null","10","","NaN","","","","","","","","","","","","","",""
"","response","","html-keyboard-response","71","116046","0.0-1.0-95.0","0","0","56277","","90","","","75","10","","","1","10","training","adjacent","CB","3","2","N.jpg","O.jpg","1","0","0","",""
"","feedback","","html-keyboard-response","72","117048","0.0-1.0-96.0-0.0","0","0","56277","","null","","","null","10","","","","","","","","","","","","","","","",""
"","time_out","","html-keyboard-response","73","119050","0.0-1.0-98.0-0.0","0","0","56277","","null","","","null","10","","","","","","","","","","","","","","","",""
"","ITI","","html-keyboard-response","74","120052","0.0-1.0-99.0","0","0","56277","","null","","","null","10","","","","","","","","","","","","","","","NaN",""
"","S1","","html-keyboard-response","75","120305","0.0-1.0-101.0","0","0","56277","","null","","","null","11","","","","","","","","","","","","","","","",""
"","ISI","","html-keyboard-response","76","122308","0.0-1.0-102.0","0","0","56277","","115","","","68","11","d","","","","","","","","","","","","","","",""
"","S2","","html-keyboard-response","77","122560","0.0-1.0-103.0","0","0","56277","","null","","","null","11","","NaN","","","","","","","","","","","","","",""
"","response","","html-keyboard-response","78","122676","0.0-1.0-104.0","0","0","56277","","114","","","68","11","","","1","11","training","adjacent","FE","6","5","P.jpg","R.jpg","0","0","1","",""
"","feedback","","html-keyboard-response","79","123679","0.0-1.0-105.0-0.0","0","0","56277","","null","","","null","11","","","","","","","","","","","","","","","",""
"","ITI","","html-keyboard-response","80","124682","0.0-1.0-108.0","0","0","56277","","null","","","null","11","","","","","","","","","","","","","","","NaN",""
"","S1","","html-keyboard-response","81","124935","0.0-1.0-110.0","0","0","56277","","null","","","null","12","","","","","","","","","","","","","","","",""
"","ISI","","html-keyboard-response","82","126937","0.0-1.0-111.0","0","0","56277","","402","","","68","12","d","","","","","","","","","","","","","","",""
"","S2","","html-keyboard-response","83","127190","0.0-1.0-112.0","0","0","56277","","null","","","null","12","","NaN","","","","","","","","","","","","","",""
"","response","","html-keyboard-response","84","127712","0.0-1.0-113.0","0","0","56277","","521","","","75","12","","","1","12","training","adjacent","FG","6","7","P.jpg","M.jpg","1","1","1","",""
"","feedback","","html-keyboard-response","85","128715","0.0-1.0-114.0-0.0","0","0","56277","","null","","","null","12","","","","","","","","","","","","","","","",""
"","ITI","","html-keyboard-response","86","129718","0.0-1.0-117.0","0","0","56277","","null","","","null","12","","","","","","","","","","","","","","","NaN",""
"","S1","","html-keyboard-response","87","129972","0.0-1.0-119.0","0","0","56277","","null","","","null","13","","","","","","","","","","","","","","","",""
"","ISI","","html-keyboard-response","88","131975","0.0-1.0-120.0","0","0","56277","","null","","","null","13","NaN","","","","","","","","","","","","","","",""
"","S2","","html-keyboard-response","89","132228","0.0-1.0-121.0","0","0","56277","","null","","","null","13","","NaN","","","","","","","","","","","","","",""
"","response","","html-keyboard-response","90","132808","0.0-1.0-122.0","0","0","56277","","579","","","75","13","","","1","13","training","adjacent","GF","7","6","M.jpg","P.jpg","1","0","0","",""
"","feedback","","html-keyboard-response","91","133811","0.0-1.0-123.0-0.0","0","0","56277","","null","","","null","13","","","","","","","","","","","","","","","",""
"","time_out","","html-keyboard-response","92","135813","0.0-1.0-125.0-0.0","0","0","56277","","null","","","null","13","","","","","","","","","","","","","","","",""
"","ITI","","html-keyboard-response","93","136815","0.0-1.0-126.0","0","0","56277","","null","","","null","13","","","","","","","","","","","","","","","NaN",""
"","S1","","html-keyboard-response","94","137076","0.0-1.0-128.0","0","0","56277","","null","","","null","14","","","","","","","","","","","","","","","",""
"","ISI","","html-keyboard-response","95","139079","0.0-1.0-129.0","0","0","56277","","151","","","68","14","d","","","","","","","","","","","","","","",""
"","S2","","html-keyboard-response","96","139332","0.0-1.0-130.0","0","0","56277","","null","","","null","14","","NaN","","","","","","","","","","","","","",""
"","response","","html-keyboard-response","97","139422","0.0-1.0-131.0","0","0","56277","","89","","","68","14","","","1","14","training","adjacent","CB","3","2","N.jpg","O.jpg","0","0","1","",""
"","feedback","","html-keyboard-response","98","140426","0.0-1.0-132.0-0.0","0","0","56277","","null","","","null","14","","","","","","","","","","","","","","","",""
"","ITI","","html-keyboard-response","99","141428","0.0-1.0-135.0","0","0","56277","","null","","","null","14","","","","","","","","","","","","","","","NaN",""
"","S1","","html-keyboard-response","100","141681","0.0-1.0-137.0","0","0","56277","","null","","","null","15","","","","","","","","","","","","","","","",""
"","ISI","","html-keyboard-response","101","143683","0.0-1.0-138.0","0","0","56277","","null","","","null","15","NaN","","","","","","","","","","","","","","",""
"","S2","","html-keyboard-response","102","143936","0.0-1.0-139.0","0","0","56277","","null","","","null","15","","NaN","","","","","","","","","","","","","",""
"","response","","html-keyboard-response","103","144328","0.0-1.0-140.0","0","0","56277","","391","","","75","15","","","1","15","training","adjacent","AB","1","2","Q.jpg","O.jpg","1","1","1","",""
"","feedback","","html-keyboard-response","104","145330","0.0-1.0-141.0-0.0","0","0","56277","","null","","","null","15","","","","","","","","","","","","","","","",""
"","ITI","","html-keyboard-response","105","146332","0.0-1.0-144.0","0","0","56277","","null","","","null","15","","","","","","","","","","","","","","","NaN",""
"","S1","","html-keyboard-response","106","146585","0.0-1.0-146.0","0","0","56277","","null","","","null","16","","","","","","","","","","","","","","","",""
"","ISI","","html-keyboard-response","107","148587","0.0-1.0-147.0","0","0","56277","","1779","","","75","16","k","","","","","","","","","","","","","","",""
"","S2","","html-keyboard-response","108","148840","0.0-1.0-148.0","0","0","56277","","null","","","null","16","","NaN","","","","","","","","","","","","","",""
"","response","","html-keyboard-response","109","148877","0.0-1.0-149.0","0","0","56277","","36","","","75","16","","","1","16","training","adjacent","ED","5","4","R.jpg","L.jpg","1","0","0","",""
"","feedback","","html-keyboard-response","110","149880","0.0-1.0-150.0-0.0","0","0","56277","","null","","","null","16","","","","","","","","","","","","","","","",""
"","time_out","","html-keyboard-response","111","151882","0.0-1.0-152.0-0.0","0","0","56277","","null","","","null","16","","","","","","","","","","","","","","","",""
"","ITI","","html-keyboard-response","112","152885","0.0-1.0-153.0","0","0","56277","","null","","","null","16","","","","","","","","","","","","","","","NaN",""
"","S1","","html-keyboard-response","113","153137","0.0-1.0-155.0","0","0","56277","","null","","","null","17","","","","","","","","","","","","","","","",""
"","ISI","","html-keyboard-response","114","155139","0.0-1.0-156.0","0","0","56277","","null","","","null","17","NaN","","","","","","","","","","","","","","",""
"","S2","","html-keyboard-response","115","155392","0.0-1.0-157.0","0","0","56277","","null","","","null","17","","NaN","","","","","","","","","","","","","",""
"","response","","html-keyboard-response","116","155757","0.0-1.0-158.0","0","0","56277","","364","","","68","17","","","1","17","training","adjacent","ED","5","4","R.jpg","L.jpg","0","0","1","",""
"","feedback","","html-keyboard-response","117","156768","0.0-1.0-159.0-0.0","0","0","56277","","null","","","null","17","","","","","","","","","","","","","","","",""
"","ITI","","html-keyboard-response","118","157771","0.0-1.0-162.0","0","0","56277","","null","","","null","17","","","","","","","","","","","","","","","NaN",""
"","S1","","html-keyboard-response","119","158023","0.0-1.0-164.0","0","0","56277","","null","","","null","18","","","","","","","","","","","","","","","",""
"","ISI","","html-keyboard-response","120","160027","0.0-1.0-165.0","0","0","56277","","null","","","null","18","NaN","","","","","","","","","","","","","","",""
"","S2","","html-keyboard-response","121","160280","0.0-1.0-166.0","0","0","56277","","null","","","null","18","","NaN","","","","","","","","","","","","","",""
"","response","","html-keyboard-response","122","160843","0.0-1.0-167.0","0","0","56277","","560","","","75","18","","","1","18","training","adjacent","EF","5","6","R.jpg","P.jpg","1","1","1","",""
"","feedback","","html-keyboard-response","123","161845","0.0-1.0-168.0-0.0","0","0","56277","","null","","","null","18","","","","","","","","","","","","","","","",""
"","ITI","","html-keyboard-response","124","162848","0.0-1.0-171.0","0","0","56277","","null","","","null","18","","","","","","","","","","","","","","","NaN",""
"","S1","","html-keyboard-response","125","163101","0.0-1.0-173.0","0","0","56277","","null","","","null","19","","","","","","","","","","","","","","","",""
"","ISI","","html-keyboard-response","126","165104","0.0-1.0-174.0","0","0","56277","","null","","","null","19","NaN","","","","","","","","","","","","","","",""
"","S2","","html-keyboard-response","127","165357","0.0-1.0-175.0","0","0","56277","","null","","","null","19","","NaN","","","","","","","","","","","","","",""
"","response","","html-keyboard-response","128","165623","0.0-1.0-176.0","0","0","56277","","264","","","68","19","","","1","19","training","adjacent","BC","2","3","O.jpg","N.jpg","0","1","0","",""
"","feedback","","html-keyboard-response","129","166626","0.0-1.0-177.0-0.0","0","0","56277","","null","","","null","19","","","","","","","","","","","","","","","",""
"","time_out","","html-keyboard-response","130","168628","0.0-1.0-179.0-0.0","0","0","56277","","null","","","null","19","","","","","","","","","","","","","","","",""
"","ITI","","html-keyboard-response","131","169630","0.0-1.0-180.0","0","0","56277","","null","","","null","19","","","","","","","","","","","","","","","NaN",""
"","S1","","html-keyboard-response","132","169882","0.0-1.0-182.0","0","0","56277","","null","","","null","20","","","","","","","","","","","","","","","",""
"","ISI","","html-keyboard-response","133","171884","0.0-1.0-183.0","0","0","56277","","null","","","null","20","NaN","","","","","","","","","","","","","","",""
"","S2","","html-keyboard-response","134","172137","0.0-1.0-184.0","0","0","56277","","null","","","null","20","","NaN","","","","","","","","","","","","","",""
"","response","","html-keyboard-response","135","172418","0.0-1.0-185.0","0","0","56277","","280","","","75","20","","","1","20","training","adjacent","BA","2","1","O.jpg","Q.jpg","1","0","0","",""
"","feedback","","html-keyboard-response","136","173420","0.0-1.0-186.0-0.0","0","0","56277","","null","","","null","20","","","","","","","","","","","","","","","",""
"","time_out","","html-keyboard-response","137","175422","0.0-1.0-188.0-0.0","0","0","56277","","null","","","null","20","","","","","","","","","","","","","","","",""
"","ITI","","html-keyboard-response","138","176424","0.0-1.0-189.0","0","0","56277","","null","","","null","20","","","","","","","","","","","","","","","NaN",""
"","S1","","html-keyboard-response","139","176676","0.0-1.0-191.0","0","0","56277","","null","","","null","21","","","","","","","","","","","","","","","",""
"","ISI","","html-keyboard-response","140","178679","0.0-1.0-192.0","0","0","56277","","null","","","null","21","NaN","","","","","","","","","","","","","","",""
"","S2","","html-keyboard-response","141","178931","0.0-1.0-193.0","0","0","56277","","null","","","null","21","","NaN","","","","","","","","","","","","","",""
"","response","","html-keyboard-response","142","179123","0.0-1.0-194.0","0","0","56277","","189","","","75","21","","","1","21","training","adjacent","AB","1","2","Q.jpg","O.jpg","1","1","1","",""
"","feedback","","html-keyboard-response","143","180126","0.0-1.0-195.0-0.0","0","0","56277","","null","","","null","21","","","","","","","","","","","","","","","",""
"","ITI","","html-keyboard-response","144","181129","0.0-1.0-198.0","0","0","56277","","null","","","null","21","","","","","","","","","","","","","","","NaN",""
"","S1","","html-keyboard-response","145","181381","0.0-1.0-200.0","0","0","56277","","null","","","null","22","","","","","","","","","","","","","","","",""
"","ISI","","html-keyboard-response","146","183384","0.0-1.0-201.0","0","0","56277","","null","","","null","22","NaN","","","","","","","","","","","","","","",""
"","S2","","html-keyboard-response","147","183636","0.0-1.0-202.0","0","0","56277","","null","","","null","22","","NaN","","","","","","","","","","","","","",""
"","response","","html-keyboard-response","148","184863","0.0-1.0-203.0","0","0","56277","","1225","","","75","22","","","1","22","training","adjacent","DC","4","3","L.jpg","N.jpg","1","0","0","",""
"","feedback","","html-keyboard-response","149","185866","0.0-1.0-204.0-0.0","0","0","56277","","null","","","null","22","","","","","","","","","","","","","","","",""
"","time_out","","html-keyboard-response","150","187869","0.0-1.0-206.0-0.0","0","0","56277","","null","","","null","22","","","","","","","","","","","","","","","",""
"","ITI","","html-keyboard-response","151","188872","0.0-1.0-207.0","0","0","56277","","null","","","null","22","","","","","","","","","","","","","","","NaN",""
"","S1","","html-keyboard-response","152","189125","0.0-1.0-209.0","0","0","56277","","null","","","null","23","","","","","","","","","","","","","","","",""
"","ISI","","html-keyboard-response","153","191128","0.0-1.0-210.0","0","0","56277","","null","","","null","23","NaN","","","","","","","","","","","","","","",""
"","S2","","html-keyboard-response","154","191381","0.0-1.0-211.0","0","0","56277","","null","","","null","23","","NaN","","","","","","","","","","","","","",""
"","response","","html-keyboard-response","155","191588","0.0-1.0-212.0","0","0","56277","","206","","","75","23","","","1","23","training","adjacent","CB","3","2","N.jpg","O.jpg","1","0","0","",""
"","feedback","","html-keyboard-response","156","192592","0.0-1.0-213.0-0.0","0","0","56277","","null","","","null","23","","","","","","","","","","","","","","","",""
"","time_out","","html-keyboard-response","157","194594","0.0-1.0-215.0-0.0","0","0","56277","","null","","","null","23","","","","","","","","","","","","","","","",""
"","ITI","","html-keyboard-response","158","195596","0.0-1.0-216.0","0","0","56277","","null","","","null","23","","","","","","","","","","","","","","","NaN",""
"","S1","","html-keyboard-response","159","195849","0.0-1.0-218.0","0","0","56277","","null","","","null","24","","","","","","","","","","","","","","","",""
"","ISI","","html-keyboard-response","160","197852","0.0-1.0-219.0","0","0","56277","","null","","","null","24","NaN","","","","","","","","","","","","","","",""
"","S2","","html-keyboard-response","161","198104","0.0-1.0-220.0","0","0","56277","","null","","","null","24","","NaN","","","","","","","","","","","","","",""
"","response","","html-keyboard-response","162","198609","0.0-1.0-221.0","0","0","56277","","503","","","75","24","","","1","24","training","adjacent","DC","4","3","L.jpg","N.jpg","1","0","0","",""
"","feedback","","html-keyboard-response","163","199612","0.0-1.0-222.0-0.0","0","0","56277","","null","","","null","24","","","","","","","","","","","","","","","",""
"","time_out","","html-keyboard-response","164","201614","0.0-1.0-224.0-0.0","0","0","56277","","null","","","null","24","","","","","","","","","","","","","","","",""
"","ITI","","html-keyboard-response","165","202616","0.0-1.0-225.0","0","0","56277","","null","","","null","24","","","","","","","","","","","","","","","NaN",""
"","S1","","html-keyboard-response","166","202869","0.0-1.0-227.0","0","0","56277","","null","","","null","25","","","","","","","","","","","","","","","",""
"","ISI","","html-keyboard-response","167","204872","0.0-1.0-228.0","0","0","56277","","null","","","null","25","NaN","","","","","","","","","","","","","","",""
"","S2","","html-keyboard-response","168","205125","0.0-1.0-229.0","0","0","56277","","null","","","null","25","","NaN","","","","","","","","","","","","","",""
"","response","","html-keyboard-response","169","205617","0.0-1.0-230.0","0","0","56277","","491","","","68","25","","","1","25","training","adjacent","EF","5","6","R.jpg","P.jpg","0","1","0","",""
"","feedback","","html-keyboard-response","170","206620","0.0-1.0-231.0-0.0","0","0","56277","","null","","","null","25","","","","","","","","","","","","","","","",""
"","time_out","","html-keyboard-response","171","208623","0.0-1.0-233.0-0.0","0","0","56277","","null","","","null","25","","","","","","","","","","","","","","","",""
"","ITI","","html-keyboard-response","172","209626","0.0-1.0-234.0","0","0","56277","","null","","","null","25","","","","","","","","","","","","","","","NaN",""
"","S1","","html-keyboard-response","173","209879","0.0-1.0-236.0","0","0","56277","","null","","","null","26","","","","","","","","","","","","","","","",""
"","ISI","","html-keyboard-response","174","211881","0.0-1.0-237.0","0","0","56277","","null","","","null","26","NaN","","","","","","","","","","","","","","",""
"","S2","","html-keyboard-response","175","212134","0.0-1.0-238.0","0","0","56277","","null","","","null","26","","NaN","","","","","","","","","","","","","",""
"","response","","html-keyboard-response","176","212311","0.0-1.0-239.0","0","0","56277","","175","","","75","26","","","1","26","training","adjacent","CD","3","4","N.jpg","L.jpg","1","1","1","",""
"","feedback","","html-keyboard-response","177","213314","0.0-1.0-240.0-0.0","0","0","56277","","null","","","null","26","","","","","","","","","","","","","","","",""
"","ITI","","html-keyboard-response","178","214316","0.0-1.0-243.0","0","0","56277","","null","","","null","26","","","","","","","","","","","","","","","NaN",""
"","S1","","html-keyboard-response","179","214569","0.0-1.0-245.0","0","0","56277","","null","","","null","27","","","","","","","","","","","","","","","",""
"","ISI","","html-keyboard-response","180","216571","0.0-1.0-246.0","0","0","56277","","null","","","null","27","NaN","","","","","","","","","","","","","","",""
"","S2","","html-keyboard-response","181","216824","0.0-1.0-247.0","0","0","56277","","null","","","null","27","","NaN","","","","","","","","","","","","","",""
"","response","","html-keyboard-response","182","217666","0.0-1.0-248.0","0","0","56277","","841","","","75","27","","","1","27","training","adjacent","DC","4","3","L.jpg","N.jpg","1","0","0","",""
"","feedback","","html-keyboard-response","183","218669","0.0-1.0-249.0-0.0","0","0","56277","","null","","","null","27","","","","","","","","","","","","","","","",""
"","time_out","","html-keyboard-response","184","220672","0.0-1.0-251.0-0.0","0","0","56277","","null","","","null","27","","","","","","","","","","","","","","","",""
"","ITI","","html-keyboard-response","185","221674","0.0-1.0-252.0","0","0","56277","","null","","","null","27","","","","","","","","","","","","","","","NaN",""
"","S1","","html-keyboard-response","186","221927","0.0-1.0-254.0","0","0","56277","","null","","","null","28","","","","","","","","","","","","","","","",""
"","ISI","","html-keyboard-response","187","223941","0.0-1.0-255.0","0","0","56277","","null","","","null","28","NaN","","","","","","","","","","","","","","",""
"","S2","","html-keyboard-response","188","224194","0.0-1.0-256.0","0","0","56277","","null","","","null","28","","NaN","","","","","","","","","","","","","",""
"","response","","html-keyboard-response","189","225094","0.0-1.0-257.0","0","0","56277","","899","","","68","28","","","1","28","training","adjacent","CB","3","2","N.jpg","O.jpg","0","0","1","",""
"","feedback","","html-keyboard-response","190","226098","0.0-1.0-258.0-0.0","0","0","56277","","null","","","null","28","","","","","","","","","","","","","","","",""
"","ITI","","html-keyboard-response","191","227101","0.0-1.0-261.0","0","0","56277","","null","","","null","28","","","","","","","","","","","","","","","NaN",""
"","S1","","html-keyboard-response","192","227355","0.0-1.0-263.0","0","0","56277","","null","","","null","29","","","","","","","","","","","","","","","",""
"","ISI","","html-keyboard-response","193","229357","0.0-1.0-264.0","0","0","56277","","null","","","null","29","NaN","","","","","","","","","","","","","","",""
"","S2","","html-keyboard-response","194","229610","0.0-1.0-265.0","0","0","56277","","null","","","null","29","","NaN","","","","","","","","","","","","","",""
"","response","","html-keyboard-response","195","230052","0.0-1.0-266.0","0","0","56277","","441","","","68","29","","","1","29","training","adjacent","FG","6","7","P.jpg","M.jpg","0","1","0","",""
"","feedback","","html-keyboard-response","196","231055","0.0-1.0-267.0-0.0","0","0","56277","","null","","","null","29","","","","","","","","","","","","","","","",""
"","time_out","","html-keyboard-response","197","233057","0.0-1.0-269.0-0.0","0","0","56277","","null","","","null","29","","","","","","","","","","","","","","","",""
"","ITI","","html-keyboard-response","198","234060","0.0-1.0-270.0","0","0","56277","","null","","","null","29","","","","","","","","","","","","","","","NaN",""
"","S1","","html-keyboard-response","199","234312","0.0-1.0-272.0","0","0","56277","","null","","","null","30","","","","","","","","","","","","","","","",""
"","ISI","","html-keyboard-response","200","236314","0.0-1.0-273.0","0","0","56277","","714","","","75","30","k","","","","","","","","","","","","","","",""
"","S2","","html-keyboard-response","201","236568","0.0-1.0-274.0","0","0","56277","","null","","","null","30","","NaN","","","","","","","","","","","","","",""
"","response","","html-keyboard-response","202","236821","0.0-1.0-275.0","0","0","56277","","252","","","75","30","","","1","30","training","adjacent","BA","2","1","O.jpg","Q.jpg","1","0","0","",""
"","feedback","","html-keyboard-response","203","237823","0.0-1.0-276.0-0.0","0","0","56277","","null","","","null","30","","","","","","","","","","","","","","","",""
"","time_out","","html-keyboard-response","204","239826","0.0-1.0-278.0-0.0","0","0","56277","","null","","","null","30","","","","","","","","","","","","","","","",""
"","ITI","","html-keyboard-response","205","240828","0.0-1.0-279.0","0","0","56277","","null","","","null","30","","","","","","","","","","","","","","","NaN",""
"","S1","","html-keyboard-response","206","241080","0.0-1.0-281.0","0","0","56277","","null","","","null","31","","","","","","","","","","","","","","","",""
"","ISI","","html-keyboard-response","207","243084","0.0-1.0-282.0","0","0","56277","","310","","","68","31","d","","","","","","","","","","","","","","",""
"","S2","","html-keyboard-response","208","243335","0.0-1.0-283.0","0","0","56277","","null","","","null","31","","NaN","","","","","","","","","","","","","",""
"","response","","html-keyboard-response","209","244145","0.0-1.0-284.0","0","0","56277","","808","","","75","31","","","1","31","training","adjacent","BA","2","1","O.jpg","Q.jpg","1","0","0","",""
"","feedback","","html-keyboard-response","210","245147","0.0-1.0-285.0-0.0","0","0","56277","","null","","","null","31","","","","","","","","","","","","","","","",""
"","time_out","","html-keyboard-response","211","247149","0.0-1.0-287.0-0.0","0","0","56277","","null","","","null","31","","","","","","","","","","","","","","","",""
"","ITI","","html-keyboard-response","212","248151","0.0-1.0-288.0","0","0","56277","","null","","","null","31","","","","","","","","","","","","","","","NaN",""
"","S1","","html-keyboard-response","213","248404","0.0-1.0-290.0","0","0","56277","","null","","","null","32","","","","","","","","","","","","","","","",""
"","ISI","","html-keyboard-response","214","250407","0.0-1.0-291.0","0","0","56277","","null","","","null","32","NaN","","","","","","","","","","","","","","",""
"","S2","","html-keyboard-response","215","250660","0.0-1.0-292.0","0","0","56277","","null","","","null","32","","NaN","","","","","","","","","","","","","",""
"","response","","html-keyboard-response","216","251384","0.0-1.0-293.0","0","0","56277","","723","","","75","32","","","1","32","training","adjacent","DE","4","5","L.jpg","R.jpg","1","1","1","",""
"","feedback","","html-keyboard-response","217","252386","0.0-1.0-294.0-0.0","0","0","56277","","null","","","null","32","","","","","","","","","","","","","","","",""
"","ITI","","html-keyboard-response","218","253388","0.0-1.0-297.0","0","0","56277","","null","","","null","32","","","","","","","","","","","","","","","NaN",""
"","S1","","html-keyboard-response","219","253641","0.0-1.0-299.0","0","0","56277","","null","","","null","33","","","","","","","","","","","","","","","",""
"","ISI","","html-keyboard-response","220","255644","0.0-1.0-300.0","0","0","56277","","null","","","null","33","NaN","","","","","","","","","","","","","","",""
"","S2","","html-keyboard-response","221","255896","0.0-1.0-301.0","0","0","56277","","null","","","null","33","","NaN","","","","","","","","","","","","","",""
"","response","","html-keyboard-response","222","256322","0.0-1.0-302.0","0","0","56277","","425","","","68","33","","","1","33","training","adjacent","EF","5","6","R.jpg","P.jpg","0","1","0","",""
"","feedback","","html-keyboard-response","223","257325","0.0-1.0-303.0-0.0","0","0","56277","","null","","","null","33","","","","","","","","","","","","","","","",""
"","time_out","","html-keyboard-response","224","259327","0.0-1.0-305.0-0.0","0","0","56277","","null","","","null","33","","","","","","","","","","","","","","","",""
"","ITI","","html-keyboard-response","225","260329","0.0-1.0-306.0","0","0","56277","","null","","","null","33","","","","","","","","","","","","","","","NaN",""
"","S1","","html-keyboard-response","226","260582","0.0-1.0-308.0","0","0","56277","","null","","","null","34","","","","","","","","","","","","","","","",""
"","ISI","","html-keyboard-response","227","262584","0.0-1.0-309.0","0","0","56277","","null","","","null","34","NaN","","","","","","","","","","","","","","",""
"","S2","","html-keyboard-response","228","262836","0.0-1.0-310.0","0","0","56277","","null","","","null","34","","NaN","","","","","","","","","","","","","",""
"","response","","html-keyboard-response","229","263501","0.0-1.0-311.0","0","0","56277","","664","","","75","34","","","1","34","training","adjacent","FG","6","7","P.jpg","M.jpg","1","1","1","",""
"","feedback","","html-keyboard-response","230","264504","0.0-1.0-312.0-0.0","0","0","56277","","null","","","null","34","","","","","","","","","","","","","","","",""
"","ITI","","html-keyboard-response","231","265506","0.0-1.0-315.0","0","0","56277","","null","","","null","34","","","","","","","","","","","","","","","NaN",""
"","S1","","html-keyboard-response","232","265758","0.0-1.0-317.0","0","0","56277","","null","","","null","35","","","","","","","","","","","","","","","",""
"","ISI","","html-keyboard-response","233","267761","0.0-1.0-318.0","0","0","56277","","null","","","null","35","NaN","","","","","","","","","","","","","","",""
"","S2","","html-keyboard-response","234","268014","0.0-1.0-319.0","0","0","56277","","null","","","null","35","","NaN","","","","","","","","","","","","","",""
"","response","","html-keyboard-response","235","269170","0.0-1.0-320.0","0","0","56277","","1155","","","75","35","","","1","35","training","adjacent","GF","7","6","M.jpg","P.jpg","1","0","0","",""
"","feedback","","html-keyboard-response","236","270174","0.0-1.0-321.0-0.0","0","0","56277","","null","","","null","35","","","","","","","","","","","","","","","",""
"","time_out","","html-keyboard-response","237","272176","0.0-1.0-323.0-0.0","0","0","56277","","null","","","null","35","","","","","","","","","","","","","","","",""
"","ITI","","html-keyboard-response","238","273179","0.0-1.0-324.0","0","0","56277","","null","","","null","35","","","","","","","","","","","","","","","NaN",""
"","S1","","html-keyboard-response","239","273432","0.0-1.0-326.0","0","0","56277","","null","","","null","36","","","","","","","","","","","","","","","",""
"","ISI","","html-keyboard-response","240","275435","0.0-1.0-327.0","0","0","56277","","null","","","null","36","NaN","","","","","","","","","","","","","","",""
"","S2","","html-keyboard-response","241","275687","0.0-1.0-328.0","0","0","56277","","null","","","null","36","","NaN","","","","","","","","","","","","","",""
"","response","","html-keyboard-response","242","276372","0.0-1.0-329.0","0","0","56277","","683","","","68","36","","","1","36","training","adjacent","FE","6","5","P.jpg","R.jpg","0","0","1","",""
"","feedback","","html-keyboard-response","243","277374","0.0-1.0-330.0-0.0","0","0","56277","","null","","","null","36","","","","","","","","","","","","","","","",""
"","ITI","","html-keyboard-response","244","278376","0.0-1.0-333.0","0","0","56277","","null","","","null","36","","","","","","","","","","","","","","","NaN",""
"","S1","","html-keyboard-response","245","278629","0.0-1.0-335.0","0","0","56277","","null","","","null","37","","","","","","","","","","","","","","","",""
"","ISI","","html-keyboard-response","246","280631","0.0-1.0-336.0","0","0","56277","","null","","","null","37","NaN","","","","","","","","","","","","","","",""
"","S2","","html-keyboard-response","247","280883","0.0-1.0-337.0","0","0","56277","","null","","","null","37","","NaN","","","","","","","","","","","","","",""
"","response","","html-keyboard-response","248","281276","0.0-1.0-338.0","0","0","56277","","391","","","75","37","","","1","37","training","adjacent","FE","6","5","P.jpg","R.jpg","1","0","0","",""
"","feedback","","html-keyboard-response","249","282279","0.0-1.0-339.0-0.0","0","0","56277","","null","","","null","37","","","","","","","","","","","","","","","",""
"","time_out","","html-keyboard-response","250","284281","0.0-1.0-341.0-0.0","0","0","56277","","null","","","null","37","","","","","","","","","","","","","","","",""
"","ITI","","html-keyboard-response","251","285283","0.0-1.0-342.0","0","0","56277","","null","","","null","37","","","","","","","","","","","","","","","NaN",""
"","S1","","html-keyboard-response","252","285535","0.0-1.0-344.0","0","0","56277","","null","","","null","38","","","","","","","","","","","","","","","",""
"","ISI","","html-keyboard-response","253","287537","0.0-1.0-345.0","0","0","56277","","null","","","null","38","NaN","","","","","","","","","","","","","","",""
"","S2","","html-keyboard-response","254","287790","0.0-1.0-346.0","0","0","56277","","null","","","null","38","","NaN","","","","","","","","","","","","","",""
"","response","","html-keyboard-response","255","287971","0.0-1.0-347.0","0","0","56277","","180","","","68","38","","","1","38","training","adjacent","FE","6","5","P.jpg","R.jpg","0","0","1","",""
"","feedback","","html-keyboard-response","256","288974","0.0-1.0-348.0-0.0","0","0","56277","","null","","","null","38","","","","","","","","","","","","","","","",""
"","ITI","","html-keyboard-response","257","289977","0.0-1.0-351.0","0","0","56277","","null","","","null","38","","","","","","","","","","","","","","","NaN",""
"","S1","","html-keyboard-response","258","290229","0.0-1.0-353.0","0","0","56277","","null","","","null","39","","","","","","","","","","","","","","","",""
"","ISI","","html-keyboard-response","259","292231","0.0-1.0-354.0","0","0","56277","","null","","","null","39","NaN","","","","","","","","","","","","","","",""
"","S2","","html-keyboard-response","260","292485","0.0-1.0-355.0","0","0","56277","","null","","","null","39","","NaN","","","","","","","","","","","","","",""
"","response","","html-keyboard-response","261","294487","0.0-1.0-356.0","0","0","56277","","null","","","null","39","","","1","39","training","adjacent","FG","6","7","P.jpg","M.jpg","NaN","1","0","",""
"","too_slow_prompt","","html-keyboard-response","262","295489","0.0-1.0-358.0-0.0","1","0","56277","","null","","","null","","","","","","","","","","","","","","","","",""
"","time_out","","html-keyboard-response","263","297492","0.0-1.0-359.0-0.0","0","0","56277","","null","","","null","39","","","","","","","","","","","","","","","",""
"","ITI","","html-keyboard-response","264","298494","0.0-1.0-360.0","0","0","56277","","null","","","null","39","","","","","","","","","","","","","","","NaN",""
"","S1","","html-keyboard-response","265","298747","0.0-1.0-362.0","0","0","56277","","null","","","null","40","","","","","","","","","","","","","","","",""
"","ISI","","html-keyboard-response","266","300750","0.0-1.0-363.0","0","0","56277","","null","","","null","40","NaN","","","","","","","","","","","","","","",""
"","S2","","html-keyboard-response","267","301003","0.0-1.0-364.0","0","0","56277","","null","","","null","40","","NaN","","","","","","","","","","","","","",""
"","response","","html-keyboard-response","268","301121","0.0-1.0-365.0","0","0","56277","","116","","","68","40","","","1","40","training","adjacent","EF","5","6","R.jpg","P.jpg","0","1","0","",""
"","feedback","","html-keyboard-response","269","302123","0.0-1.0-366.0-0.0","0","0","56277","","null","","","null","40","","","","","","","","","","","","","","","",""
"","time_out","","html-keyboard-response","270","304125","0.0-1.0-368.0-0.0","0","0","56277","","null","","","null","40","","","","","","","","","","","","","","","",""
"","ITI","","html-keyboard-response","271","305127","0.0-1.0-369.0","0","0","56277","","null","","","null","40","","","","","","","","","","","","","","","NaN",""
"","S1","","html-keyboard-response","272","305380","0.0-1.0-371.0","0","0","56277","","null","","","null","41","","","","","","","","","","","","","","","",""
"","ISI","","html-keyboard-response","273","307383","0.0-1.0-372.0","0","0","56277","","240","","","75","41","k","","","","","","","","","","","","","","",""
"","S2","","html-keyboard-response","274","307636","0.0-1.0-373.0","0","0","56277","","221","","","75","41","","k","","","","","","","","","","","","","",""
"","response","","html-keyboard-response","275","308450","0.0-1.0-374.0","0","0","56277","","813","","","75","41","","","1","41","training","adjacent","GF","7","6","M.jpg","P.jpg","1","0","0","",""
"","feedback","","html-keyboard-response","276","309453","0.0-1.0-375.0-0.0","0","0","56277","","null","","","null","41","","","","","","","","","","","","","","","",""
"","time_out","","html-keyboard-response","277","311455","0.0-1.0-377.0-0.0","0","0","56277","","null","","","null","41","","","","","","","","","","","","","","","",""
"","ITI","","html-keyboard-response","278","312458","0.0-1.0-378.0","0","0","56277","","null","","","null","41","","","","","","","","","","","","","","","NaN",""
"","S1","","html-keyboard-response","279","312710","0.0-1.0-380.0","0","0","56277","","null","","","null","42","","","","","","","","","","","","","","","",""
"","ISI","","html-keyboard-response","280","314712","0.0-1.0-381.0","0","0","56277","","null","","","null","42","NaN","","","","","","","","","","","","","","",""
"","S2","","html-keyboard-response","281","314964","0.0-1.0-382.0","0","0","56277","","null","","","null","42","","NaN","","","","","","","","","","","","","",""
"","response","","html-keyboard-response","282","315712","0.0-1.0-383.0","0","0","56277","","746","","","75","42","","","1","42","training","adjacent","DE","4","5","L.jpg","R.jpg","1","1","1","",""
"","feedback","","html-keyboard-response","283","316715","0.0-1.0-384.0-0.0","0","0","56277","","null","","","null","42","","","","","","","","","","","","","","","",""
"","ITI","","html-keyboard-response","284","317717","0.0-1.0-387.0","0","0","56277","","null","","","null","42","","","","","","","","","","","","","","","NaN",""
"","S1","","html-keyboard-response","285","317970","0.0-1.0-389.0","0","0","56277","","null","","","null","43","","","","","","","","","","","","","","","",""
"","ISI","","html-keyboard-response","286","319986","0.0-1.0-390.0","0","0","56277","","null","","","null","43","NaN","","","","","","","","","","","","","","",""
"","S2","","html-keyboard-response","287","320238","0.0-1.0-391.0","0","0","56277","","null","","","null","43","","NaN","","","","","","","","","","","","","",""
"","response","","html-keyboard-response","288","320719","0.0-1.0-392.0","0","0","56277","","479","","","75","43","","","1","43","training","adjacent","AB","1","2","Q.jpg","O.jpg","1","1","1","",""
"","feedback","","html-keyboard-response","289","321722","0.0-1.0-393.0-0.0","0","0","56277","","null","","","null","43","","","","","","","","","","","","","","","",""
"","ITI","","html-keyboard-response","290","322725","0.0-1.0-396.0","0","0","56277","","null","","","null","43","","","","","","","","","","","","","","","NaN",""
"","S1","","html-keyboard-response","291","322977","0.0-1.0-398.0","0","0","56277","","null","","","null","44","","","","","","","","","","","","","","","",""
"","ISI","","html-keyboard-response","292","324980","0.0-1.0-399.0","0","0","56277","","null","","","null","44","NaN","","","","","","","","","","","","","","",""
"","S2","","html-keyboard-response","293","325232","0.0-1.0-400.0","0","0","56277","","null","","","null","44","","NaN","","","","","","","","","","","","","",""
"","response","","html-keyboard-response","294","325804","0.0-1.0-401.0","0","0","56277","","571","","","68","44","","","1","44","training","adjacent","BC","2","3","O.jpg","N.jpg","0","1","0","",""
"","feedback","","html-keyboard-response","295","326807","0.0-1.0-402.0-0.0","0","0","56277","","null","","","null","44","","","","","","","","","","","","","","","",""
"","time_out","","html-keyboard-response","296","328809","0.0-1.0-404.0-0.0","0","0","56277","","null","","","null","44","","","","","","","","","","","","","","","",""
"","ITI","","html-keyboard-response","297","329811","0.0-1.0-405.0","0","0","56277","","null","","","null","44","","","","","","","","","","","","","","","NaN",""
"","S1","","html-keyboard-response","298","330063","0.0-1.0-407.0","0","0","56277","","null","","","null","45","","","","","","","","","","","","","","","",""
"","ISI","","html-keyboard-response","299","332065","0.0-1.0-408.0","0","0","56277","","null","","","null","45","NaN","","","","","","","","","","","","","","",""
"","S2","","html-keyboard-response","300","332317","0.0-1.0-409.0","0","0","56277","","null","","","null","45","","NaN","","","","","","","","","","","","","",""
"","response","","html-keyboard-response","301","333071","0.0-1.0-410.0","0","0","56277","","752","","","68","45","","","1","45","training","adjacent","GF","7","6","M.jpg","P.jpg","0","0","1","",""
"","feedback","","html-keyboard-response","302","334074","0.0-1.0-411.0-0.0","0","0","56277","","null","","","null","45","","","","","","","","","","","","","","","",""
"","ITI","","html-keyboard-response","303","335077","0.0-1.0-414.0","0","0","56277","","null","","","null","45","","","","","","","","","","","","","","","NaN",""
"","S1","","html-keyboard-response","304","335329","0.0-1.0-416.0","0","0","56277","","null","","","null","46","","","","","","","","","","","","","","","",""
"","ISI","","html-keyboard-response","305","337332","0.0-1.0-417.0","0","0","56277","","null","","","null","46","NaN","","","","","","","","","","","","","","",""
"","S2","","html-keyboard-response","306","337585","0.0-1.0-418.0","0","0","56277","","null","","","null","46","","NaN","","","","","","","","","","","","","",""
"","response","","html-keyboard-response","307","338629","0.0-1.0-419.0","0","0","56277","","1043","","","68","46","","","1","46","training","adjacent","BC","2","3","O.jpg","N.jpg","0","1","0","",""
"","feedback","","html-keyboard-response","308","339633","0.0-1.0-420.0-0.0","0","0","56277","","null","","","null","46","","","","","","","","","","","","","","","",""
"","time_out","","html-keyboard-response","309","341636","0.0-1.0-422.0-0.0","0","0","56277","","null","","","null","46","","","","","","","","","","","","","","","",""
"","ITI","","html-keyboard-response","310","342639","0.0-1.0-423.0","0","0","56277","","null","","","null","46","","","","","","","","","","","","","","","NaN",""
"","S1","","html-keyboard-response","311","342890","0.0-1.0-425.0","0","0","56277","","null","","","null","47","","","","","","","","","","","","","","","",""
"","ISI","","html-keyboard-response","312","344893","0.0-1.0-426.0","0","0","56277","","null","","","null","47","NaN","","","","","","","","","","","","","","",""
"","S2","","html-keyboard-response","313","345146","0.0-1.0-427.0","0","0","56277","","null","","","null","47","","NaN","","","","","","","","","","","","","",""
"","response","","html-keyboard-response","314","345332","0.0-1.0-428.0","0","0","56277","","185","","","68","47","","","1","47","training","adjacent","BC","2","3","O.jpg","N.jpg","0","1","0","",""
"","feedback","","html-keyboard-response","315","346335","0.0-1.0-429.0-0.0","0","0","56277","","null","","","null","47","","","","","","","","","","","","","","","",""
"","time_out","","html-keyboard-response","316","348338","0.0-1.0-431.0-0.0","0","0","56277","","null","","","null","47","","","","","","","","","","","","","","","",""
"","ITI","","html-keyboard-response","317","349340","0.0-1.0-432.0","0","0","56277","","null","","","null","47","","","","","","","","","","","","","","","NaN",""
"","block_over","","html-keyboard-response","318","353478","0.0-1.0-433.0-0.0","0","0","56277","","4137","","","32","47","","","","","","","","","","","","","","","",""
"","S1","","html-keyboard-response","319","353731","0.0-1.0-434.0","0","0","56277","","null","","","null","48","","","","","","","","","","","","","","","",""
"","ISI","","html-keyboard-response","320","355733","0.0-1.0-435.0","0","0","56277","","null","","","null","48","NaN","","","","","","","","","","","","","","",""
"","S2","","html-keyboard-response","321","355985","0.0-1.0-436.0","0","0","56277","","null","","","null","48","","NaN","","","","","","","","","","","","","",""
"","response","","html-keyboard-response","322","356124","0.0-1.0-437.0","0","0","56277","","136","","","68","48","","","2","48","training","adjacent","EF","5","6","R.jpg","P.jpg","0","1","0","",""
"","feedback","","html-keyboard-response","323","357126","0.0-1.0-438.0-0.0","0","0","56277","","null","","","null","48","","","","","","","","","","","","","","","",""
"","time_out","","html-keyboard-response","324","359129","0.0-1.0-440.0-0.0","0","0","56277","","null","","","null","48","","","","","","","","","","","","","","","",""
"","ITI","","html-keyboard-response","325","360132","0.0-1.0-441.0","0","0","56277","","null","","","null","48","","","","","","","","","","","","","","","NaN",""
"","S1","","html-keyboard-response","326","360385","0.0-1.0-443.0","0","0","56277","","null","","","null","49","","","","","","","","","","","","","","","",""
"","ISI","","html-keyboard-response","327","362387","0.0-1.0-444.0","0","0","56277","","101","","","75","49","k","","","","","","","","","","","","","","",""
"","S2","","html-keyboard-response","328","362640","0.0-1.0-445.0","0","0","56277","","null","","","null","49","","NaN","","","","","","","","","","","","","",""
"","response","","html-keyboard-response","329","362793","0.0-1.0-446.0","0","0","56277","","151","","","75","49","","","2","49","training","adjacent","CB","3","2","N.jpg","O.jpg","1","0","0","",""
"","feedback","","html-keyboard-response","330","363795","0.0-1.0-447.0-0.0","0","0","56277","","null","","","null","49","","","","","","","","","","","","","","","",""
"","time_out","","html-keyboard-response","331","365798","0.0-1.0-449.0-0.0","0","0","56277","","null","","","null","49","","","","","","","","","","","","","","","",""
"","ITI","","html-keyboard-response","332","366801","0.0-1.0-450.0","0","0","56277","","null","","","null","49","","","","","","","","","","","","","","","NaN",""
"","S1","","html-keyboard-response","333","367054","0.0-1.0-452.0","0","0","56277","","null","","","null","50","","","","","","","","","","","","","","","",""
"","ISI","","html-keyboard-response","334","369056","0.0-1.0-453.0","0","0","56277","","null","","","null","50","NaN","","","","","","","","","","","","","","",""
"","S2","","html-keyboard-response","335","369308","0.0-1.0-454.0","0","0","56277","","null","","","null","50","","NaN","","","","","","","","","","","","","",""
"","response","","html-keyboard-response","336","369690","0.0-1.0-455.0","0","0","56277","","380","","","75","50","","","2","50","training","adjacent","AB","1","2","Q.jpg","O.jpg","1","1","1","",""
"","feedback","","html-keyboard-response","337","370693","0.0-1.0-456.0-0.0","0","0","56277","","null","","","null","50","","","","","","","","","","","","","","","",""
"","ITI","","html-keyboard-response","338","371696","0.0-1.0-459.0","0","0","56277","","null","","","null","50","","","","","","","","","","","","","","","NaN",""
"","S1","","html-keyboard-response","339","371948","0.0-1.0-461.0","0","0","56277","","null","","","null","51","","","","","","","","","","","","","","","",""
"","ISI","","html-keyboard-response","340","373951","0.0-1.0-462.0","0","0","56277","","null","","","null","51","NaN","","","","","","","","","","","","","","",""
"","S2","","html-keyboard-response","341","374203","0.0-1.0-463.0","0","0","56277","","null","","","null","51","","NaN","","","","","","","","","","","","","",""
"","response","","html-keyboard-response","342","374584","0.0-1.0-464.0","0","0","56277","","379","","","75","51","","","2","51","training","adjacent","EF","5","6","R.jpg","P.jpg","1","1","1","",""
"","feedback","","html-keyboard-response","343","375587","0.0-1.0-465.0-0.0","0","0","56277","","null","","","null","51","","","","","","","","","","","","","","","",""
"","ITI","","html-keyboard-response","344","376589","0.0-1.0-468.0","0","0","56277","","null","","","null","51","","","","","","","","","","","","","","","NaN",""
"","S1","","html-keyboard-response","345","376841","0.0-1.0-470.0","0","0","56277","","null","","","null","52","","","","","","","","","","","","","","","",""
"","ISI","","html-keyboard-response","346","378844","0.0-1.0-471.0","0","0","56277","","null","","","null","52","NaN","","","","","","","","","","","","","","",""
"","S2","","html-keyboard-response","347","379097","0.0-1.0-472.0","0","0","56277","","null","","","null","52","","NaN","","","","","","","","","","","","","",""
"","response","","html-keyboard-response","348","379793","0.0-1.0-473.0","0","0","56277","","694","","","75","52","","","2","52","training","adjacent","CB","3","2","N.jpg","O.jpg","1","0","0","",""
"","feedback","","html-keyboard-response","349","380795","0.0-1.0-474.0-0.0","0","0","56277","","null","","","null","52","","","","","","","","","","","","","","","",""
"","time_out","","html-keyboard-response","350","382798","0.0-1.0-476.0-0.0","0","0","56277","","null","","","null","52","","","","","","","","","","","","","","","",""
"","ITI","","html-keyboard-response","351","383801","0.0-1.0-477.0","0","0","56277","","null","","","null","52","","","","","","","","","","","","","","","NaN",""
"","S1","","html-keyboard-response","352","384054","0.0-1.0-479.0","0","0","56277","","null","","","null","53","","","","","","","","","","","","","","","",""
"","ISI","","html-keyboard-response","353","386056","0.0-1.0-480.0","0","0","56277","","null","","","null","53","NaN","","","","","","","","","","","","","","",""
"","S2","","html-keyboard-response","354","386310","0.0-1.0-481.0","0","0","56277","","null","","","null","53","","NaN","","","","","","","","","","","","","",""
"","response","","html-keyboard-response","355","386700","0.0-1.0-482.0","0","0","56277","","389","","","68","53","","","2","53","training","adjacent","CD","3","4","N.jpg","L.jpg","0","1","0","",""
"","feedback","","html-keyboard-response","356","387703","0.0-1.0-483.0-0.0","0","0","56277","","null","","","null","53","","","","","","","","","","","","","","","",""
"","time_out","","html-keyboard-response","357","389706","0.0-1.0-485.0-0.0","0","0","56277","","null","","","null","53","","","","","","","","","","","","","","","",""
"","ITI","","html-keyboard-response","358","390708","0.0-1.0-486.0","0","0","56277","","null","","","null","53","","","","","","","","","","","","","","","NaN",""
"","S1","","html-keyboard-response","359","390960","0.0-1.0-488.0","0","0","56277","","null","","","null","54","","","","","","","","","","","","","","","",""
"","ISI","","html-keyboard-response","360","392962","0.0-1.0-489.0","0","0","56277","","null","","","null","54","NaN","","","","","","","","","","","","","","",""
"","S2","","html-keyboard-response","361","393215","0.0-1.0-490.0","0","0","56277","","null","","","null","54","","NaN","","","","","","","","","","","","","",""
"","response","","html-keyboard-response","362","393350","0.0-1.0-491.0","0","0","56277","","133","","","75","54","","","2","54","training","adjacent","GF","7","6","M.jpg","P.jpg","1","0","0","",""
"","feedback","","html-keyboard-response","363","394352","0.0-1.0-492.0-0.0","0","0","56277","","null","","","null","54","","","","","","","","","","","","","","","",""
"","time_out","","html-keyboard-response","364","396355","0.0-1.0-494.0-0.0","0","0","56277","","null","","","null","54","","","","","","","","","","","","","","","",""
"","ITI","","html-keyboard-response","365","397357","0.0-1.0-495.0","0","0","56277","","null","","","null","54","","","","","","","","","","","","","","","NaN",""
"","S1","","html-keyboard-response","366","397609","0.0-1.0-497.0","0","0","56277","","null","","","null","55","","","","","","","","","","","","","","","",""
"","ISI","","html-keyboard-response","367","399613","0.0-1.0-498.0","0","0","56277","","null","","","null","55","NaN","","","","","","","","","","","","","","",""
"","S2","","html-keyboard-response","368","399867","0.0-1.0-499.0","0","0","56277","","null","","","null","55","","NaN","","","","","","","","","","","","","",""
"","response","","html-keyboard-response","369","400054","0.0-1.0-500.0","0","0","56277","","184","","","75","55","","","2","55","training","adjacent","BC","2","3","O.jpg","N.jpg","1","1","1","",""
"","feedback","","html-keyboard-response","370","401056","0.0-1.0-501.0-0.0","0","0","56277","","null","","","null","55","","","","","","","","","","","","","","","",""
"","ITI","","html-keyboard-response","371","402059","0.0-1.0-504.0","0","0","56277","","null","","","null","55","","","","","","","","","","","","","","","NaN",""
"","S1","","html-keyboard-response","372","402311","0.0-1.0-506.0","0","0","56277","","null","","","null","56","","","","","","","","","","","","","","","",""
"","ISI","","html-keyboard-response","373","404314","0.0-1.0-507.0","0","0","56277","","null","","","null","56","NaN","","","","","","","","","","","","","","",""
"","S2","","html-keyboard-response","374","404567","0.0-1.0-508.0","0","0","56277","","null","","","null","56","","NaN","","","","","","","","","","","","","",""
"","response","","html-keyboard-response","375","405140","0.0-1.0-509.0","0","0","56277","","572","","","68","56","","","2","56","training","adjacent","EF","5","6","R.jpg","P.jpg","0","1","0","",""
"","feedback","","html-keyboard-response","376","406142","0.0-1.0-510.0-0.0","0","0","56277","","null","","","null","56","","","","","","","","","","","","","","","",""
"","time_out","","html-keyboard-response","377","408144","0.0-1.0-512.0-0.0","0","0","56277","","null","","","null","56","","","","","","","","","","","","","","","",""
"","ITI","","html-keyboard-response","378","409147","0.0-1.0-513.0","0","0","56277","","null","","","null","56","","","","","","","","","","","","","","","NaN",""
"","S1","","html-keyboard-response","379","409398","0.0-1.0-515.0","0","0","56277","","null","","","null","57","","","","","","","","","","","","","","","",""
"","ISI","","html-keyboard-response","380","411401","0.0-1.0-516.0","0","0","56277","","null","","","null","57","NaN","","","","","","","","","","","","","","",""
"","S2","","html-keyboard-response","381","411653","0.0-1.0-517.0","0","0","56277","","null","","","null","57","","NaN","","","","","","","","","","","","","",""
"","response","","html-keyboard-response","382","411923","0.0-1.0-518.0","0","0","56277","","268","","","68","57","","","2","57","training","adjacent","CD","3","4","N.jpg","L.jpg","0","1","0","",""
"","feedback","","html-keyboard-response","383","412925","0.0-1.0-519.0-0.0","0","0","56277","","null","","","null","57","","","","","","","","","","","","","","","",""
"","time_out","","html-keyboard-response","384","414928","0.0-1.0-521.0-0.0","0","0","56277","","null","","","null","57","","","","","","","","","","","","","","","",""
"","ITI","","html-keyboard-response","385","415931","0.0-1.0-522.0","0","0","56277","","null","","","null","57","","","","","","","","","","","","","","","NaN",""
"","S1","","html-keyboard-response","386","416184","0.0-1.0-524.0","0","0","56277","","null","","","null","58","","","","","","","","","","","","","","","",""
"","ISI","","html-keyboard-response","387","418185","0.0-1.0-525.0","0","0","56277","","null","","","null","58","NaN","","","","","","","","","","","","","","",""
"","S2","","html-keyboard-response","388","418438","0.0-1.0-526.0","0","0","56277","","null","","","null","58","","NaN","","","","","","","","","","","","","",""
"","response","","html-keyboard-response","389","418616","0.0-1.0-527.0","0","0","56277","","176","","","75","58","","","2","58","training","adjacent","ED","5","4","R.jpg","L.jpg","1","0","0","",""
"","feedback","","html-keyboard-response","390","419619","0.0-1.0-528.0-0.0","0","0","56277","","null","","","null","58","","","","","","","","","","","","","","","",""
"","time_out","","html-keyboard-response","391","421622","0.0-1.0-530.0-0.0","0","0","56277","","null","","","null","58","","","","","","","","","","","","","","","",""
"","ITI","","html-keyboard-response","392","422625","0.0-1.0-531.0","0","0","56277","","null","","","null","58","","","","","","","","","","","","","","","NaN",""
"","S1","","html-keyboard-response","393","422878","0.0-1.0-533.0","0","0","56277","","null","","","null","59","","","","","","","","","","","","","","","",""
"","ISI","","html-keyboard-response","394","424881","0.0-1.0-534.0","0","0","56277","","null","","","null","59","NaN","","","","","","","","","","","","","","",""
"","S2","","html-keyboard-response","395","425133","0.0-1.0-535.0","0","0","56277","","148","","","68","59","","d","","","","","","","","","","","","","",""
"","response","","html-keyboard-response","396","425507","0.0-1.0-536.0","0","0","56277","","372","","","68","59","","","2","59","training","adjacent","BA","2","1","O.jpg","Q.jpg","0","0","1","",""
"","feedback","","html-keyboard-response","397","426510","0.0-1.0-537.0-0.0","0","0","56277","","null","","","null","59","","","","","","","","","","","","","","","",""
"","ITI","","html-keyboard-response","398","427512","0.0-1.0-540.0","0","0","56277","","null","","","null","59","","","","","","","","","","","","","","","NaN",""
"","S1","","html-keyboard-response","399","427764","0.0-1.0-542.0","0","0","56277","","null","","","null","60","","","","","","","","","","","","","","","",""
"","ISI","","html-keyboard-response","400","429767","0.0-1.0-543.0","0","0","56277","","null","","","null","60","NaN","","","","","","","","","","","","","","",""
"","S2","","html-keyboard-response","401","430019","0.0-1.0-544.0","0","0","56277","","null","","","null","60","","NaN","","","","","","","","","","","","","",""
"","response","","html-keyboard-response","402","430656","0.0-1.0-545.0","0","0","56277","","635","","","75","60","","","2","60","training","adjacent","DC","4","3","L.jpg","N.jpg","1","0","0","",""
"","feedback","","html-keyboard-response","403","431659","0.0-1.0-546.0-0.0","0","0","56277","","null","","","null","60","","","","","","","","","","","","","","","",""
"","time_out","","html-keyboard-response","404","433661","0.0-1.0-548.0-0.0","0","0","56277","","null","","","null","60","","","","","","","","","","","","","","","",""
"","ITI","","html-keyboard-response","405","434663","0.0-1.0-549.0","0","0","56277","","null","","","null","60","","","","","","","","","","","","","","","NaN",""
"","S1","","html-keyboard-response","406","434916","0.0-1.0-551.0","0","0","56277","","null","","","null","61","","","","","","","","","","","","","","","",""
"","ISI","","html-keyboard-response","407","436918","0.0-1.0-552.0","0","0","56277","","null","","","null","61","NaN","","","","","","","","","","","","","","",""
"","S2","","html-keyboard-response","408","437170","0.0-1.0-553.0","0","0","56277","","null","","","null","61","","NaN","","","","","","","","","","","","","",""
"","response","","html-keyboard-response","409","437460","0.0-1.0-554.0","0","0","56277","","288","","","68","61","","","2","61","training","adjacent","BA","2","1","O.jpg","Q.jpg","0","0","1","",""
"","feedback","","html-keyboard-response","410","438463","0.0-1.0-555.0-0.0","0","0","56277","","null","","","null","61","","","","","","","","","","","","","","","",""
"","ITI","","html-keyboard-response","411","439465","0.0-1.0-558.0","0","0","56277","","null","","","null","61","","","","","","","","","","","","","","","NaN",""
"","S1","","html-keyboard-response","412","439718","0.0-1.0-560.0","0","0","56277","","null","","","null","62","","","","","","","","","","","","","","","",""
"","ISI","","html-keyboard-response","413","441720","0.0-1.0-561.0","0","0","56277","","null","","","null","62","NaN","","","","","","","","","","","","","","",""
"","S2","","html-keyboard-response","414","441972","0.0-1.0-562.0","0","0","56277","","null","","","null","62","","NaN","","","","","","","","","","","","","",""
"","response","","html-keyboard-response","415","442536","0.0-1.0-563.0","0","0","56277","","563","","","68","62","","","2","62","training","adjacent","DE","4","5","L.jpg","R.jpg","0","1","0","",""
"","feedback","","html-keyboard-response","416","443539","0.0-1.0-564.0-0.0","0","0","56277","","null","","","null","62","","","","","","","","","","","","","","","",""
"","time_out","","html-keyboard-response","417","445541","0.0-1.0-566.0-0.0","0","0","56277","","null","","","null","62","","","","","","","","","","","","","","","",""
"","ITI","","html-keyboard-response","418","446544","0.0-1.0-567.0","0","0","56277","","null","","","null","62","","","","","","","","","","","","","","","NaN",""
"","S1","","html-keyboard-response","419","446796","0.0-1.0-569.0","0","0","56277","","null","","","null","63","","","","","","","","","","","","","","","",""
"","ISI","","html-keyboard-response","420","448798","0.0-1.0-570.0","0","0","56277","","null","","","null","63","NaN","","","","","","","","","","","","","","",""
"","S2","","html-keyboard-response","421","449050","0.0-1.0-571.0","0","0","56277","","null","","","null","63","","NaN","","","","","","","","","","","","","",""
"","response","","html-keyboard-response","422","449398","0.0-1.0-572.0","0","0","56277","","346","","","75","63","","","2","63","training","adjacent","FE","6","5","P.jpg","R.jpg","1","0","0","",""
"","feedback","","html-keyboard-response","423","450402","0.0-1.0-573.0-0.0","0","0","56277","","null","","","null","63","","","","","","","","","","","","","","","",""
"","time_out","","html-keyboard-response","424","452405","0.0-1.0-575.0-0.0","0","0","56277","","null","","","null","63","","","","","","","","","","","","","","","",""
"","ITI","","html-keyboard-response","425","453407","0.0-1.0-576.0","0","0","56277","","null","","","null","63","","","","","","","","","","","","","","","NaN",""
"","S1","","html-keyboard-response","426","453660","0.0-1.0-578.0","0","0","56277","","null","","","null","64","","","","","","","","","","","","","","","",""
"","ISI","","html-keyboard-response","427","455662","0.0-1.0-579.0","0","0","56277","","null","","","null","64","NaN","","","","","","","","","","","","","","",""
"","S2","","html-keyboard-response","428","455915","0.0-1.0-580.0","0","0","56277","","null","","","null","64","","NaN","","","","","","","","","","","","","",""
"","response","","html-keyboard-response","429","456608","0.0-1.0-581.0","0","0","56277","","692","","","75","64","","","2","64","training","adjacent","CD","3","4","N.jpg","L.jpg","1","1","1","",""
"","feedback","","html-keyboard-response","430","457612","0.0-1.0-582.0-0.0","0","0","56277","","null","","","null","64","","","","","","","","","","","","","","","",""
"","ITI","","html-keyboard-response","431","458614","0.0-1.0-585.0","0","0","56277","","null","","","null","64","","","","","","","","","","","","","","","NaN",""
"","S1","","html-keyboard-response","432","458867","0.0-1.0-587.0","0","0","56277","","null","","","null","65","","","","","","","","","","","","","","","",""
"","ISI","","html-keyboard-response","433","460871","0.0-1.0-588.0","0","0","56277","","null","","","null","65","NaN","","","","","","","","","","","","","","",""
"","S2","","html-keyboard-response","434","461125","0.0-1.0-589.0","0","0","56277","","null","","","null","65","","NaN","","","","","","","","","","","","","",""
"","response","","html-keyboard-response","435","461604","0.0-1.0-590.0","0","0","56277","","477","","","68","65","","","2","65","training","adjacent","ED","5","4","R.jpg","L.jpg","0","0","1","",""
"","feedback","","html-keyboard-response","436","462606","0.0-1.0-591.0-0.0","0","0","56277","","null","","","null","65","","","","","","","","","","","","","","","",""
"","ITI","","html-keyboard-response","437","463609","0.0-1.0-594.0","0","0","56277","","null","","","null","65","","","","","","","","","","","","","","","NaN",""
"","S1","","html-keyboard-response","438","463862","0.0-1.0-596.0","0","0","56277","","null","","","null","66","","","","","","","","","","","","","","","",""
"","ISI","","html-keyboard-response","439","465864","0.0-1.0-597.0","0","0","56277","","null","","","null","66","NaN","","","","","","","","","","","","","","",""
"","S2","","html-keyboard-response","440","466116","0.0-1.0-598.0","0","0","56277","","null","","","null","66","","NaN","","","","","","","","","","","","","",""
"","response","","html-keyboard-response","441","466452","0.0-1.0-599.0","0","0","56277","","334","","","75","66","","","2","66","training","adjacent","FE","6","5","P.jpg","R.jpg","1","0","0","",""
"","feedback","","html-keyboard-response","442","467454","0.0-1.0-600.0-0.0","0","0","56277","","null","","","null","66","","","","","","","","","","","","","","","",""
"","time_out","","html-keyboard-response","443","469458","0.0-1.0-602.0-0.0","0","0","56277","","null","","","null","66","","","","","","","","","","","","","","","",""
"","ITI","","html-keyboard-response","444","470461","0.0-1.0-603.0","0","0","56277","","null","","","null","66","","","","","","","","","","","","","","","NaN",""
"","S1","","html-keyboard-response","445","470713","0.0-1.0-605.0","0","0","56277","","null","","","null","67","","","","","","","","","","","","","","","",""
"","ISI","","html-keyboard-response","446","472715","0.0-1.0-606.0","0","0","56277","","null","","","null","67","NaN","","","","","","","","","","","","","","",""
"","S2","","html-keyboard-response","447","472968","0.0-1.0-607.0","0","0","56277","","null","","","null","67","","NaN","","","","","","","","","","","","","",""
"","response","","html-keyboard-response","448","473619","0.0-1.0-608.0","0","0","56277","","650","","","68","67","","","2","67","training","adjacent","FG","6","7","P.jpg","M.jpg","0","1","0","",""
"","feedback","","html-keyboard-response","449","474622","0.0-1.0-609.0-0.0","0","0","56277","","null","","","null","67","","","","","","","","","","","","","","","",""
"","time_out","","html-keyboard-response","450","476624","0.0-1.0-611.0-0.0","0","0","56277","","null","","","null","67","","","","","","","","","","","","","","","",""
"","ITI","","html-keyboard-response","451","477627","0.0-1.0-612.0","0","0","56277","","null","","","null","67","","","","","","","","","","","","","","","NaN",""
"","S1","","html-keyboard-response","452","477879","0.0-1.0-614.0","0","0","56277","","null","","","null","68","","","","","","","","","","","","","","","",""
"","ISI","","html-keyboard-response","453","479882","0.0-1.0-615.0","0","0","56277","","null","","","null","68","NaN","","","","","","","","","","","","","","",""
"","S2","","html-keyboard-response","454","480134","0.0-1.0-616.0","0","0","56277","","null","","","null","68","","NaN","","","","","","","","","","","","","",""
"","response","","html-keyboard-response","455","480628","0.0-1.0-617.0","0","0","56277","","492","","","68","68","","","2","68","training","adjacent","BA","2","1","O.jpg","Q.jpg","0","0","1","",""
"","feedback","","html-keyboard-response","456","481632","0.0-1.0-618.0-0.0","0","0","56277","","null","","","null","68","","","","","","","","","","","","","","","",""
"","ITI","","html-keyboard-response","457","482634","0.0-1.0-621.0","0","0","56277","","null","","","null","68","","","","","","","","","","","","","","","NaN",""
"","S1","","html-keyboard-response","458","482887","0.0-1.0-623.0","0","0","56277","","null","","","null","69","","","","","","","","","","","","","","","",""
"","ISI","","html-keyboard-response","459","484889","0.0-1.0-624.0","0","0","56277","","null","","","null","69","NaN","","","","","","","","","","","","","","",""
"","S2","","html-keyboard-response","460","485154","0.0-1.0-625.0","0","0","56277","","null","","","null","69","","NaN","","","","","","","","","","","","","",""
"","response","","html-keyboard-response","461","486184","0.0-1.0-626.0","0","0","56277","","1029","","","75","69","","","2","69","training","adjacent","FE","6","5","P.jpg","R.jpg","1","0","0","",""
"","feedback","","html-keyboard-response","462","487185","0.0-1.0-627.0-0.0","0","0","56277","","null","","","null","69","","","","","","","","","","","","","","","",""
"","time_out","","html-keyboard-response","463","489188","0.0-1.0-629.0-0.0","0","0","56277","","null","","","null","69","","","","","","","","","","","","","","","",""
"","ITI","","html-keyboard-response","464","490192","0.0-1.0-630.0","0","0","56277","","null","","","null","69","","","","","","","","","","","","","","","NaN",""
"","S1","","html-keyboard-response","465","490445","0.0-1.0-632.0","0","0","56277","","null","","","null","70","","","","","","","","","","","","","","","",""
"","ISI","","html-keyboard-response","466","492447","0.0-1.0-633.0","0","0","56277","","null","","","null","70","NaN","","","","","","","","","","","","","","",""
"","S2","","html-keyboard-response","467","492699","0.0-1.0-634.0","0","0","56277","","null","","","null","70","","NaN","","","","","","","","","","","","","",""
"","response","","html-keyboard-response","468","493126","0.0-1.0-635.0","0","0","56277","","426","","","75","70","","","2","70","training","adjacent","DC","4","3","L.jpg","N.jpg","1","0","0","",""
"","feedback","","html-keyboard-response","469","494129","0.0-1.0-636.0-0.0","0","0","56277","","null","","","null","70","","","","","","","","","","","","","","","",""
"","time_out","","html-keyboard-response","470","496132","0.0-1.0-638.0-0.0","0","0","56277","","null","","","null","70","","","","","","","","","","","","","","","",""
"","ITI","","html-keyboard-response","471","497134","0.0-1.0-639.0","0","0","56277","","null","","","null","70","","","","","","","","","","","","","","","NaN",""
"","S1","","html-keyboard-response","472","497386","0.0-1.0-641.0","0","0","56277","","null","","","null","71","","","","","","","","","","","","","","","",""
"","ISI","","html-keyboard-response","473","499389","0.0-1.0-642.0","0","0","56277","","null","","","null","71","NaN","","","","","","","","","","","","","","",""
"","S2","","html-keyboard-response","474","499641","0.0-1.0-643.0","0","0","56277","","null","","","null","71","","NaN","","","","","","","","","","","","","",""
"","response","","html-keyboard-response","475","500247","0.0-1.0-644.0","0","0","56277","","605","","","68","71","","","2","71","training","adjacent","FG","6","7","P.jpg","M.jpg","0","1","0","",""
"","feedback","","html-keyboard-response","476","501250","0.0-1.0-645.0-0.0","0","0","56277","","null","","","null","71","","","","","","","","","","","","","","","",""
"","time_out","","html-keyboard-response","477","503252","0.0-1.0-647.0-0.0","0","0","56277","","null","","","null","71","","","","","","","","","","","","","","","",""
"","ITI","","html-keyboard-response","478","504254","0.0-1.0-648.0","0","0","56277","","null","","","null","71","","","","","","","","","","","","","","","NaN",""
"","S1","","html-keyboard-response","479","504508","0.0-1.0-650.0","0","0","56277","","null","","","null","72","","","","","","","","","","","","","","","",""
"","ISI","","html-keyboard-response","480","506510","0.0-1.0-651.0","0","0","56277","","502","","","75","72","k","","","","","","","","","","","","","","",""
"","S2","","html-keyboard-response","481","506762","0.0-1.0-652.0","0","0","56277","","null","","","null","72","","NaN","","","","","","","","","","","","","",""
"","response","","html-keyboard-response","482","506949","0.0-1.0-653.0","0","0","56277","","186","","","68","72","","","2","72","training","adjacent","GF","7","6","M.jpg","P.jpg","0","0","1","",""
"","feedback","","html-keyboard-response","483","507952","0.0-1.0-654.0-0.0","0","0","56277","","null","","","null","72","","","","","","","","","","","","","","","",""
"","ITI","","html-keyboard-response","484","508955","0.0-1.0-657.0","0","0","56277","","null","","","null","72","","","","","","","","","","","","","","","NaN",""
"","S1","","html-keyboard-response","485","509207","0.0-1.0-659.0","0","0","56277","","null","","","null","73","","","","","","","","","","","","","","","",""
"","ISI","","html-keyboard-response","486","511210","0.0-1.0-660.0","0","0","56277","","null","","","null","73","NaN","","","","","","","","","","","","","","",""
"","S2","","html-keyboard-response","487","511462","0.0-1.0-661.0","0","0","56277","","null","","","null","73","","NaN","","","","","","","","","","","","","",""
"","response","","html-keyboard-response","488","512029","0.0-1.0-662.0","0","0","56277","","565","","","75","73","","","2","73","training","adjacent","DE","4","5","L.jpg","R.jpg","1","1","1","",""
"","feedback","","html-keyboard-response","489","513032","0.0-1.0-663.0-0.0","0","0","56277","","null","","","null","73","","","","","","","","","","","","","","","",""
"","ITI","","html-keyboard-response","490","514034","0.0-1.0-666.0","0","0","56277","","null","","","null","73","","","","","","","","","","","","","","","NaN",""
"","S1","","html-keyboard-response","491","514287","0.0-1.0-668.0","0","0","56277","","null","","","null","74","","","","","","","","","","","","","","","",""
"","ISI","","html-keyboard-response","492","516291","0.0-1.0-669.0","0","0","56277","","null","","","null","74","NaN","","","","","","","","","","","","","","",""
"","S2","","html-keyboard-response","493","516543","0.0-1.0-670.0","0","0","56277","","null","","","null","74","","NaN","","","","","","","","","","","","","",""
"","response","","html-keyboard-response","494","517043","0.0-1.0-671.0","0","0","56277","","499","","","68","74","","","2","74","training","adjacent","BA","2","1","O.jpg","Q.jpg","0","0","1","",""
"","feedback","","html-keyboard-response","495","518046","0.0-1.0-672.0-0.0","0","0","56277","","null","","","null","74","","","","","","","","","","","","","","","",""
"","ITI","","html-keyboard-response","496","519049","0.0-1.0-675.0","0","0","56277","","null","","","null","74","","","","","","","","","","","","","","","NaN",""
"","S1","","html-keyboard-response","497","519302","0.0-1.0-677.0","0","0","56277","","null","","","null","75","","","","","","","","","","","","","","","",""
"","ISI","","html-keyboard-response","498","521304","0.0-1.0-678.0","0","0","56277","","null","","","null","75","NaN","","","","","","","","","","","","","","",""
"","S2","","html-keyboard-response","499","521556","0.0-1.0-679.0","0","0","56277","","null","","","null","75","","NaN","","","","","","","","","","","","","",""
"","response","","html-keyboard-response","500","522096","0.0-1.0-680.0","0","0","56277","","538","","","68","75","","","2","75","training","adjacent","CB","3","2","N.jpg","O.jpg","0","0","1","",""
"","feedback","","html-keyboard-response","501","523099","0.0-1.0-681.0-0.0","0","0","56277","","null","","","null","75","","","","","","","","","","","","","","","",""
"","ITI","","html-keyboard-response","502","524101","0.0-1.0-684.0","0","0","56277","","null","","","null","75","","","","","","","","","","","","","","","NaN",""
"","S1","","html-keyboard-response","503","524354","0.0-1.0-686.0","0","0","56277","","null","","","null","76","","","","","","","","","","","","","","","",""
"","ISI","","html-keyboard-response","504","526356","0.0-1.0-687.0","0","0","56277","","null","","","null","76","NaN","","","","","","","","","","","","","","",""
"","S2","","html-keyboard-response","505","526608","0.0-1.0-688.0","0","0","56277","","null","","","null","76","","NaN","","","","","","","","","","","","","",""
"","response","","html-keyboard-response","506","526921","0.0-1.0-689.0","0","0","56277","","312","","","75","76","","","2","76","training","adjacent","ED","5","4","R.jpg","L.jpg","1","0","0","",""
"","feedback","","html-keyboard-response","507","527924","0.0-1.0-690.0-0.0","0","0","56277","","null","","","null","76","","","","","","","","","","","","","","","",""
"","time_out","","html-keyboard-response","508","529926","0.0-1.0-692.0-0.0","0","0","56277","","null","","","null","76","","","","","","","","","","","","","","","",""
"","ITI","","html-keyboard-response","509","530929","0.0-1.0-693.0","0","0","56277","","null","","","null","76","","","","","","","","","","","","","","","NaN",""
"","S1","","html-keyboard-response","510","531182","0.0-1.0-695.0","0","0","56277","","null","","","null","77","","","","","","","","","","","","","","","",""
"","ISI","","html-keyboard-response","511","533183","0.0-1.0-696.0","0","0","56277","","null","","","null","77","NaN","","","","","","","","","","","","","","",""
"","S2","","html-keyboard-response","512","533436","0.0-1.0-697.0","0","0","56277","","null","","","null","77","","NaN","","","","","","","","","","","","","",""
"","response","","html-keyboard-response","513","533887","0.0-1.0-698.0","0","0","56277","","449","","","75","77","","","2","77","training","adjacent","GF","7","6","M.jpg","P.jpg","1","0","0","",""
"","feedback","","html-keyboard-response","514","534890","0.0-1.0-699.0-0.0","0","0","56277","","null","","","null","77","","","","","","","","","","","","","","","",""
"","time_out","","html-keyboard-response","515","536892","0.0-1.0-701.0-0.0","0","0","56277","","null","","","null","77","","","","","","","","","","","","","","","",""
"","ITI","","html-keyboard-response","516","537894","0.0-1.0-702.0","0","0","56277","","null","","","null","77","","","","","","","","","","","","","","","NaN",""
"","S1","","html-keyboard-response","517","538147","0.0-1.0-704.0","0","0","56277","","null","","","null","78","","","","","","","","","","","","","","","",""
"","ISI","","html-keyboard-response","518","540149","0.0-1.0-705.0","0","0","56277","","null","","","null","78","NaN","","","","","","","","","","","","","","",""
"","S2","","html-keyboard-response","519","540401","0.0-1.0-706.0","0","0","56277","","null","","","null","78","","NaN","","","","","","","","","","","","","",""
"","response","","html-keyboard-response","520","540514","0.0-1.0-707.0","0","0","56277","","110","","","68","78","","","2","78","training","adjacent","FG","6","7","P.jpg","M.jpg","0","1","0","",""
"","feedback","","html-keyboard-response","521","541517","0.0-1.0-708.0-0.0","0","0","56277","","null","","","null","78","","","","","","","","","","","","","","","",""
"","time_out","","html-keyboard-response","522","543519","0.0-1.0-710.0-0.0","0","0","56277","","null","","","null","78","","","","","","","","","","","","","","","",""
"","ITI","","html-keyboard-response","523","544522","0.0-1.0-711.0","0","0","56277","","null","","","null","78","","","","","","","","","","","","","","","NaN",""
"","S1","","html-keyboard-response","524","544775","0.0-1.0-713.0","0","0","56277","","null","","","null","79","","","","","","","","","","","","","","","",""
"","ISI","","html-keyboard-response","525","546778","0.0-1.0-714.0","0","0","56277","","135","","","75","79","k","","","","","","","","","","","","","","",""
"","S2","","html-keyboard-response","526","547031","0.0-1.0-715.0","0","0","56277","","null","","","null","79","","NaN","","","","","","","","","","","","","",""
"","response","","html-keyboard-response","527","547206","0.0-1.0-716.0","0","0","56277","","174","","","75","79","","","2","79","training","adjacent","DE","4","5","L.jpg","R.jpg","1","1","1","",""
"","feedback","","html-keyboard-response","528","548209","0.0-1.0-717.0-0.0","0","0","56277","","null","","","null","79","","","","","","","","","","","","","","","",""
"","ITI","","html-keyboard-response","529","549212","0.0-1.0-720.0","0","0","56277","","null","","","null","79","","","","","","","","","","","","","","","NaN",""
"","S1","","html-keyboard-response","530","549464","0.0-1.0-722.0","0","0","56277","","null","","","null","80","","","","","","","","","","","","","","","",""
"","ISI","","html-keyboard-response","531","551466","0.0-1.0-723.0","0","0","56277","","null","","","null","80","NaN","","","","","","","","","","","","","","",""
"","S2","","html-keyboard-response","532","551719","0.0-1.0-724.0","0","0","56277","","null","","","null","80","","NaN","","","","","","","","","","","","","",""
"","response","","html-keyboard-response","533","552968","0.0-1.0-725.0","0","0","56277","","1247","","","75","80","","","2","80","training","adjacent","FG","6","7","P.jpg","M.jpg","1","1","1","",""
"","feedback","","html-keyboard-response","534","553970","0.0-1.0-726.0-0.0","0","0","56277","","null","","","null","80","","","","","","","","","","","","","","","",""
"","ITI","","html-keyboard-response","535","554973","0.0-1.0-729.0","0","0","56277","","null","","","null","80","","","","","","","","","","","","","","","NaN",""
"","S1","","html-keyboard-response","536","555226","0.0-1.0-731.0","0","0","56277","","null","","","null","81","","","","","","","","","","","","","","","",""
"","ISI","","html-keyboard-response","537","557229","0.0-1.0-732.0","0","0","56277","","null","","","null","81","NaN","","","","","","","","","","","","","","",""
"","S2","","html-keyboard-response","538","557481","0.0-1.0-733.0","0","0","56277","","null","","","null","81","","NaN","","","","","","","","","","","","","",""
"","response","","html-keyboard-response","539","559484","0.0-1.0-734.0","0","0","56277","","null","","","null","81","","","2","81","training","adjacent","BC","2","3","O.jpg","N.jpg","NaN","1","0","",""
"","too_slow_prompt","","html-keyboard-response","540","560487","0.0-1.0-736.0-0.0","1","0","56277","","null","","","null","","","","","","","","","","","","","","","","",""
"","time_out","","html-keyboard-response","541","562489","0.0-1.0-737.0-0.0","0","0","56277","","null","","","null","81","","","","","","","","","","","","","","","",""
"","ITI","","html-keyboard-response","542","563492","0.0-1.0-738.0","0","0","56277","","null","","","null","81","","","","","","","","","","","","","","","NaN",""
"","S1","","html-keyboard-response","543","563744","0.0-1.0-740.0","0","0","56277","","null","","","null","82","","","","","","","","","","","","","","","",""
"","ISI","","html-keyboard-response","544","565747","0.0-1.0-741.0","0","0","56277","","null","","","null","82","NaN","","","","","","","","","","","","","","",""
"","S2","","html-keyboard-response","545","566000","0.0-1.0-742.0","0","0","56277","","null","","","null","82","","NaN","","","","","","","","","","","","","",""
"","response","","html-keyboard-response","546","566162","0.0-1.0-743.0","0","0","56277","","161","","","68","82","","","2","82","training","adjacent","BC","2","3","O.jpg","N.jpg","0","1","0","",""
"","feedback","","html-keyboard-response","547","567165","0.0-1.0-744.0-0.0","0","0","56277","","null","","","null","82","","","","","","","","","","","","","","","",""
"","time_out","","html-keyboard-response","548","569168","0.0-1.0-746.0-0.0","0","0","56277","","null","","","null","82","","","","","","","","","","","","","","","",""
"","ITI","","html-keyboard-response","549","570170","0.0-1.0-747.0","0","0","56277","","null","","","null","82","","","","","","","","","","","","","","","NaN",""
"","S1","","html-keyboard-response","550","570422","0.0-1.0-749.0","0","0","56277","","null","","","null","83","","","","","","","","","","","","","","","",""
"","ISI","","html-keyboard-response","551","572424","0.0-1.0-750.0","0","0","56277","","null","","","null","83","NaN","","","","","","","","","","","","","","",""
"","S2","","html-keyboard-response","552","572676","0.0-1.0-751.0","0","0","56277","","null","","","null","83","","NaN","","","","","","","","","","","","","",""
"","response","","html-keyboard-response","553","573227","0.0-1.0-752.0","0","0","56277","","549","","","68","83","","","2","83","training","adjacent","CD","3","4","N.jpg","L.jpg","0","1","0","",""
"","feedback","","html-keyboard-response","554","574230","0.0-1.0-753.0-0.0","0","0","56277","","null","","","null","83","","","","","","","","","","","","","","","",""
"","time_out","","html-keyboard-response","555","576233","0.0-1.0-755.0-0.0","0","0","56277","","null","","","null","83","","","","","","","","","","","","","","","",""
"","ITI","","html-keyboard-response","556","577234","0.0-1.0-756.0","0","0","56277","","null","","","null","83","","","","","","","","","","","","","","","NaN",""
"","S1","","html-keyboard-response","557","577487","0.0-1.0-758.0","0","0","56277","","null","","","null","84","","","","","","","","","","","","","","","",""
"","ISI","","html-keyboard-response","558","579490","0.0-1.0-759.0","0","0","56277","","171","","","75","84","k","","","","","","","","","","","","","","",""
"","S2","","html-keyboard-response","559","579743","0.0-1.0-760.0","0","0","56277","","null","","","null","84","","NaN","","","","","","","","","","","","","",""
"","response","","html-keyboard-response","560","579854","0.0-1.0-761.0","0","0","56277","","109","","","75","84","","","2","84","training","adjacent","DE","4","5","L.jpg","R.jpg","1","1","1","",""
"","feedback","","html-keyboard-response","561","580856","0.0-1.0-762.0-0.0","0","0","56277","","null","","","null","84","","","","","","","","","","","","","","","",""
"","ITI","","html-keyboard-response","562","581859","0.0-1.0-765.0","0","0","56277","","null","","","null","84","","","","","","","","","","","","","","","NaN",""
"","S1","","html-keyboard-response","563","582113","0.0-1.0-767.0","0","0","56277","","null","","","null","85","","","","","","","","","","","","","","","",""
"","ISI","","html-keyboard-response","564","584115","0.0-1.0-768.0","0","0","56277","","685","","","75","85","k","","","","","","","","","","","","","","",""
"","S2","","html-keyboard-response","565","584367","0.0-1.0-769.0","0","0","56277","","null","","","null","85","","NaN","","","","","","","","","","","","","",""
"","response","","html-keyboard-response","566","584584","0.0-1.0-770.0","0","0","56277","","215","","","68","85","","","2","85","training","adjacent","AB","1","2","Q.jpg","O.jpg","0","1","0","",""
"","feedback","","html-keyboard-response","567","585587","0.0-1.0-771.0-0.0","0","0","56277","","null","","","null","85","","","","","","","","","","","","","","","",""
"","time_out","","html-keyboard-response","568","587589","0.0-1.0-773.0-0.0","0","0","56277","","null","","","null","85","","","","","","","","","","","","","","","",""
"","ITI","","html-keyboard-response","569","588593","0.0-1.0-774.0","0","0","56277","","null","","","null","85","","","","","","","","","","","","","","","NaN",""
"","S1","","html-keyboard-response","570","588844","0.0-1.0-776.0","0","0","56277","","null","","","null","86","","","","","","","","","","","","","","","",""
"","ISI","","html-keyboard-response","571","590848","0.0-1.0-777.0","0","0","56277","","null","","","null","86","NaN","","","","","","","","","","","","","","",""
"","S2","","html-keyboard-response","572","591100","0.0-1.0-778.0","0","0","56277","","null","","","null","86","","NaN","","","","","","","","","","","","","",""
"","response","","html-keyboard-response","573","591631","0.0-1.0-779.0","0","0","56277","","530","","","68","86","","","2","86","training","adjacent","DC","4","3","L.jpg","N.jpg","0","0","1","",""
"","feedback","","html-keyboard-response","574","592635","0.0-1.0-780.0-0.0","0","0","56277","","null","","","null","86","","","","","","","","","","","","","","","",""
"","ITI","","html-keyboard-response","575","593638","0.0-1.0-783.0","0","0","56277","","null","","","null","86","","","","","","","","","","","","","","","NaN",""
"","S1","","html-keyboard-response","576","593890","0.0-1.0-785.0","0","0","56277","","null","","","null","87","","","","","","","","","","","","","","","",""
"","ISI","","html-keyboard-response","577","595893","0.0-1.0-786.0","0","0","56277","","null","","","null","87","NaN","","","","","","","","","","","","","","",""
"","S2","","html-keyboard-response","578","596146","0.0-1.0-787.0","0","0","56277","","null","","","null","87","","NaN","","","","","","","","","","","","","",""
"","response","","html-keyboard-response","579","596650","0.0-1.0-788.0","0","0","56277","","503","","","75","87","","","2","87","training","adjacent","ED","5","4","R.jpg","L.jpg","1","0","0","",""
"","feedback","","html-keyboard-response","580","597653","0.0-1.0-789.0-0.0","0","0","56277","","null","","","null","87","","","","","","","","","","","","","","","",""
"","time_out","","html-keyboard-response","581","599656","0.0-1.0-791.0-0.0","0","0","56277","","null","","","null","87","","","","","","","","","","","","","","","",""
"","ITI","","html-keyboard-response","582","600659","0.0-1.0-792.0","0","0","56277","","null","","","null","87","","","","","","","","","","","","","","","NaN",""
"","S1","","html-keyboard-response","583","600912","0.0-1.0-794.0","0","0","56277","","null","","","null","88","","","","","","","","","","","","","","","",""
"","ISI","","html-keyboard-response","584","602914","0.0-1.0-795.0","0","0","56277","","null","","","null","88","NaN","","","","","","","","","","","","","","",""
"","S2","","html-keyboard-response","585","603166","0.0-1.0-796.0","0","0","56277","","null","","","null","88","","NaN","","","","","","","","","","","","","",""
