"success","ttype","start_time","trial_type","trial_index","time_elapsed","internal_node_id","warning","missed_checkup","PID","view_history","rt","responses","repeat_instructions","key_press","index","keypress_isi","keypress_S2","block","trial_num","phase","group_type","pair_type","S1_stim","S2_stim","S1_img","S2_img","S1_chosen","S1_higher","accuracy","keypress_iti","total_bonus_tally"
"true","full_screen","d04062023hr2108","fullscreen","0","9027","0.0-0.0","0","0","54117","","","","","","","","","","","","","","","","","","","","","",""
"","instructions","","instructions","1","45132","0.0-1.0-0.0-0.0","0","0","54117","[{""page_index"":0,""viewing_time"":9099},{""page_index"":1,""viewing_time"":15558},{""page_index"":2,""viewing_time"":8711},{""page_index"":3,""viewing_time"":2734}]","36103","","","","","","","","","","","","","","","","","","","",""
"","comprehension_check","","survey-multi-choice","2","78660","0.0-1.0-0.0-1.0","0","0","54117","","33518","{""Q0"":""True"",""Q1"":""K"",""Q2"":""Once the second image appears and while the screen 'MAKE A CHOICE' is shown"",""Q3"":""Green mark"",""Q4"":""either D or K""}","0","","","","","","","","","","","","","","","","","",""
"","start_exp","","html-keyboard-response","3","97170","0.0-1.0-1.0","0","0","54117","","18507","","","32","","","","","","","","","","","","","","","","",""
"","S1","","html-keyboard-response","4","97324","0.0-1.0-2.0","0","0","54117","","null","","","null","0","","","","","","","","","","","","","","","",""
"","ISI","","html-keyboard-response","5","99327","0.0-1.0-3.0","0","0","54117","","null","","","null","0","NaN","","","","","","","","","","","","","","",""
"","S2","","html-keyboard-response","6","99481","0.0-1.0-4.0","0","0","54117","","null","","","null","0","","NaN","","","","","","","","","","","","","",""
"","response","","html-keyboard-response","7","100238","0.0-1.0-5.0-0.0","0","0","54117","","755","","","68","0","","","1","0","training","adjacent","DE","4","5","O.jpg","Q.jpg","0","1","0","",""
"","feedback","","html-keyboard-response","8","101243","0.0-1.0-6.0-0.0","0","0","54117","","null","","","null","0","","","","","","","","","","","","","","","",""
"","time_out","","html-keyboard-response","9","103247","0.0-1.0-8.0-0.0","0","0","54117","","null","","","null","0","","","","","","","","","","","","","","","",""
"","ITI","","html-keyboard-response","10","104250","0.0-1.0-9.0","0","0","54117","","null","","","null","0","","","","","","","","","","","","","","","NaN",""
"","S1","","html-keyboard-response","11","104403","0.0-1.0-11.0","0","0","54117","","null","","","null","1","","","","","","","","","","","","","","","",""
"","ISI","","html-keyboard-response","12","106409","0.0-1.0-12.0","0","0","54117","","null","","","null","1","NaN","","","","","","","","","","","","","","",""
"","S2","","html-keyboard-response","13","106562","0.0-1.0-13.0","0","0","54117","","null","","","null","1","","NaN","","","","","","","","","","","","","",""
"","response","","html-keyboard-response","14","107148","0.0-1.0-14.0-0.0","0","0","54117","","583","","","75","1","","","1","1","training","adjacent","ED","5","4","Q.jpg","O.jpg","1","0","0","",""
"","feedback","","html-keyboard-response","15","108152","0.0-1.0-15.0-0.0","0","0","54117","","null","","","null","1","","","","","","","","","","","","","","","",""
"","time_out","","html-keyboard-response","16","110155","0.0-1.0-17.0-0.0","0","0","54117","","null","","","null","1","","","","","","","","","","","","","","","",""
"","ITI","","html-keyboard-response","17","111158","0.0-1.0-18.0","0","0","54117","","null","","","null","1","","","","","","","","","","","","","","","NaN",""
"","S1","","html-keyboard-response","18","111311","0.0-1.0-20.0","0","0","54117","","null","","","null","2","","","","","","","","","","","","","","","",""
"","ISI","","html-keyboard-response","19","113314","0.0-1.0-21.0","0","0","54117","","null","","","null","2","NaN","","","","","","","","","","","","","","",""
"","S2","","html-keyboard-response","20","113466","0.0-1.0-22.0","0","0","54117","","null","","","null","2","","NaN","","","","","","","","","","","","","",""
"","response","","html-keyboard-response","21","114214","0.0-1.0-23.0-0.0","0","0","54117","","746","","","68","2","","","1","2","training","adjacent","FG","6","7","L.jpg","R.jpg","0","1","0","",""
"","feedback","","html-keyboard-response","22","115218","0.0-1.0-24.0-0.0","0","0","54117","","null","","","null","2","","","","","","","","","","","","","","","",""
"","time_out","","html-keyboard-response","23","117221","0.0-1.0-26.0-0.0","0","0","54117","","null","","","null","2","","","","","","","","","","","","","","","",""
"","ITI","","html-keyboard-response","24","118225","0.0-1.0-27.0","0","0","54117","","null","","","null","2","","","","","","","","","","","","","","","NaN",""
"","S1","","html-keyboard-response","25","118379","0.0-1.0-29.0","0","0","54117","","null","","","null","3","","","","","","","","","","","","","","","",""
"","ISI","","html-keyboard-response","26","120382","0.0-1.0-30.0","0","0","54117","","null","","","null","3","NaN","","","","","","","","","","","","","","",""
"","S2","","html-keyboard-response","27","120537","0.0-1.0-31.0","0","0","54117","","null","","","null","3","","NaN","","","","","","","","","","","","","",""
"","response","","html-keyboard-response","28","121239","0.0-1.0-32.0-0.0","0","0","54117","","698","","","75","3","","","1","3","training","adjacent","BA","2","1","P.jpg","M.jpg","1","0","0","",""
"","feedback","","html-keyboard-response","29","122243","0.0-1.0-33.0-0.0","0","0","54117","","null","","","null","3","","","","","","","","","","","","","","","",""
"","time_out","","html-keyboard-response","30","124246","0.0-1.0-35.0-0.0","0","0","54117","","null","","","null","3","","","","","","","","","","","","","","","",""
"","ITI","","html-keyboard-response","31","125250","0.0-1.0-36.0","0","0","54117","","null","","","null","3","","","","","","","","","","","","","","","NaN",""
"","S1","","html-keyboard-response","32","125405","0.0-1.0-38.0","0","0","54117","","null","","","null","4","","","","","","","","","","","","","","","",""
"","ISI","","html-keyboard-response","33","127409","0.0-1.0-39.0","0","0","54117","","null","","","null","4","NaN","","","","","","","","","","","","","","",""
"","S2","","html-keyboard-response","34","127575","0.0-1.0-40.0","0","0","54117","","null","","","null","4","","NaN","","","","","","","","","","","","","",""
"","response","","html-keyboard-response","35","128114","0.0-1.0-41.0-0.0","0","0","54117","","536","","","68","4","","","1","4","training","adjacent","CB","3","2","N.jpg","P.jpg","0","0","1","",""
"","feedback","","html-keyboard-response","36","129119","0.0-1.0-42.0-0.0","0","0","54117","","null","","","null","4","","","","","","","","","","","","","","","",""
"","ITI","","html-keyboard-response","37","130123","0.0-1.0-45.0","0","0","54117","","null","","","null","4","","","","","","","","","","","","","","","NaN",""
"","S1","","html-keyboard-response","38","130277","0.0-1.0-47.0","0","0","54117","","null","","","null","5","","","","","","","","","","","","","","","",""
"","ISI","","html-keyboard-response","39","132281","0.0-1.0-48.0","0","0","54117","","null","","","null","5","NaN","","","","","","","","","","","","","","",""
"","S2","","html-keyboard-response","40","132435","0.0-1.0-49.0","0","0","54117","","null","","","null","5","","NaN","","","","","","","","","","","","","",""
"","response","","html-keyboard-response","41","133058","0.0-1.0-50.0-0.0","0","0","54117","","619","","","68","5","","","1","5","training","adjacent","DE","4","5","O.jpg","Q.jpg","0","1","0","",""
"","feedback","","html-keyboard-response","42","134062","0.0-1.0-51.0-0.0","0","0","54117","","null","","","null","5","","","","","","","","","","","","","","","",""
"","time_out","","html-keyboard-response","43","136066","0.0-1.0-53.0-0.0","0","0","54117","","null","","","null","5","","","","","","","","","","","","","","","",""
"","ITI","","html-keyboard-response","44","137070","0.0-1.0-54.0","0","0","54117","","null","","","null","5","","","","","","","","","","","","","","","NaN",""
"","S1","","html-keyboard-response","45","137223","0.0-1.0-56.0","0","0","54117","","null","","","null","6","","","","","","","","","","","","","","","",""
"","ISI","","html-keyboard-response","46","139227","0.0-1.0-57.0","0","0","54117","","null","","","null","6","NaN","","","","","","","","","","","","","","",""
"","S2","","html-keyboard-response","47","139381","0.0-1.0-58.0","0","0","54117","","null","","","null","6","","NaN","","","","","","","","","","","","","",""
"","response","","html-keyboard-response","48","140371","0.0-1.0-59.0-0.0","0","0","54117","","987","","","68","6","","","1","6","training","adjacent","DE","4","5","O.jpg","Q.jpg","0","1","0","",""
"","feedback","","html-keyboard-response","49","141375","0.0-1.0-60.0-0.0","0","0","54117","","null","","","null","6","","","","","","","","","","","","","","","",""
"","time_out","","html-keyboard-response","50","143378","0.0-1.0-62.0-0.0","0","0","54117","","null","","","null","6","","","","","","","","","","","","","","","",""
"","ITI","","html-keyboard-response","51","144383","0.0-1.0-63.0","0","0","54117","","null","","","null","6","","","","","","","","","","","","","","","NaN",""
"","S1","","html-keyboard-response","52","144537","0.0-1.0-65.0","0","0","54117","","null","","","null","7","","","","","","","","","","","","","","","",""
"","ISI","","html-keyboard-response","53","146540","0.0-1.0-66.0","0","0","54117","","null","","","null","7","NaN","","","","","","","","","","","","","","",""
"","S2","","html-keyboard-response","54","146694","0.0-1.0-67.0","0","0","54117","","null","","","null","7","","NaN","","","","","","","","","","","","","",""
"","response","","html-keyboard-response","55","147193","0.0-1.0-68.0-0.0","0","0","54117","","495","","","75","7","","","1","7","training","adjacent","BA","2","1","P.jpg","M.jpg","1","0","0","",""
"","feedback","","html-keyboard-response","56","148196","0.0-1.0-69.0-0.0","0","0","54117","","null","","","null","7","","","","","","","","","","","","","","","",""
"","time_out","","html-keyboard-response","57","150201","0.0-1.0-71.0-0.0","0","0","54117","","null","","","null","7","","","","","","","","","","","","","","","",""
"","ITI","","html-keyboard-response","58","151205","0.0-1.0-72.0","0","0","54117","","null","","","null","7","","","","","","","","","","","","","","","NaN",""
"","S1","","html-keyboard-response","59","151359","0.0-1.0-74.0","0","0","54117","","null","","","null","8","","","","","","","","","","","","","","","",""
"","ISI","","html-keyboard-response","60","153363","0.0-1.0-75.0","0","0","54117","","null","","","null","8","NaN","","","","","","","","","","","","","","",""
"","S2","","html-keyboard-response","61","153517","0.0-1.0-76.0","0","0","54117","","null","","","null","8","","NaN","","","","","","","","","","","","","",""
"","response","","html-keyboard-response","62","153976","0.0-1.0-77.0-0.0","0","0","54117","","455","","","75","8","","","1","8","training","adjacent","AB","1","2","M.jpg","P.jpg","1","1","1","",""
"","feedback","","html-keyboard-response","63","154979","0.0-1.0-78.0-0.0","0","0","54117","","null","","","null","8","","","","","","","","","","","","","","","",""
"","ITI","","html-keyboard-response","64","155983","0.0-1.0-81.0","0","0","54117","","null","","","null","8","","","","","","","","","","","","","","","NaN",""
"","S1","","html-keyboard-response","65","156137","0.0-1.0-83.0","0","0","54117","","null","","","null","9","","","","","","","","","","","","","","","",""
"","ISI","","html-keyboard-response","66","158141","0.0-1.0-84.0","0","0","54117","","null","","","null","9","NaN","","","","","","","","","","","","","","",""
"","S2","","html-keyboard-response","67","158295","0.0-1.0-85.0","0","0","54117","","null","","","null","9","","NaN","","","","","","","","","","","","","",""
"","response","","html-keyboard-response","68","158702","0.0-1.0-86.0-0.0","0","0","54117","","404","","","68","9","","","1","9","training","adjacent","FE","6","5","L.jpg","Q.jpg","0","0","1","",""
"","feedback","","html-keyboard-response","69","159706","0.0-1.0-87.0-0.0","0","0","54117","","null","","","null","9","","","","","","","","","","","","","","","",""
"","ITI","","html-keyboard-response","70","160710","0.0-1.0-90.0","0","0","54117","","null","","","null","9","","","","","","","","","","","","","","","NaN",""
"","S1","","html-keyboard-response","71","160864","0.0-1.0-92.0","0","0","54117","","null","","","null","10","","","","","","","","","","","","","","","",""
"","ISI","","html-keyboard-response","72","162868","0.0-1.0-93.0","0","0","54117","","null","","","null","10","NaN","","","","","","","","","","","","","","",""
"","S2","","html-keyboard-response","73","163022","0.0-1.0-94.0","0","0","54117","","null","","","null","10","","NaN","","","","","","","","","","","","","",""
"","response","","html-keyboard-response","74","163367","0.0-1.0-95.0-0.0","0","0","54117","","342","","","75","10","","","1","10","training","adjacent","BA","2","1","P.jpg","M.jpg","1","0","0","",""
"","feedback","","html-keyboard-response","75","164372","0.0-1.0-96.0-0.0","0","0","54117","","null","","","null","10","","","","","","","","","","","","","","","",""
"","time_out","","html-keyboard-response","76","166377","0.0-1.0-98.0-0.0","0","0","54117","","null","","","null","10","","","","","","","","","","","","","","","",""
"","ITI","","html-keyboard-response","77","167380","0.0-1.0-99.0","0","0","54117","","null","","","null","10","","","","","","","","","","","","","","","NaN",""
"","S1","","html-keyboard-response","78","167534","0.0-1.0-101.0","0","0","54117","","null","","","null","11","","","","","","","","","","","","","","","",""
"","ISI","","html-keyboard-response","79","169537","0.0-1.0-102.0","0","0","54117","","null","","","null","11","NaN","","","","","","","","","","","","","","",""
"","S2","","html-keyboard-response","80","169691","0.0-1.0-103.0","0","0","54117","","null","","","null","11","","NaN","","","","","","","","","","","","","",""
"","response","","html-keyboard-response","81","170531","0.0-1.0-104.0-0.0","0","0","54117","","837","","","68","11","","","1","11","training","adjacent","BA","2","1","P.jpg","M.jpg","0","0","1","",""
"","feedback","","html-keyboard-response","82","171536","0.0-1.0-105.0-0.0","0","0","54117","","null","","","null","11","","","","","","","","","","","","","","","",""
"","ITI","","html-keyboard-response","83","172540","0.0-1.0-108.0","0","0","54117","","null","","","null","11","","","","","","","","","","","","","","","NaN",""
"","S1","","html-keyboard-response","84","172707","0.0-1.0-110.0","0","0","54117","","null","","","null","12","","","","","","","","","","","","","","","",""
"","ISI","","html-keyboard-response","85","174711","0.0-1.0-111.0","0","0","54117","","null","","","null","12","NaN","","","","","","","","","","","","","","",""
"","S2","","html-keyboard-response","86","174865","0.0-1.0-112.0","0","0","54117","","null","","","null","12","","NaN","","","","","","","","","","","","","",""
"","response","","html-keyboard-response","87","175532","0.0-1.0-113.0-0.0","0","0","54117","","663","","","75","12","","","1","12","training","adjacent","AB","1","2","M.jpg","P.jpg","1","1","1","",""
"","feedback","","html-keyboard-response","88","176536","0.0-1.0-114.0-0.0","0","0","54117","","null","","","null","12","","","","","","","","","","","","","","","",""
"","ITI","","html-keyboard-response","89","177541","0.0-1.0-117.0","0","0","54117","","null","","","null","12","","","","","","","","","","","","","","","NaN",""
"","S1","","html-keyboard-response","90","177695","0.0-1.0-119.0","0","0","54117","","null","","","null","13","","","","","","","","","","","","","","","",""
"","ISI","","html-keyboard-response","91","179700","0.0-1.0-120.0","0","0","54117","","null","","","null","13","NaN","","","","","","","","","","","","","","",""
"","S2","","html-keyboard-response","92","179854","0.0-1.0-121.0","0","0","54117","","null","","","null","13","","NaN","","","","","","","","","","","","","",""
"","response","","html-keyboard-response","93","180477","0.0-1.0-122.0-0.0","0","0","54117","","620","","","68","13","","","1","13","training","adjacent","BC","2","3","P.jpg","N.jpg","0","1","0","",""
"","feedback","","html-keyboard-response","94","181482","0.0-1.0-123.0-0.0","0","0","54117","","null","","","null","13","","","","","","","","","","","","","","","",""
"","time_out","","html-keyboard-response","95","183486","0.0-1.0-125.0-0.0","0","0","54117","","null","","","null","13","","","","","","","","","","","","","","","",""
"","ITI","","html-keyboard-response","96","184489","0.0-1.0-126.0","0","0","54117","","null","","","null","13","","","","","","","","","","","","","","","NaN",""
"","S1","","html-keyboard-response","97","184643","0.0-1.0-128.0","0","0","54117","","null","","","null","14","","","","","","","","","","","","","","","",""
"","ISI","","html-keyboard-response","98","186647","0.0-1.0-129.0","0","0","54117","","null","","","null","14","NaN","","","","","","","","","","","","","","",""
"","S2","","html-keyboard-response","99","186801","0.0-1.0-130.0","0","0","54117","","null","","","null","14","","NaN","","","","","","","","","","","","","",""
"","response","","html-keyboard-response","100","187303","0.0-1.0-131.0-0.0","0","0","54117","","499","","","75","14","","","1","14","training","adjacent","FE","6","5","L.jpg","Q.jpg","1","0","0","",""
"","feedback","","html-keyboard-response","101","188308","0.0-1.0-132.0-0.0","0","0","54117","","null","","","null","14","","","","","","","","","","","","","","","",""
"","time_out","","html-keyboard-response","102","190311","0.0-1.0-134.0-0.0","0","0","54117","","null","","","null","14","","","","","","","","","","","","","","","",""
"","ITI","","html-keyboard-response","103","191316","0.0-1.0-135.0","0","0","54117","","null","","","null","14","","","","","","","","","","","","","","","NaN",""
"","S1","","html-keyboard-response","104","191469","0.0-1.0-137.0","0","0","54117","","null","","","null","15","","","","","","","","","","","","","","","",""
"","ISI","","html-keyboard-response","105","193472","0.0-1.0-138.0","0","0","54117","","null","","","null","15","NaN","","","","","","","","","","","","","","",""
"","S2","","html-keyboard-response","106","193627","0.0-1.0-139.0","0","0","54117","","null","","","null","15","","NaN","","","","","","","","","","","","","",""
"","response","","html-keyboard-response","107","194272","0.0-1.0-140.0-0.0","0","0","54117","","642","","","75","15","","","1","15","training","adjacent","GF","7","6","R.jpg","L.jpg","1","0","0","",""
"","feedback","","html-keyboard-response","108","195276","0.0-1.0-141.0-0.0","0","0","54117","","null","","","null","15","","","","","","","","","","","","","","","",""
"","time_out","","html-keyboard-response","109","197280","0.0-1.0-143.0-0.0","0","0","54117","","null","","","null","15","","","","","","","","","","","","","","","",""
"","ITI","","html-keyboard-response","110","198284","0.0-1.0-144.0","0","0","54117","","null","","","null","15","","","","","","","","","","","","","","","NaN",""
"","S1","","html-keyboard-response","111","198438","0.0-1.0-146.0","0","0","54117","","null","","","null","16","","","","","","","","","","","","","","","",""
"","ISI","","html-keyboard-response","112","200442","0.0-1.0-147.0","0","0","54117","","null","","","null","16","NaN","","","","","","","","","","","","","","",""
"","S2","","html-keyboard-response","113","200597","0.0-1.0-148.0","0","0","54117","","null","","","null","16","","NaN","","","","","","","","","","","","","",""
"","response","","html-keyboard-response","114","201242","0.0-1.0-149.0-0.0","0","0","54117","","642","","","75","16","","","1","16","training","adjacent","AB","1","2","M.jpg","P.jpg","1","1","1","",""
"","feedback","","html-keyboard-response","115","202246","0.0-1.0-150.0-0.0","0","0","54117","","null","","","null","16","","","","","","","","","","","","","","","",""
"","ITI","","html-keyboard-response","116","203250","0.0-1.0-153.0","0","0","54117","","null","","","null","16","","","","","","","","","","","","","","","NaN",""
"","S1","","html-keyboard-response","117","203404","0.0-1.0-155.0","0","0","54117","","null","","","null","17","","","","","","","","","","","","","","","",""
"","ISI","","html-keyboard-response","118","205407","0.0-1.0-156.0","0","0","54117","","null","","","null","17","NaN","","","","","","","","","","","","","","",""
"","S2","","html-keyboard-response","119","205562","0.0-1.0-157.0","0","0","54117","","null","","","null","17","","NaN","","","","","","","","","","","","","",""
"","response","","html-keyboard-response","120","206205","0.0-1.0-158.0-0.0","0","0","54117","","640","","","68","17","","","1","17","training","adjacent","EF","5","6","Q.jpg","L.jpg","0","1","0","",""
"","feedback","","html-keyboard-response","121","207209","0.0-1.0-159.0-0.0","0","0","54117","","null","","","null","17","","","","","","","","","","","","","","","",""
"","time_out","","html-keyboard-response","122","209213","0.0-1.0-161.0-0.0","0","0","54117","","null","","","null","17","","","","","","","","","","","","","","","",""
"","ITI","","html-keyboard-response","123","210217","0.0-1.0-162.0","0","0","54117","","null","","","null","17","","","","","","","","","","","","","","","NaN",""
"","S1","","html-keyboard-response","124","210371","0.0-1.0-164.0","0","0","54117","","null","","","null","18","","","","","","","","","","","","","","","",""
"","ISI","","html-keyboard-response","125","212374","0.0-1.0-165.0","0","0","54117","","null","","","null","18","NaN","","","","","","","","","","","","","","",""
"","S2","","html-keyboard-response","126","212528","0.0-1.0-166.0","0","0","54117","","null","","","null","18","","NaN","","","","","","","","","","","","","",""
"","response","","html-keyboard-response","127","213132","0.0-1.0-167.0-0.0","0","0","54117","","601","","","75","18","","","1","18","training","adjacent","CD","3","4","N.jpg","O.jpg","1","1","1","",""
"","feedback","","html-keyboard-response","128","214136","0.0-1.0-168.0-0.0","0","0","54117","","null","","","null","18","","","","","","","","","","","","","","","",""
"","ITI","","html-keyboard-response","129","215139","0.0-1.0-171.0","0","0","54117","","null","","","null","18","","","","","","","","","","","","","","","NaN",""
"","S1","","html-keyboard-response","130","215292","0.0-1.0-173.0","0","0","54117","","null","","","null","19","","","","","","","","","","","","","","","",""
"","ISI","","html-keyboard-response","131","217296","0.0-1.0-174.0","0","0","54117","","null","","","null","19","NaN","","","","","","","","","","","","","","",""
"","S2","","html-keyboard-response","132","217451","0.0-1.0-175.0","0","0","54117","","null","","","null","19","","NaN","","","","","","","","","","","","","",""
"","response","","html-keyboard-response","133","218046","0.0-1.0-176.0-0.0","0","0","54117","","591","","","75","19","","","1","19","training","adjacent","EF","5","6","Q.jpg","L.jpg","1","1","1","",""
"","feedback","","html-keyboard-response","134","219051","0.0-1.0-177.0-0.0","0","0","54117","","null","","","null","19","","","","","","","","","","","","","","","",""
"","ITI","","html-keyboard-response","135","220055","0.0-1.0-180.0","0","0","54117","","null","","","null","19","","","","","","","","","","","","","","","NaN",""
"","S1","","html-keyboard-response","136","220209","0.0-1.0-182.0","0","0","54117","","null","","","null","20","","","","","","","","","","","","","","","",""
"","ISI","","html-keyboard-response","137","222213","0.0-1.0-183.0","0","0","54117","","null","","","null","20","NaN","","","","","","","","","","","","","","",""
"","S2","","html-keyboard-response","138","222368","0.0-1.0-184.0","0","0","54117","","null","","","null","20","","NaN","","","","","","","","","","","","","",""
"","response","","html-keyboard-response","139","222855","0.0-1.0-185.0-0.0","0","0","54117","","484","","","75","20","","","1","20","training","adjacent","EF","5","6","Q.jpg","L.jpg","1","1","1","",""
"","feedback","","html-keyboard-response","140","223860","0.0-1.0-186.0-0.0","0","0","54117","","null","","","null","20","","","","","","","","","","","","","","","",""
"","ITI","","html-keyboard-response","141","224865","0.0-1.0-189.0","0","0","54117","","null","","","null","20","","","","","","","","","","","","","","","NaN",""
"","S1","","html-keyboard-response","142","225018","0.0-1.0-191.0","0","0","54117","","null","","","null","21","","","","","","","","","","","","","","","",""
"","ISI","","html-keyboard-response","143","227023","0.0-1.0-192.0","0","0","54117","","null","","","null","21","NaN","","","","","","","","","","","","","","",""
"","S2","","html-keyboard-response","144","227177","0.0-1.0-193.0","0","0","54117","","null","","","null","21","","NaN","","","","","","","","","","","","","",""
"","response","","html-keyboard-response","145","227633","0.0-1.0-194.0-0.0","0","0","54117","","453","","","75","21","","","1","21","training","adjacent","ED","5","4","Q.jpg","O.jpg","1","0","0","",""
"","feedback","","html-keyboard-response","146","228638","0.0-1.0-195.0-0.0","0","0","54117","","null","","","null","21","","","","","","","","","","","","","","","",""
"","time_out","","html-keyboard-response","147","230641","0.0-1.0-197.0-0.0","0","0","54117","","null","","","null","21","","","","","","","","","","","","","","","",""
"","ITI","","html-keyboard-response","148","231654","0.0-1.0-198.0","0","0","54117","","null","","","null","21","","","","","","","","","","","","","","","NaN",""
"","S1","","html-keyboard-response","149","231808","0.0-1.0-200.0","0","0","54117","","null","","","null","22","","","","","","","","","","","","","","","",""
"","ISI","","html-keyboard-response","150","233812","0.0-1.0-201.0","0","0","54117","","null","","","null","22","NaN","","","","","","","","","","","","","","",""
"","S2","","html-keyboard-response","151","233966","0.0-1.0-202.0","0","0","54117","","null","","","null","22","","NaN","","","","","","","","","","","","","",""
"","response","","html-keyboard-response","152","234409","0.0-1.0-203.0-0.0","0","0","54117","","440","","","75","22","","","1","22","training","adjacent","DC","4","3","O.jpg","N.jpg","1","0","0","",""
"","feedback","","html-keyboard-response","153","235414","0.0-1.0-204.0-0.0","0","0","54117","","null","","","null","22","","","","","","","","","","","","","","","",""
"","time_out","","html-keyboard-response","154","237418","0.0-1.0-206.0-0.0","0","0","54117","","null","","","null","22","","","","","","","","","","","","","","","",""
"","ITI","","html-keyboard-response","155","238422","0.0-1.0-207.0","0","0","54117","","null","","","null","22","","","","","","","","","","","","","","","NaN",""
"","S1","","html-keyboard-response","156","238578","0.0-1.0-209.0","0","0","54117","","null","","","null","23","","","","","","","","","","","","","","","",""
"","ISI","","html-keyboard-response","157","240580","0.0-1.0-210.0","0","0","54117","","null","","","null","23","NaN","","","","","","","","","","","","","","",""
"","S2","","html-keyboard-response","158","240735","0.0-1.0-211.0","0","0","54117","","null","","","null","23","","NaN","","","","","","","","","","","","","",""
"","response","","html-keyboard-response","159","241458","0.0-1.0-212.0-0.0","0","0","54117","","720","","","75","23","","","1","23","training","adjacent","GF","7","6","R.jpg","L.jpg","1","0","0","",""
"","feedback","","html-keyboard-response","160","242462","0.0-1.0-213.0-0.0","0","0","54117","","null","","","null","23","","","","","","","","","","","","","","","",""
"","time_out","","html-keyboard-response","161","244466","0.0-1.0-215.0-0.0","0","0","54117","","null","","","null","23","","","","","","","","","","","","","","","",""
"","ITI","","html-keyboard-response","162","245469","0.0-1.0-216.0","0","0","54117","","null","","","null","23","","","","","","","","","","","","","","","NaN",""
"","S1","","html-keyboard-response","163","245624","0.0-1.0-218.0","0","0","54117","","null","","","null","24","","","","","","","","","","","","","","","",""
"","ISI","","html-keyboard-response","164","247627","0.0-1.0-219.0","0","0","54117","","null","","","null","24","NaN","","","","","","","","","","","","","","",""
"","S2","","html-keyboard-response","165","247783","0.0-1.0-220.0","0","0","54117","","null","","","null","24","","NaN","","","","","","","","","","","","","",""
"","response","","html-keyboard-response","166","248643","0.0-1.0-221.0-0.0","0","0","54117","","856","","","75","24","","","1","24","training","adjacent","CB","3","2","N.jpg","P.jpg","1","0","0","",""
"","feedback","","html-keyboard-response","167","249648","0.0-1.0-222.0-0.0","0","0","54117","","null","","","null","24","","","","","","","","","","","","","","","",""
"","time_out","","html-keyboard-response","168","251652","0.0-1.0-224.0-0.0","0","0","54117","","null","","","null","24","","","","","","","","","","","","","","","",""
"","ITI","","html-keyboard-response","169","252656","0.0-1.0-225.0","0","0","54117","","null","","","null","24","","","","","","","","","","","","","","","NaN",""
"","S1","","html-keyboard-response","170","252811","0.0-1.0-227.0","0","0","54117","","null","","","null","25","","","","","","","","","","","","","","","",""
"","ISI","","html-keyboard-response","171","254815","0.0-1.0-228.0","0","0","54117","","null","","","null","25","NaN","","","","","","","","","","","","","","",""
"","S2","","html-keyboard-response","172","254968","0.0-1.0-229.0","0","0","54117","","null","","","null","25","","NaN","","","","","","","","","","","","","",""
"","response","","html-keyboard-response","173","256329","0.0-1.0-230.0-0.0","0","0","54117","","1357","","","68","25","","","1","25","training","adjacent","GF","7","6","R.jpg","L.jpg","0","0","1","",""
"","feedback","","html-keyboard-response","174","257333","0.0-1.0-231.0-0.0","0","0","54117","","null","","","null","25","","","","","","","","","","","","","","","",""
"","ITI","","html-keyboard-response","175","258337","0.0-1.0-234.0","0","0","54117","","null","","","null","25","","","","","","","","","","","","","","","NaN",""
"","S1","","html-keyboard-response","176","258492","0.0-1.0-236.0","0","0","54117","","null","","","null","26","","","","","","","","","","","","","","","",""
"","ISI","","html-keyboard-response","177","260496","0.0-1.0-237.0","0","0","54117","","null","","","null","26","NaN","","","","","","","","","","","","","","",""
"","S2","","html-keyboard-response","178","260650","0.0-1.0-238.0","0","0","54117","","null","","","null","26","","NaN","","","","","","","","","","","","","",""
"","response","","html-keyboard-response","179","261265","0.0-1.0-239.0-0.0","0","0","54117","","611","","","75","26","","","1","26","training","adjacent","DE","4","5","O.jpg","Q.jpg","1","1","1","",""
"","feedback","","html-keyboard-response","180","262269","0.0-1.0-240.0-0.0","0","0","54117","","null","","","null","26","","","","","","","","","","","","","","","",""
"","ITI","","html-keyboard-response","181","263273","0.0-1.0-243.0","0","0","54117","","null","","","null","26","","","","","","","","","","","","","","","NaN",""
"","S1","","html-keyboard-response","182","263427","0.0-1.0-245.0","0","0","54117","","null","","","null","27","","","","","","","","","","","","","","","",""
"","ISI","","html-keyboard-response","183","265431","0.0-1.0-246.0","0","0","54117","","null","","","null","27","NaN","","","","","","","","","","","","","","",""
"","S2","","html-keyboard-response","184","265586","0.0-1.0-247.0","0","0","54117","","null","","","null","27","","NaN","","","","","","","","","","","","","",""
"","response","","html-keyboard-response","185","266302","0.0-1.0-248.0-0.0","0","0","54117","","713","","","75","27","","","1","27","training","adjacent","CD","3","4","N.jpg","O.jpg","1","1","1","",""
"","feedback","","html-keyboard-response","186","267307","0.0-1.0-249.0-0.0","0","0","54117","","null","","","null","27","","","","","","","","","","","","","","","",""
"","ITI","","html-keyboard-response","187","268310","0.0-1.0-252.0","0","0","54117","","null","","","null","27","","","","","","","","","","","","","","","NaN",""
"","S1","","html-keyboard-response","188","268464","0.0-1.0-254.0","0","0","54117","","null","","","null","28","","","","","","","","","","","","","","","",""
"","ISI","","html-keyboard-response","189","270468","0.0-1.0-255.0","0","0","54117","","null","","","null","28","NaN","","","","","","","","","","","","","","",""
"","S2","","html-keyboard-response","190","270622","0.0-1.0-256.0","0","0","54117","","null","","","null","28","","NaN","","","","","","","","","","","","","",""
"","response","","html-keyboard-response","191","271167","0.0-1.0-257.0-0.0","0","0","54117","","542","","","68","28","","","1","28","training","adjacent","ED","5","4","Q.jpg","O.jpg","0","0","1","",""
"","feedback","","html-keyboard-response","192","272171","0.0-1.0-258.0-0.0","0","0","54117","","null","","","null","28","","","","","","","","","","","","","","","",""
"","ITI","","html-keyboard-response","193","273175","0.0-1.0-261.0","0","0","54117","","null","","","null","28","","","","","","","","","","","","","","","NaN",""
"","S1","","html-keyboard-response","194","273329","0.0-1.0-263.0","0","0","54117","","null","","","null","29","","","","","","","","","","","","","","","",""
"","ISI","","html-keyboard-response","195","275333","0.0-1.0-264.0","0","0","54117","","null","","","null","29","NaN","","","","","","","","","","","","","","",""
"","S2","","html-keyboard-response","196","275487","0.0-1.0-265.0","0","0","54117","","null","","","null","29","","NaN","","","","","","","","","","","","","",""
"","response","","html-keyboard-response","197","276289","0.0-1.0-266.0-0.0","0","0","54117","","798","","","68","29","","","1","29","training","adjacent","CB","3","2","N.jpg","P.jpg","0","0","1","",""
"","feedback","","html-keyboard-response","198","277293","0.0-1.0-267.0-0.0","0","0","54117","","null","","","null","29","","","","","","","","","","","","","","","",""
"","ITI","","html-keyboard-response","199","278297","0.0-1.0-270.0","0","0","54117","","null","","","null","29","","","","","","","","","","","","","","","NaN",""
"","S1","","html-keyboard-response","200","278451","0.0-1.0-272.0","0","0","54117","","null","","","null","30","","","","","","","","","","","","","","","",""
"","ISI","","html-keyboard-response","201","280454","0.0-1.0-273.0","0","0","54117","","null","","","null","30","NaN","","","","","","","","","","","","","","",""
"","S2","","html-keyboard-response","202","280608","0.0-1.0-274.0","0","0","54117","","null","","","null","30","","NaN","","","","","","","","","","","","","",""
"","response","","html-keyboard-response","203","281240","0.0-1.0-275.0-0.0","0","0","54117","","628","","","75","30","","","1","30","training","adjacent","FE","6","5","L.jpg","Q.jpg","1","0","0","",""
"","feedback","","html-keyboard-response","204","282245","0.0-1.0-276.0-0.0","0","0","54117","","null","","","null","30","","","","","","","","","","","","","","","",""
"","time_out","","html-keyboard-response","205","284249","0.0-1.0-278.0-0.0","0","0","54117","","null","","","null","30","","","","","","","","","","","","","","","",""
"","ITI","","html-keyboard-response","206","285254","0.0-1.0-279.0","0","0","54117","","null","","","null","30","","","","","","","","","","","","","","","NaN",""
"","S1","","html-keyboard-response","207","285408","0.0-1.0-281.0","0","0","54117","","null","","","null","31","","","","","","","","","","","","","","","",""
"","ISI","","html-keyboard-response","208","287411","0.0-1.0-282.0","0","0","54117","","null","","","null","31","NaN","","","","","","","","","","","","","","",""
"","S2","","html-keyboard-response","209","287565","0.0-1.0-283.0","0","0","54117","","null","","","null","31","","NaN","","","","","","","","","","","","","",""
"","response","","html-keyboard-response","210","288113","0.0-1.0-284.0-0.0","0","0","54117","","546","","","68","31","","","1","31","training","adjacent","BC","2","3","P.jpg","N.jpg","0","1","0","",""
"","feedback","","html-keyboard-response","211","289118","0.0-1.0-285.0-0.0","0","0","54117","","null","","","null","31","","","","","","","","","","","","","","","",""
"","time_out","","html-keyboard-response","212","291122","0.0-1.0-287.0-0.0","0","0","54117","","null","","","null","31","","","","","","","","","","","","","","","",""
"","ITI","","html-keyboard-response","213","292126","0.0-1.0-288.0","0","0","54117","","null","","","null","31","","","","","","","","","","","","","","","NaN",""
"","S1","","html-keyboard-response","214","292281","0.0-1.0-290.0","0","0","54117","","null","","","null","32","","","","","","","","","","","","","","","",""
"","ISI","","html-keyboard-response","215","294285","0.0-1.0-291.0","0","0","54117","","null","","","null","32","NaN","","","","","","","","","","","","","","",""
"","S2","","html-keyboard-response","216","294439","0.0-1.0-292.0","0","0","54117","","null","","","null","32","","NaN","","","","","","","","","","","","","",""
"","response","","html-keyboard-response","217","294749","0.0-1.0-293.0-0.0","0","0","54117","","307","","","75","32","","","1","32","training","adjacent","DC","4","3","O.jpg","N.jpg","1","0","0","",""
"","feedback","","html-keyboard-response","218","295753","0.0-1.0-294.0-0.0","0","0","54117","","null","","","null","32","","","","","","","","","","","","","","","",""
"","time_out","","html-keyboard-response","219","297758","0.0-1.0-296.0-0.0","0","0","54117","","null","","","null","32","","","","","","","","","","","","","","","",""
"","ITI","","html-keyboard-response","220","298762","0.0-1.0-297.0","0","0","54117","","null","","","null","32","","","","","","","","","","","","","","","NaN",""
"","S1","","html-keyboard-response","221","298915","0.0-1.0-299.0","0","0","54117","","null","","","null","33","","","","","","","","","","","","","","","",""
"","ISI","","html-keyboard-response","222","300919","0.0-1.0-300.0","0","0","54117","","null","","","null","33","NaN","","","","","","","","","","","","","","",""
"","S2","","html-keyboard-response","223","301073","0.0-1.0-301.0","0","0","54117","","null","","","null","33","","NaN","","","","","","","","","","","","","",""
"","response","","html-keyboard-response","224","301623","0.0-1.0-302.0-0.0","0","0","54117","","547","","","75","33","","","1","33","training","adjacent","GF","7","6","R.jpg","L.jpg","1","0","0","",""
"","feedback","","html-keyboard-response","225","302629","0.0-1.0-303.0-0.0","0","0","54117","","null","","","null","33","","","","","","","","","","","","","","","",""
"","time_out","","html-keyboard-response","226","304632","0.0-1.0-305.0-0.0","0","0","54117","","null","","","null","33","","","","","","","","","","","","","","","",""
"","ITI","","html-keyboard-response","227","305636","0.0-1.0-306.0","0","0","54117","","null","","","null","33","","","","","","","","","","","","","","","NaN",""
"","S1","","html-keyboard-response","228","305790","0.0-1.0-308.0","0","0","54117","","null","","","null","34","","","","","","","","","","","","","","","",""
"","ISI","","html-keyboard-response","229","307794","0.0-1.0-309.0","0","0","54117","","null","","","null","34","NaN","","","","","","","","","","","","","","",""
"","S2","","html-keyboard-response","230","307948","0.0-1.0-310.0","0","0","54117","","null","","","null","34","","NaN","","","","","","","","","","","","","",""
"","response","","html-keyboard-response","231","308426","0.0-1.0-311.0-0.0","0","0","54117","","474","","","68","34","","","1","34","training","adjacent","CD","3","4","N.jpg","O.jpg","0","1","0","",""
"","feedback","","html-keyboard-response","232","309430","0.0-1.0-312.0-0.0","0","0","54117","","null","","","null","34","","","","","","","","","","","","","","","",""
"","time_out","","html-keyboard-response","233","311434","0.0-1.0-314.0-0.0","0","0","54117","","null","","","null","34","","","","","","","","","","","","","","","",""
"","ITI","","html-keyboard-response","234","312437","0.0-1.0-315.0","0","0","54117","","null","","","null","34","","","","","","","","","","","","","","","NaN",""
"","S1","","html-keyboard-response","235","312592","0.0-1.0-317.0","0","0","54117","","null","","","null","35","","","","","","","","","","","","","","","",""
"","ISI","","html-keyboard-response","236","314596","0.0-1.0-318.0","0","0","54117","","null","","","null","35","NaN","","","","","","","","","","","","","","",""
"","S2","","html-keyboard-response","237","314750","0.0-1.0-319.0","0","0","54117","","null","","","null","35","","NaN","","","","","","","","","","","","","",""
"","response","","html-keyboard-response","238","315536","0.0-1.0-320.0-0.0","0","0","54117","","783","","","68","35","","","1","35","training","adjacent","CD","3","4","N.jpg","O.jpg","0","1","0","",""
"","feedback","","html-keyboard-response","239","316540","0.0-1.0-321.0-0.0","0","0","54117","","null","","","null","35","","","","","","","","","","","","","","","",""
"","time_out","","html-keyboard-response","240","318545","0.0-1.0-323.0-0.0","0","0","54117","","null","","","null","35","","","","","","","","","","","","","","","",""
"","ITI","","html-keyboard-response","241","319548","0.0-1.0-324.0","0","0","54117","","null","","","null","35","","","","","","","","","","","","","","","NaN",""
"","S1","","html-keyboard-response","242","319702","0.0-1.0-326.0","0","0","54117","","null","","","null","36","","","","","","","","","","","","","","","",""
"","ISI","","html-keyboard-response","243","321705","0.0-1.0-327.0","0","0","54117","","null","","","null","36","NaN","","","","","","","","","","","","","","",""
"","S2","","html-keyboard-response","244","321860","0.0-1.0-328.0","0","0","54117","","null","","","null","36","","NaN","","","","","","","","","","","","","",""
"","response","","html-keyboard-response","245","323000","0.0-1.0-329.0-0.0","0","0","54117","","1137","","","68","36","","","1","36","training","adjacent","EF","5","6","Q.jpg","L.jpg","0","1","0","",""
"","feedback","","html-keyboard-response","246","324005","0.0-1.0-330.0-0.0","0","0","54117","","null","","","null","36","","","","","","","","","","","","","","","",""
"","time_out","","html-keyboard-response","247","326008","0.0-1.0-332.0-0.0","0","0","54117","","null","","","null","36","","","","","","","","","","","","","","","",""
"","ITI","","html-keyboard-response","248","327012","0.0-1.0-333.0","0","0","54117","","null","","","null","36","","","","","","","","","","","","","","","NaN",""
"","S1","","html-keyboard-response","249","327166","0.0-1.0-335.0","0","0","54117","","null","","","null","37","","","","","","","","","","","","","","","",""
"","ISI","","html-keyboard-response","250","329171","0.0-1.0-336.0","0","0","54117","","null","","","null","37","NaN","","","","","","","","","","","","","","",""
"","S2","","html-keyboard-response","251","329325","0.0-1.0-337.0","0","0","54117","","null","","","null","37","","NaN","","","","","","","","","","","","","",""
"","response","","html-keyboard-response","252","329729","0.0-1.0-338.0-0.0","0","0","54117","","401","","","68","37","","","1","37","training","adjacent","FG","6","7","L.jpg","R.jpg","0","1","0","",""
"","feedback","","html-keyboard-response","253","330733","0.0-1.0-339.0-0.0","0","0","54117","","null","","","null","37","","","","","","","","","","","","","","","",""
"","time_out","","html-keyboard-response","254","332738","0.0-1.0-341.0-0.0","0","0","54117","","null","","","null","37","","","","","","","","","","","","","","","",""
"","ITI","","html-keyboard-response","255","333749","0.0-1.0-342.0","0","0","54117","","null","","","null","37","","","","","","","","","","","","","","","NaN",""
"","S1","","html-keyboard-response","256","333903","0.0-1.0-344.0","0","0","54117","","null","","","null","38","","","","","","","","","","","","","","","",""
"","ISI","","html-keyboard-response","257","335906","0.0-1.0-345.0","0","0","54117","","null","","","null","38","NaN","","","","","","","","","","","","","","",""
"","S2","","html-keyboard-response","258","336060","0.0-1.0-346.0","0","0","54117","","null","","","null","38","","NaN","","","","","","","","","","","","","",""
"","response","","html-keyboard-response","259","336354","0.0-1.0-347.0-0.0","0","0","54117","","291","","","75","38","","","1","38","training","adjacent","FG","6","7","L.jpg","R.jpg","1","1","1","",""
"","feedback","","html-keyboard-response","260","337359","0.0-1.0-348.0-0.0","0","0","54117","","null","","","null","38","","","","","","","","","","","","","","","",""
"","ITI","","html-keyboard-response","261","338363","0.0-1.0-351.0","0","0","54117","","null","","","null","38","","","","","","","","","","","","","","","NaN",""
"","S1","","html-keyboard-response","262","338518","0.0-1.0-353.0","0","0","54117","","null","","","null","39","","","","","","","","","","","","","","","",""
"","ISI","","html-keyboard-response","263","340521","0.0-1.0-354.0","0","0","54117","","null","","","null","39","NaN","","","","","","","","","","","","","","",""
"","S2","","html-keyboard-response","264","340676","0.0-1.0-355.0","0","0","54117","","null","","","null","39","","NaN","","","","","","","","","","","","","",""
"","response","","html-keyboard-response","265","341087","0.0-1.0-356.0-0.0","0","0","54117","","408","","","75","39","","","1","39","training","adjacent","BC","2","3","P.jpg","N.jpg","1","1","1","",""
"","feedback","","html-keyboard-response","266","342092","0.0-1.0-357.0-0.0","0","0","54117","","null","","","null","39","","","","","","","","","","","","","","","",""
"","ITI","","html-keyboard-response","267","343096","0.0-1.0-360.0","0","0","54117","","null","","","null","39","","","","","","","","","","","","","","","NaN",""
"","S1","","html-keyboard-response","268","343251","0.0-1.0-362.0","0","0","54117","","null","","","null","40","","","","","","","","","","","","","","","",""
"","ISI","","html-keyboard-response","269","345254","0.0-1.0-363.0","0","0","54117","","null","","","null","40","NaN","","","","","","","","","","","","","","",""
"","S2","","html-keyboard-response","270","345409","0.0-1.0-364.0","0","0","54117","","null","","","null","40","","NaN","","","","","","","","","","","","","",""
"","response","","html-keyboard-response","271","345699","0.0-1.0-365.0-0.0","0","0","54117","","287","","","68","40","","","1","40","training","adjacent","DC","4","3","O.jpg","N.jpg","0","0","1","",""
"","feedback","","html-keyboard-response","272","346703","0.0-1.0-366.0-0.0","0","0","54117","","null","","","null","40","","","","","","","","","","","","","","","",""
"","ITI","","html-keyboard-response","273","347711","0.0-1.0-369.0","0","0","54117","","null","","","null","40","","","","","","","","","","","","","","","NaN",""
"","S1","","html-keyboard-response","274","347865","0.0-1.0-371.0","0","0","54117","","null","","","null","41","","","","","","","","","","","","","","","",""
"","ISI","","html-keyboard-response","275","349873","0.0-1.0-372.0","0","0","54117","","null","","","null","41","NaN","","","","","","","","","","","","","","",""
"","S2","","html-keyboard-response","276","350028","0.0-1.0-373.0","0","0","54117","","null","","","null","41","","NaN","","","","","","","","","","","","","",""
"","response","","html-keyboard-response","277","350343","0.0-1.0-374.0-0.0","0","0","54117","","312","","","75","41","","","1","41","training","adjacent","FG","6","7","L.jpg","R.jpg","1","1","1","",""
"","feedback","","html-keyboard-response","278","351347","0.0-1.0-375.0-0.0","0","0","54117","","null","","","null","41","","","","","","","","","","","","","","","",""
"","ITI","","html-keyboard-response","279","352351","0.0-1.0-378.0","0","0","54117","","null","","","null","41","","","","","","","","","","","","","","","NaN",""
"","S1","","html-keyboard-response","280","352506","0.0-1.0-380.0","0","0","54117","","null","","","null","42","","","","","","","","","","","","","","","",""
"","ISI","","html-keyboard-response","281","354509","0.0-1.0-381.0","0","0","54117","","null","","","null","42","NaN","","","","","","","","","","","","","","",""
"","S2","","html-keyboard-response","282","354670","0.0-1.0-382.0","0","0","54117","","null","","","null","42","","NaN","","","","","","","","","","","","","",""
"","response","","html-keyboard-response","283","355554","0.0-1.0-383.0-0.0","0","0","54117","","881","","","68","42","","","1","42","training","adjacent","CB","3","2","N.jpg","P.jpg","0","0","1","",""
"","feedback","","html-keyboard-response","284","356559","0.0-1.0-384.0-0.0","0","0","54117","","null","","","null","42","","","","","","","","","","","","","","","",""
"","ITI","","html-keyboard-response","285","357563","0.0-1.0-387.0","0","0","54117","","null","","","null","42","","","","","","","","","","","","","","","NaN",""
"","S1","","html-keyboard-response","286","357717","0.0-1.0-389.0","0","0","54117","","null","","","null","43","","","","","","","","","","","","","","","",""
"","ISI","","html-keyboard-response","287","359720","0.0-1.0-390.0","0","0","54117","","null","","","null","43","NaN","","","","","","","","","","","","","","",""
"","S2","","html-keyboard-response","288","359875","0.0-1.0-391.0","0","0","54117","","null","","","null","43","","NaN","","","","","","","","","","","","","",""
"","response","","html-keyboard-response","289","360247","0.0-1.0-392.0-0.0","0","0","54117","","369","","","68","43","","","1","43","training","adjacent","DC","4","3","O.jpg","N.jpg","0","0","1","",""
"","feedback","","html-keyboard-response","290","361251","0.0-1.0-393.0-0.0","0","0","54117","","null","","","null","43","","","","","","","","","","","","","","","",""
"","ITI","","html-keyboard-response","291","362255","0.0-1.0-396.0","0","0","54117","","null","","","null","43","","","","","","","","","","","","","","","NaN",""
"","S1","","html-keyboard-response","292","362409","0.0-1.0-398.0","0","0","54117","","null","","","null","44","","","","","","","","","","","","","","","",""
"","ISI","","html-keyboard-response","293","364413","0.0-1.0-399.0","0","0","54117","","null","","","null","44","NaN","","","","","","","","","","","","","","",""
"","S2","","html-keyboard-response","294","364567","0.0-1.0-400.0","0","0","54117","","null","","","null","44","","NaN","","","","","","","","","","","","","",""
"","response","","html-keyboard-response","295","364931","0.0-1.0-401.0-0.0","0","0","54117","","361","","","75","44","","","1","44","training","adjacent","FE","6","5","L.jpg","Q.jpg","1","0","0","",""
"","feedback","","html-keyboard-response","296","365936","0.0-1.0-402.0-0.0","0","0","54117","","null","","","null","44","","","","","","","","","","","","","","","",""
"","time_out","","html-keyboard-response","297","367940","0.0-1.0-404.0-0.0","0","0","54117","","null","","","null","44","","","","","","","","","","","","","","","",""
"","ITI","","html-keyboard-response","298","368944","0.0-1.0-405.0","0","0","54117","","null","","","null","44","","","","","","","","","","","","","","","NaN",""
"","S1","","html-keyboard-response","299","369097","0.0-1.0-407.0","0","0","54117","","null","","","null","45","","","","","","","","","","","","","","","",""
"","ISI","","html-keyboard-response","300","371101","0.0-1.0-408.0","0","0","54117","","null","","","null","45","NaN","","","","","","","","","","","","","","",""
"","S2","","html-keyboard-response","301","371256","0.0-1.0-409.0","0","0","54117","","null","","","null","45","","NaN","","","","","","","","","","","","","",""
"","response","","html-keyboard-response","302","371663","0.0-1.0-410.0-0.0","0","0","54117","","405","","","75","45","","","1","45","training","adjacent","AB","1","2","M.jpg","P.jpg","1","1","1","",""
"","feedback","","html-keyboard-response","303","372668","0.0-1.0-411.0-0.0","0","0","54117","","null","","","null","45","","","","","","","","","","","","","","","",""
"","ITI","","html-keyboard-response","304","373683","0.0-1.0-414.0","0","0","54117","","null","","","null","45","","","","","","","","","","","","","","","NaN",""
"","S1","","html-keyboard-response","305","373837","0.0-1.0-416.0","0","0","54117","","null","","","null","46","","","","","","","","","","","","","","","",""
"","ISI","","html-keyboard-response","306","375842","0.0-1.0-417.0","0","0","54117","","null","","","null","46","NaN","","","","","","","","","","","","","","",""
"","S2","","html-keyboard-response","307","375997","0.0-1.0-418.0","0","0","54117","","null","","","null","46","","NaN","","","","","","","","","","","","","",""
"","response","","html-keyboard-response","308","376787","0.0-1.0-419.0-0.0","0","0","54117","","787","","","68","46","","","1","46","training","adjacent","ED","5","4","Q.jpg","O.jpg","0","0","1","",""
"","feedback","","html-keyboard-response","309","377792","0.0-1.0-420.0-0.0","0","0","54117","","null","","","null","46","","","","","","","","","","","","","","","",""
"","ITI","","html-keyboard-response","310","378797","0.0-1.0-423.0","0","0","54117","","null","","","null","46","","","","","","","","","","","","","","","NaN",""
"","S1","","html-keyboard-response","311","378952","0.0-1.0-425.0","0","0","54117","","null","","","null","47","","","","","","","","","","","","","","","",""
"","ISI","","html-keyboard-response","312","380965","0.0-1.0-426.0","0","0","54117","","null","","","null","47","NaN","","","","","","","","","","","","","","",""
"","S2","","html-keyboard-response","313","381119","0.0-1.0-427.0","0","0","54117","","null","","","null","47","","NaN","","","","","","","","","","","","","",""
"","response","","html-keyboard-response","314","381793","0.0-1.0-428.0-0.0","0","0","54117","","671","","","68","47","","","1","47","training","adjacent","BC","2","3","P.jpg","N.jpg","0","1","0","",""
"","feedback","","html-keyboard-response","315","382798","0.0-1.0-429.0-0.0","0","0","54117","","null","","","null","47","","","","","","","","","","","","","","","",""
"","time_out","","html-keyboard-response","316","384801","0.0-1.0-431.0-0.0","0","0","54117","","null","","","null","47","","","","","","","","","","","","","","","",""
"","ITI","","html-keyboard-response","317","385805","0.0-1.0-432.0","0","0","54117","","null","","","null","47","","","","","","","","","","","","","","","NaN",""
"","block_over","","html-keyboard-response","318","399171","0.0-1.0-433.0-0.0","0","0","54117","","13362","","","32","47","","","","","","","","","","","","","","","",""
"","S1","","html-keyboard-response","319","399326","0.0-1.0-434.0","0","0","54117","","null","","","null","48","","","","","","","","","","","","","","","",""
"","ISI","","html-keyboard-response","320","401329","0.0-1.0-435.0","0","0","54117","","null","","","null","48","NaN","","","","","","","","","","","","","","",""
"","S2","","html-keyboard-response","321","401485","0.0-1.0-436.0","0","0","54117","","null","","","null","48","","NaN","","","","","","","","","","","","","",""
"","response","","html-keyboard-response","322","401976","0.0-1.0-437.0-0.0","0","0","54117","","487","","","75","48","","","2","48","training","adjacent","ED","5","4","Q.jpg","O.jpg","1","0","0","",""
"","feedback","","html-keyboard-response","323","402980","0.0-1.0-438.0-0.0","0","0","54117","","null","","","null","48","","","","","","","","","","","","","","","",""
"","time_out","","html-keyboard-response","324","404984","0.0-1.0-440.0-0.0","0","0","54117","","null","","","null","48","","","","","","","","","","","","","","","",""
"","ITI","","html-keyboard-response","325","405988","0.0-1.0-441.0","0","0","54117","","null","","","null","48","","","","","","","","","","","","","","","NaN",""
"","S1","","html-keyboard-response","326","406143","0.0-1.0-443.0","0","0","54117","","null","","","null","49","","","","","","","","","","","","","","","",""
"","ISI","","html-keyboard-response","327","408147","0.0-1.0-444.0","0","0","54117","","null","","","null","49","NaN","","","","","","","","","","","","","","",""
"","S2","","html-keyboard-response","328","408301","0.0-1.0-445.0","0","0","54117","","null","","","null","49","","NaN","","","","","","","","","","","","","",""
"","response","","html-keyboard-response","329","409185","0.0-1.0-446.0-0.0","0","0","54117","","881","","","68","49","","","2","49","training","adjacent","BC","2","3","P.jpg","N.jpg","0","1","0","",""
"","feedback","","html-keyboard-response","330","410189","0.0-1.0-447.0-0.0","0","0","54117","","null","","","null","49","","","","","","","","","","","","","","","",""
"","time_out","","html-keyboard-response","331","412193","0.0-1.0-449.0-0.0","0","0","54117","","null","","","null","49","","","","","","","","","","","","","","","",""
"","ITI","","html-keyboard-response","332","413197","0.0-1.0-450.0","0","0","54117","","null","","","null","49","","","","","","","","","","","","","","","NaN",""
"","S1","","html-keyboard-response","333","413351","0.0-1.0-452.0","0","0","54117","","null","","","null","50","","","","","","","","","","","","","","","",""
"","ISI","","html-keyboard-response","334","415355","0.0-1.0-453.0","0","0","54117","","null","","","null","50","NaN","","","","","","","","","","","","","","",""
"","S2","","html-keyboard-response","335","415509","0.0-1.0-454.0","0","0","54117","","null","","","null","50","","NaN","","","","","","","","","","","","","",""
"","response","","html-keyboard-response","336","415976","0.0-1.0-455.0-0.0","0","0","54117","","464","","","75","50","","","2","50","training","adjacent","CD","3","4","N.jpg","O.jpg","1","1","1","",""
"","feedback","","html-keyboard-response","337","416981","0.0-1.0-456.0-0.0","0","0","54117","","null","","","null","50","","","","","","","","","","","","","","","",""
"","ITI","","html-keyboard-response","338","417986","0.0-1.0-459.0","0","0","54117","","null","","","null","50","","","","","","","","","","","","","","","NaN",""
"","S1","","html-keyboard-response","339","418139","0.0-1.0-461.0","0","0","54117","","null","","","null","51","","","","","","","","","","","","","","","",""
"","ISI","","html-keyboard-response","340","420143","0.0-1.0-462.0","0","0","54117","","null","","","null","51","NaN","","","","","","","","","","","","","","",""
"","S2","","html-keyboard-response","341","420297","0.0-1.0-463.0","0","0","54117","","null","","","null","51","","NaN","","","","","","","","","","","","","",""
"","response","","html-keyboard-response","342","422151","0.0-1.0-464.0-0.0","0","0","54117","","null","","","null","51","","","2","51","training","adjacent","FE","6","5","L.jpg","Q.jpg","NaN","0","0","",""
"","too_slow_prompt","","html-keyboard-response","343","423155","0.0-1.0-466.0-0.0","1","0","54117","","null","","","null","","","","","","","","","","","","","","","","",""
"","time_out","","html-keyboard-response","344","425159","0.0-1.0-467.0-0.0","0","0","54117","","null","","","null","51","","","","","","","","","","","","","","","",""
"","ITI","","html-keyboard-response","345","426163","0.0-1.0-468.0","0","0","54117","","null","","","null","51","","","","","","","","","","","","","","","NaN",""
"","S1","","html-keyboard-response","346","426317","0.0-1.0-470.0","0","0","54117","","null","","","null","52","","","","","","","","","","","","","","","",""
"","ISI","","html-keyboard-response","347","428321","0.0-1.0-471.0","0","0","54117","","null","","","null","52","NaN","","","","","","","","","","","","","","",""
"","S2","","html-keyboard-response","348","428475","0.0-1.0-472.0","0","0","54117","","null","","","null","52","","NaN","","","","","","","","","","","","","",""
"","response","","html-keyboard-response","349","428902","0.0-1.0-473.0-0.0","0","0","54117","","425","","","68","52","","","2","52","training","adjacent","BA","2","1","P.jpg","M.jpg","0","0","1","",""
"","feedback","","html-keyboard-response","350","429908","0.0-1.0-474.0-0.0","0","0","54117","","null","","","null","52","","","","","","","","","","","","","","","",""
"","ITI","","html-keyboard-response","351","430912","0.0-1.0-477.0","0","0","54117","","null","","","null","52","","","","","","","","","","","","","","","NaN",""
"","S1","","html-keyboard-response","352","431067","0.0-1.0-479.0","0","0","54117","","null","","","null","53","","","","","","","","","","","","","","","",""
"","ISI","","html-keyboard-response","353","433070","0.0-1.0-480.0","0","0","54117","","null","","","null","53","NaN","","","","","","","","","","","","","","",""
"","S2","","html-keyboard-response","354","433225","0.0-1.0-481.0","0","0","54117","","null","","","null","53","","NaN","","","","","","","","","","","","","",""
"","response","","html-keyboard-response","355","433634","0.0-1.0-482.0-0.0","0","0","54117","","406","","","75","53","","","2","53","training","adjacent","DE","4","5","O.jpg","Q.jpg","1","1","1","",""
"","feedback","","html-keyboard-response","356","434637","0.0-1.0-483.0-0.0","0","0","54117","","null","","","null","53","","","","","","","","","","","","","","","",""
"","ITI","","html-keyboard-response","357","435642","0.0-1.0-486.0","0","0","54117","","null","","","null","53","","","","","","","","","","","","","","","NaN",""
"","S1","","html-keyboard-response","358","435797","0.0-1.0-488.0","0","0","54117","","null","","","null","54","","","","","","","","","","","","","","","",""
"","ISI","","html-keyboard-response","359","437800","0.0-1.0-489.0","0","0","54117","","null","","","null","54","NaN","","","","","","","","","","","","","","",""
"","S2","","html-keyboard-response","360","437955","0.0-1.0-490.0","0","0","54117","","null","","","null","54","","NaN","","","","","","","","","","","","","",""
"","response","","html-keyboard-response","361","438870","0.0-1.0-491.0-0.0","0","0","54117","","912","","","68","54","","","2","54","training","adjacent","GF","7","6","R.jpg","L.jpg","0","0","1","",""
"","feedback","","html-keyboard-response","362","439875","0.0-1.0-492.0-0.0","0","0","54117","","null","","","null","54","","","","","","","","","","","","","","","",""
"","ITI","","html-keyboard-response","363","440879","0.0-1.0-495.0","0","0","54117","","null","","","null","54","","","","","","","","","","","","","","","NaN",""
"","S1","","html-keyboard-response","364","441044","0.0-1.0-497.0","0","0","54117","","null","","","null","55","","","","","","","","","","","","","","","",""
"","ISI","","html-keyboard-response","365","443048","0.0-1.0-498.0","0","0","54117","","null","","","null","55","NaN","","","","","","","","","","","","","","",""
"","S2","","html-keyboard-response","366","443202","0.0-1.0-499.0","0","0","54117","","null","","","null","55","","NaN","","","","","","","","","","","","","",""
"","response","","html-keyboard-response","367","443610","0.0-1.0-500.0-0.0","0","0","54117","","404","","","68","55","","","2","55","training","adjacent","GF","7","6","R.jpg","L.jpg","0","0","1","",""
"","feedback","","html-keyboard-response","368","444615","0.0-1.0-501.0-0.0","0","0","54117","","null","","","null","55","","","","","","","","","","","","","","","",""
"","ITI","","html-keyboard-response","369","445620","0.0-1.0-504.0","0","0","54117","","null","","","null","55","","","","","","","","","","","","","","","NaN",""
"","S1","","html-keyboard-response","370","445773","0.0-1.0-506.0","0","0","54117","","null","","","null","56","","","","","","","","","","","","","","","",""
"","ISI","","html-keyboard-response","371","447777","0.0-1.0-507.0","0","0","54117","","null","","","null","56","NaN","","","","","","","","","","","","","","",""
"","S2","","html-keyboard-response","372","447931","0.0-1.0-508.0","0","0","54117","","null","","","null","56","","NaN","","","","","","","","","","","","","",""
"","response","","html-keyboard-response","373","448267","0.0-1.0-509.0-0.0","0","0","54117","","333","","","75","56","","","2","56","training","adjacent","FG","6","7","L.jpg","R.jpg","1","1","1","",""
"","feedback","","html-keyboard-response","374","449272","0.0-1.0-510.0-0.0","0","0","54117","","null","","","null","56","","","","","","","","","","","","","","","",""
"","ITI","","html-keyboard-response","375","450281","0.0-1.0-513.0","0","0","54117","","null","","","null","56","","","","","","","","","","","","","","","NaN",""
"","S1","","html-keyboard-response","376","450435","0.0-1.0-515.0","0","0","54117","","null","","","null","57","","","","","","","","","","","","","","","",""
"","ISI","","html-keyboard-response","377","452438","0.0-1.0-516.0","0","0","54117","","null","","","null","57","NaN","","","","","","","","","","","","","","",""
"","S2","","html-keyboard-response","378","452593","0.0-1.0-517.0","0","0","54117","","null","","","null","57","","NaN","","","","","","","","","","","","","",""
"","response","","html-keyboard-response","379","452823","0.0-1.0-518.0-0.0","0","0","54117","","227","","","75","57","","","2","57","training","adjacent","FE","6","5","L.jpg","Q.jpg","1","0","0","",""
"","feedback","","html-keyboard-response","380","453828","0.0-1.0-519.0-0.0","0","0","54117","","null","","","null","57","","","","","","","","","","","","","","","",""
"","time_out","","html-keyboard-response","381","455833","0.0-1.0-521.0-0.0","0","0","54117","","null","","","null","57","","","","","","","","","","","","","","","",""
"","ITI","","html-keyboard-response","382","456837","0.0-1.0-522.0","0","0","54117","","null","","","null","57","","","","","","","","","","","","","","","NaN",""
"","S1","","html-keyboard-response","383","456992","0.0-1.0-524.0","0","0","54117","","null","","","null","58","","","","","","","","","","","","","","","",""
"","ISI","","html-keyboard-response","384","458995","0.0-1.0-525.0","0","0","54117","","null","","","null","58","NaN","","","","","","","","","","","","","","",""
"","S2","","html-keyboard-response","385","459149","0.0-1.0-526.0","0","0","54117","","null","","","null","58","","NaN","","","","","","","","","","","","","",""
"","response","","html-keyboard-response","386","460622","0.0-1.0-527.0-0.0","0","0","54117","","1470","","","68","58","","","2","58","training","adjacent","ED","5","4","Q.jpg","O.jpg","0","0","1","",""
"","feedback","","html-keyboard-response","387","461626","0.0-1.0-528.0-0.0","0","0","54117","","null","","","null","58","","","","","","","","","","","","","","","",""
"","ITI","","html-keyboard-response","388","462630","0.0-1.0-531.0","0","0","54117","","696","","","75","58","","","","","","","","","","","","","","","k",""
"","S1","","html-keyboard-response","389","462784","0.0-1.0-533.0","0","0","54117","","null","","","null","59","","","","","","","","","","","","","","","",""
"","ISI","","html-keyboard-response","390","464788","0.0-1.0-534.0","0","0","54117","","null","","","null","59","NaN","","","","","","","","","","","","","","",""
"","S2","","html-keyboard-response","391","464943","0.0-1.0-535.0","0","0","54117","","null","","","null","59","","NaN","","","","","","","","","","","","","",""
"","response","","html-keyboard-response","392","465900","0.0-1.0-536.0-0.0","0","0","54117","","953","","","68","59","","","2","59","training","adjacent","BC","2","3","P.jpg","N.jpg","0","1","0","",""
"","feedback","","html-keyboard-response","393","466905","0.0-1.0-537.0-0.0","0","0","54117","","null","","","null","59","","","","","","","","","","","","","","","",""
"","time_out","","html-keyboard-response","394","468909","0.0-1.0-539.0-0.0","0","0","54117","","null","","","null","59","","","","","","","","","","","","","","","",""
"","ITI","","html-keyboard-response","395","469914","0.0-1.0-540.0","0","0","54117","","null","","","null","59","","","","","","","","","","","","","","","NaN",""
"","S1","","html-keyboard-response","396","470068","0.0-1.0-542.0","0","0","54117","","null","","","null","60","","","","","","","","","","","","","","","",""
"","ISI","","html-keyboard-response","397","472072","0.0-1.0-543.0","0","0","54117","","null","","","null","60","NaN","","","","","","","","","","","","","","",""
"","S2","","html-keyboard-response","398","472227","0.0-1.0-544.0","0","0","54117","","null","","","null","60","","NaN","","","","","","","","","","","","","",""
"","response","","html-keyboard-response","399","472550","0.0-1.0-545.0-0.0","0","0","54117","","320","","","75","60","","","2","60","training","adjacent","DE","4","5","O.jpg","Q.jpg","1","1","1","",""
"","feedback","","html-keyboard-response","400","473555","0.0-1.0-546.0-0.0","0","0","54117","","null","","","null","60","","","","","","","","","","","","","","","",""
"","ITI","","html-keyboard-response","401","474559","0.0-1.0-549.0","0","0","54117","","null","","","null","60","","","","","","","","","","","","","","","NaN",""
"","S1","","html-keyboard-response","402","474724","0.0-1.0-551.0","0","0","54117","","null","","","null","61","","","","","","","","","","","","","","","",""
"","ISI","","html-keyboard-response","403","476728","0.0-1.0-552.0","0","0","54117","","null","","","null","61","NaN","","","","","","","","","","","","","","",""
"","S2","","html-keyboard-response","404","476882","0.0-1.0-553.0","0","0","54117","","null","","","null","61","","NaN","","","","","","","","","","","","","",""
"","response","","html-keyboard-response","405","477906","0.0-1.0-554.0-0.0","0","0","54117","","1020","","","68","61","","","2","61","training","adjacent","AB","1","2","M.jpg","P.jpg","0","1","0","",""
"","feedback","","html-keyboard-response","406","478910","0.0-1.0-555.0-0.0","0","0","54117","","null","","","null","61","","","","","","","","","","","","","","","",""
"","time_out","","html-keyboard-response","407","480913","0.0-1.0-557.0-0.0","0","0","54117","","null","","","null","61","","","","","","","","","","","","","","","",""
"","ITI","","html-keyboard-response","408","481917","0.0-1.0-558.0","0","0","54117","","null","","","null","61","","","","","","","","","","","","","","","NaN",""
"","S1","","html-keyboard-response","409","482071","0.0-1.0-560.0","0","0","54117","","null","","","null","62","","","","","","","","","","","","","","","",""
"","ISI","","html-keyboard-response","410","484075","0.0-1.0-561.0","0","0","54117","","null","","","null","62","NaN","","","","","","","","","","","","","","",""
"","S2","","html-keyboard-response","411","484230","0.0-1.0-562.0","0","0","54117","","null","","","null","62","","NaN","","","","","","","","","","","","","",""
"","response","","html-keyboard-response","412","484514","0.0-1.0-563.0-0.0","0","0","54117","","281","","","75","62","","","2","62","training","adjacent","DC","4","3","O.jpg","N.jpg","1","0","0","",""
"","feedback","","html-keyboard-response","413","485518","0.0-1.0-564.0-0.0","0","0","54117","","null","","","null","62","","","","","","","","","","","","","","","",""
"","time_out","","html-keyboard-response","414","487522","0.0-1.0-566.0-0.0","0","0","54117","","null","","","null","62","","","","","","","","","","","","","","","",""
"","ITI","","html-keyboard-response","415","488526","0.0-1.0-567.0","0","0","54117","","null","","","null","62","","","","","","","","","","","","","","","NaN",""
"","S1","","html-keyboard-response","416","488680","0.0-1.0-569.0","0","0","54117","","null","","","null","63","","","","","","","","","","","","","","","",""
"","ISI","","html-keyboard-response","417","490683","0.0-1.0-570.0","0","0","54117","","null","","","null","63","NaN","","","","","","","","","","","","","","",""
"","S2","","html-keyboard-response","418","490838","0.0-1.0-571.0","0","0","54117","","null","","","null","63","","NaN","","","","","","","","","","","","","",""
"","response","","html-keyboard-response","419","491124","0.0-1.0-572.0-0.0","0","0","54117","","283","","","75","63","","","2","63","training","adjacent","CD","3","4","N.jpg","O.jpg","1","1","1","",""
"","feedback","","html-keyboard-response","420","492128","0.0-1.0-573.0-0.0","0","0","54117","","null","","","null","63","","","","","","","","","","","","","","","",""
"","ITI","","html-keyboard-response","421","493131","0.0-1.0-576.0","0","0","54117","","null","","","null","63","","","","","","","","","","","","","","","NaN",""
"","S1","","html-keyboard-response","422","493287","0.0-1.0-578.0","0","0","54117","","null","","","null","64","","","","","","","","","","","","","","","",""
"","ISI","","html-keyboard-response","423","495290","0.0-1.0-579.0","0","0","54117","","1703","","","75","64","k","","","","","","","","","","","","","","",""
"","S2","","html-keyboard-response","424","495446","0.0-1.0-580.0","0","0","54117","","null","","","null","64","","NaN","","","","","","","","","","","","","",""
"","response","","html-keyboard-response","425","496174","0.0-1.0-581.0-0.0","0","0","54117","","725","","","68","64","","","2","64","training","adjacent","BA","2","1","P.jpg","M.jpg","0","0","1","",""
"","feedback","","html-keyboard-response","426","497179","0.0-1.0-582.0-0.0","0","0","54117","","null","","","null","64","","","","","","","","","","","","","","","",""
"","ITI","","html-keyboard-response","427","498183","0.0-1.0-585.0","0","0","54117","","null","","","null","64","","","","","","","","","","","","","","","NaN",""
"","S1","","html-keyboard-response","428","498338","0.0-1.0-587.0","0","0","54117","","null","","","null","65","","","","","","","","","","","","","","","",""
"","ISI","","html-keyboard-response","429","500350","0.0-1.0-588.0","0","0","54117","","null","","","null","65","NaN","","","","","","","","","","","","","","",""
"","S2","","html-keyboard-response","430","500504","0.0-1.0-589.0","0","0","54117","","null","","","null","65","","NaN","","","","","","","","","","","","","",""
"","response","","html-keyboard-response","431","500662","0.0-1.0-590.0-0.0","0","0","54117","","155","","","68","65","","","2","65","training","adjacent","DC","4","3","O.jpg","N.jpg","0","0","1","",""
"","feedback","","html-keyboard-response","432","501668","0.0-1.0-591.0-0.0","0","0","54117","","null","","","null","65","","","","","","","","","","","","","","","",""
"","ITI","","html-keyboard-response","433","502673","0.0-1.0-594.0","0","0","54117","","null","","","null","65","","","","","","","","","","","","","","","NaN",""
"","S1","","html-keyboard-response","434","502828","0.0-1.0-596.0","0","0","54117","","null","","","null","66","","","","","","","","","","","","","","","",""
"","ISI","","html-keyboard-response","435","504831","0.0-1.0-597.0","0","0","54117","","null","","","null","66","NaN","","","","","","","","","","","","","","",""
"","S2","","html-keyboard-response","436","504986","0.0-1.0-598.0","0","0","54117","","null","","","null","66","","NaN","","","","","","","","","","","","","",""
"","response","","html-keyboard-response","437","505515","0.0-1.0-599.0-0.0","0","0","54117","","526","","","75","66","","","2","66","training","adjacent","BA","2","1","P.jpg","M.jpg","1","0","0","",""
"","feedback","","html-keyboard-response","438","506520","0.0-1.0-600.0-0.0","0","0","54117","","null","","","null","66","","","","","","","","","","","","","","","",""
"","time_out","","html-keyboard-response","439","508524","0.0-1.0-602.0-0.0","0","0","54117","","null","","","null","66","","","","","","","","","","","","","","","",""
"","ITI","","html-keyboard-response","440","509528","0.0-1.0-603.0","0","0","54117","","null","","","null","66","","","","","","","","","","","","","","","NaN",""
"","S1","","html-keyboard-response","441","509682","0.0-1.0-605.0","0","0","54117","","null","","","null","67","","","","","","","","","","","","","","","",""
"","ISI","","html-keyboard-response","442","511686","0.0-1.0-606.0","0","0","54117","","null","","","null","67","NaN","","","","","","","","","","","","","","",""
"","S2","","html-keyboard-response","443","511840","0.0-1.0-607.0","0","0","54117","","null","","","null","67","","NaN","","","","","","","","","","","","","",""
"","response","","html-keyboard-response","444","512487","0.0-1.0-608.0-0.0","0","0","54117","","644","","","75","67","","","2","67","training","adjacent","EF","5","6","Q.jpg","L.jpg","1","1","1","",""
"","feedback","","html-keyboard-response","445","513492","0.0-1.0-609.0-0.0","0","0","54117","","null","","","null","67","","","","","","","","","","","","","","","",""
"","ITI","","html-keyboard-response","446","514497","0.0-1.0-612.0","0","0","54117","","null","","","null","67","","","","","","","","","","","","","","","NaN",""
"","S1","","html-keyboard-response","447","514651","0.0-1.0-614.0","0","0","54117","","null","","","null","68","","","","","","","","","","","","","","","",""
"","ISI","","html-keyboard-response","448","516654","0.0-1.0-615.0","0","0","54117","","null","","","null","68","NaN","","","","","","","","","","","","","","",""
"","S2","","html-keyboard-response","449","516808","0.0-1.0-616.0","0","0","54117","","null","","","null","68","","NaN","","","","","","","","","","","","","",""
"","response","","html-keyboard-response","450","517213","0.0-1.0-617.0-0.0","0","0","54117","","402","","","75","68","","","2","68","training","adjacent","ED","5","4","Q.jpg","O.jpg","1","0","0","",""
"","feedback","","html-keyboard-response","451","518218","0.0-1.0-618.0-0.0","0","0","54117","","null","","","null","68","","","","","","","","","","","","","","","",""
"","time_out","","html-keyboard-response","452","520223","0.0-1.0-620.0-0.0","0","0","54117","","null","","","null","68","","","","","","","","","","","","","","","",""
"","ITI","","html-keyboard-response","453","521227","0.0-1.0-621.0","0","0","54117","","null","","","null","68","","","","","","","","","","","","","","","NaN",""
"","S1","","html-keyboard-response","454","521381","0.0-1.0-623.0","0","0","54117","","null","","","null","69","","","","","","","","","","","","","","","",""
"","ISI","","html-keyboard-response","455","523385","0.0-1.0-624.0","0","0","54117","","null","","","null","69","NaN","","","","","","","","","","","","","","",""
"","S2","","html-keyboard-response","456","523539","0.0-1.0-625.0","0","0","54117","","null","","","null","69","","NaN","","","","","","","","","","","","","",""
"","response","","html-keyboard-response","457","523697","0.0-1.0-626.0-0.0","0","0","54117","","154","","","68","69","","","2","69","training","adjacent","DC","4","3","O.jpg","N.jpg","0","0","1","",""
"","feedback","","html-keyboard-response","458","524700","0.0-1.0-627.0-0.0","0","0","54117","","null","","","null","69","","","","","","","","","","","","","","","",""
"","ITI","","html-keyboard-response","459","525703","0.0-1.0-630.0","0","0","54117","","null","","","null","69","","","","","","","","","","","","","","","NaN",""
"","S1","","html-keyboard-response","460","525857","0.0-1.0-632.0","0","0","54117","","null","","","null","70","","","","","","","","","","","","","","","",""
"","ISI","","html-keyboard-response","461","527861","0.0-1.0-633.0","0","0","54117","","null","","","null","70","NaN","","","","","","","","","","","","","","",""
"","S2","","html-keyboard-response","462","528015","0.0-1.0-634.0","0","0","54117","","null","","","null","70","","NaN","","","","","","","","","","","","","",""
"","response","","html-keyboard-response","463","528427","0.0-1.0-635.0-0.0","0","0","54117","","409","","","75","70","","","2","70","training","adjacent","EF","5","6","Q.jpg","L.jpg","1","1","1","",""
"","feedback","","html-keyboard-response","464","529432","0.0-1.0-636.0-0.0","0","0","54117","","null","","","null","70","","","","","","","","","","","","","","","",""
"","ITI","","html-keyboard-response","465","530436","0.0-1.0-639.0","0","0","54117","","null","","","null","70","","","","","","","","","","","","","","","NaN",""
"","S1","","html-keyboard-response","466","530590","0.0-1.0-641.0","0","0","54117","","null","","","null","71","","","","","","","","","","","","","","","",""
"","ISI","","html-keyboard-response","467","532593","0.0-1.0-642.0","0","0","54117","","null","","","null","71","NaN","","","","","","","","","","","","","","",""
"","S2","","html-keyboard-response","468","532748","0.0-1.0-643.0","0","0","54117","","null","","","null","71","","NaN","","","","","","","","","","","","","",""
"","response","","html-keyboard-response","469","533002","0.0-1.0-644.0-0.0","0","0","54117","","251","","","75","71","","","2","71","training","adjacent","BC","2","3","P.jpg","N.jpg","1","1","1","",""
"","feedback","","html-keyboard-response","470","534007","0.0-1.0-645.0-0.0","0","0","54117","","null","","","null","71","","","","","","","","","","","","","","","",""
"","ITI","","html-keyboard-response","471","535011","0.0-1.0-648.0","0","0","54117","","null","","","null","71","","","","","","","","","","","","","","","NaN",""
"","S1","","html-keyboard-response","472","535166","0.0-1.0-650.0","0","0","54117","","null","","","null","72","","","","","","","","","","","","","","","",""
"","ISI","","html-keyboard-response","473","537169","0.0-1.0-651.0","0","0","54117","","null","","","null","72","NaN","","","","","","","","","","","","","","",""
"","S2","","html-keyboard-response","474","537337","0.0-1.0-652.0","0","0","54117","","null","","","null","72","","NaN","","","","","","","","","","","","","",""
"","response","","html-keyboard-response","475","538100","0.0-1.0-653.0-0.0","0","0","54117","","760","","","75","72","","","2","72","training","adjacent","CB","3","2","N.jpg","P.jpg","1","0","0","",""
"","feedback","","html-keyboard-response","476","539106","0.0-1.0-654.0-0.0","0","0","54117","","null","","","null","72","","","","","","","","","","","","","","","",""
"","time_out","","html-keyboard-response","477","541110","0.0-1.0-656.0-0.0","0","0","54117","","null","","","null","72","","","","","","","","","","","","","","","",""
"","ITI","","html-keyboard-response","478","542113","0.0-1.0-657.0","0","0","54117","","null","","","null","72","","","","","","","","","","","","","","","NaN",""
"","S1","","html-keyboard-response","479","542267","0.0-1.0-659.0","0","0","54117","","null","","","null","73","","","","","","","","","","","","","","","",""
"","ISI","","html-keyboard-response","480","544270","0.0-1.0-660.0","0","0","54117","","null","","","null","73","NaN","","","","","","","","","","","","","","",""
"","S2","","html-keyboard-response","481","544425","0.0-1.0-661.0","0","0","54117","","null","","","null","73","","NaN","","","","","","","","","","","","","",""
"","response","","html-keyboard-response","482","544760","0.0-1.0-662.0-0.0","0","0","54117","","331","","","75","73","","","2","73","training","adjacent","EF","5","6","Q.jpg","L.jpg","1","1","1","",""
"","feedback","","html-keyboard-response","483","545764","0.0-1.0-663.0-0.0","0","0","54117","","null","","","null","73","","","","","","","","","","","","","","","",""
"","ITI","","html-keyboard-response","484","546769","0.0-1.0-666.0","0","0","54117","","null","","","null","73","","","","","","","","","","","","","","","NaN",""
"","S1","","html-keyboard-response","485","546924","0.0-1.0-668.0","0","0","54117","","null","","","null","74","","","","","","","","","","","","","","","",""
"","ISI","","html-keyboard-response","486","548927","0.0-1.0-669.0","0","0","54117","","null","","","null","74","NaN","","","","","","","","","","","","","","",""
"","S2","","html-keyboard-response","487","549082","0.0-1.0-670.0","0","0","54117","","null","","","null","74","","NaN","","","","","","","","","","","","","",""
"","response","","html-keyboard-response","488","549753","0.0-1.0-671.0-0.0","0","0","54117","","668","","","68","74","","","2","74","training","adjacent","ED","5","4","Q.jpg","O.jpg","0","0","1","",""
"","feedback","","html-keyboard-response","489","550758","0.0-1.0-672.0-0.0","0","0","54117","","null","","","null","74","","","","","","","","","","","","","","","",""
"","ITI","","html-keyboard-response","490","551762","0.0-1.0-675.0","0","0","54117","","null","","","null","74","","","","","","","","","","","","","","","NaN",""
"","S1","","html-keyboard-response","491","551917","0.0-1.0-677.0","0","0","54117","","null","","","null","75","","","","","","","","","","","","","","","",""
"","ISI","","html-keyboard-response","492","553921","0.0-1.0-678.0","0","0","54117","","null","","","null","75","NaN","","","","","","","","","","","","","","",""
"","S2","","html-keyboard-response","493","554076","0.0-1.0-679.0","0","0","54117","","null","","","null","75","","NaN","","","","","","","","","","","","","",""
"","response","","html-keyboard-response","494","554281","0.0-1.0-680.0-0.0","0","0","54117","","202","","","75","75","","","2","75","training","adjacent","BA","2","1","P.jpg","M.jpg","1","0","0","",""
"","feedback","","html-keyboard-response","495","555286","0.0-1.0-681.0-0.0","0","0","54117","","null","","","null","75","","","","","","","","","","","","","","","",""
"","time_out","","html-keyboard-response","496","557291","0.0-1.0-683.0-0.0","0","0","54117","","null","","","null","75","","","","","","","","","","","","","","","",""
"","ITI","","html-keyboard-response","497","558296","0.0-1.0-684.0","0","0","54117","","null","","","null","75","","","","","","","","","","","","","","","NaN",""
"","S1","","html-keyboard-response","498","558450","0.0-1.0-686.0","0","0","54117","","null","","","null","76","","","","","","","","","","","","","","","",""
"","ISI","","html-keyboard-response","499","560454","0.0-1.0-687.0","0","0","54117","","null","","","null","76","NaN","","","","","","","","","","","","","","",""
"","S2","","html-keyboard-response","500","560608","0.0-1.0-688.0","0","0","54117","","null","","","null","76","","NaN","","","","","","","","","","","","","",""
"","response","","html-keyboard-response","501","560993","0.0-1.0-689.0-0.0","0","0","54117","","382","","","75","76","","","2","76","training","adjacent","AB","1","2","M.jpg","P.jpg","1","1","1","",""
"","feedback","","html-keyboard-response","502","561998","0.0-1.0-690.0-0.0","0","0","54117","","null","","","null","76","","","","","","","","","","","","","","","",""
"","ITI","","html-keyboard-response","503","563003","0.0-1.0-693.0","0","0","54117","","null","","","null","76","","","","","","","","","","","","","","","NaN",""
"","S1","","html-keyboard-response","504","563158","0.0-1.0-695.0","0","0","54117","","null","","","null","77","","","","","","","","","","","","","","","",""
"","ISI","","html-keyboard-response","505","565169","0.0-1.0-696.0","0","0","54117","","null","","","null","77","NaN","","","","","","","","","","","","","","",""
"","S2","","html-keyboard-response","506","565323","0.0-1.0-697.0","0","0","54117","","null","","","null","77","","NaN","","","","","","","","","","","","","",""
"","response","","html-keyboard-response","507","565545","0.0-1.0-698.0-0.0","0","0","54117","","219","","","75","77","","","2","77","training","adjacent","CB","3","2","N.jpg","P.jpg","1","0","0","",""
"","feedback","","html-keyboard-response","508","566551","0.0-1.0-699.0-0.0","0","0","54117","","null","","","null","77","","","","","","","","","","","","","","","",""
"","time_out","","html-keyboard-response","509","568554","0.0-1.0-701.0-0.0","0","0","54117","","null","","","null","77","","","","","","","","","","","","","","","",""
"","ITI","","html-keyboard-response","510","569558","0.0-1.0-702.0","0","0","54117","","null","","","null","77","","","","","","","","","","","","","","","NaN",""
"","S1","","html-keyboard-response","511","569712","0.0-1.0-704.0","0","0","54117","","null","","","null","78","","","","","","","","","","","","","","","",""
"","ISI","","html-keyboard-response","512","571716","0.0-1.0-705.0","0","0","54117","","null","","","null","78","NaN","","","","","","","","","","","","","","",""
"","S2","","html-keyboard-response","513","571871","0.0-1.0-706.0","0","0","54117","","null","","","null","78","","NaN","","","","","","","","","","","","","",""
"","response","","html-keyboard-response","514","572046","0.0-1.0-707.0-0.0","0","0","54117","","172","","","68","78","","","2","78","training","adjacent","FG","6","7","L.jpg","R.jpg","0","1","0","",""
"","feedback","","html-keyboard-response","515","573051","0.0-1.0-708.0-0.0","0","0","54117","","null","","","null","78","","","","","","","","","","","","","","","",""
"","time_out","","html-keyboard-response","516","575055","0.0-1.0-710.0-0.0","0","0","54117","","null","","","null","78","","","","","","","","","","","","","","","",""
"","ITI","","html-keyboard-response","517","576059","0.0-1.0-711.0","0","0","54117","","null","","","null","78","","","","","","","","","","","","","","","NaN",""
"","S1","","html-keyboard-response","518","576213","0.0-1.0-713.0","0","0","54117","","null","","","null","79","","","","","","","","","","","","","","","",""
"","ISI","","html-keyboard-response","519","578217","0.0-1.0-714.0","0","0","54117","","null","","","null","79","NaN","","","","","","","","","","","","","","",""
"","S2","","html-keyboard-response","520","578371","0.0-1.0-715.0","0","0","54117","","null","","","null","79","","NaN","","","","","","","","","","","","","",""
"","response","","html-keyboard-response","521","578830","0.0-1.0-716.0-0.0","0","0","54117","","456","","","75","79","","","2","79","training","adjacent","CB","3","2","N.jpg","P.jpg","1","0","0","",""
"","feedback","","html-keyboard-response","522","579836","0.0-1.0-717.0-0.0","0","0","54117","","null","","","null","79","","","","","","","","","","","","","","","",""
"","time_out","","html-keyboard-response","523","581840","0.0-1.0-719.0-0.0","0","0","54117","","null","","","null","79","","","","","","","","","","","","","","","",""
"","ITI","","html-keyboard-response","524","582844","0.0-1.0-720.0","0","0","54117","","null","","","null","79","","","","","","","","","","","","","","","NaN",""
"","S1","","html-keyboard-response","525","582998","0.0-1.0-722.0","0","0","54117","","null","","","null","80","","","","","","","","","","","","","","","",""
"","ISI","","html-keyboard-response","526","585003","0.0-1.0-723.0","0","0","54117","","null","","","null","80","NaN","","","","","","","","","","","","","","",""
"","S2","","html-keyboard-response","527","585157","0.0-1.0-724.0","0","0","54117","","null","","","null","80","","NaN","","","","","","","","","","","","","",""
"","response","","html-keyboard-response","528","585505","0.0-1.0-725.0-0.0","0","0","54117","","344","","","75","80","","","2","80","training","adjacent","DE","4","5","O.jpg","Q.jpg","1","1","1","",""
"","feedback","","html-keyboard-response","529","586510","0.0-1.0-726.0-0.0","0","0","54117","","null","","","null","80","","","","","","","","","","","","","","","",""
"","ITI","","html-keyboard-response","530","587515","0.0-1.0-729.0","0","0","54117","","null","","","null","80","","","","","","","","","","","","","","","NaN",""
"","S1","","html-keyboard-response","531","587669","0.0-1.0-731.0","0","0","54117","","null","","","null","81","","","","","","","","","","","","","","","",""
"","ISI","","html-keyboard-response","532","589673","0.0-1.0-732.0","0","0","54117","","null","","","null","81","NaN","","","","","","","","","","","","","","",""
"","S2","","html-keyboard-response","533","589827","0.0-1.0-733.0","0","0","54117","","null","","","null","81","","NaN","","","","","","","","","","","","","",""
"","response","","html-keyboard-response","534","590508","0.0-1.0-734.0-0.0","0","0","54117","","677","","","75","81","","","2","81","training","adjacent","GF","7","6","R.jpg","L.jpg","1","0","0","",""
"","feedback","","html-keyboard-response","535","591513","0.0-1.0-735.0-0.0","0","0","54117","","null","","","null","81","","","","","","","","","","","","","","","",""
"","time_out","","html-keyboard-response","536","593517","0.0-1.0-737.0-0.0","0","0","54117","","null","","","null","81","","","","","","","","","","","","","","","",""
"","ITI","","html-keyboard-response","537","594521","0.0-1.0-738.0","0","0","54117","","null","","","null","81","","","","","","","","","","","","","","","NaN",""
"","S1","","html-keyboard-response","538","594676","0.0-1.0-740.0","0","0","54117","","null","","","null","82","","","","","","","","","","","","","","","",""
"","ISI","","html-keyboard-response","539","596679","0.0-1.0-741.0","0","0","54117","","null","","","null","82","NaN","","","","","","","","","","","","","","",""
"","S2","","html-keyboard-response","540","596834","0.0-1.0-742.0","0","0","54117","","null","","","null","82","","NaN","","","","","","","","","","","","","",""
"","response","","html-keyboard-response","541","597251","0.0-1.0-743.0-0.0","0","0","54117","","414","","","68","82","","","2","82","training","adjacent","AB","1","2","M.jpg","P.jpg","0","1","0","",""
"","feedback","","html-keyboard-response","542","598256","0.0-1.0-744.0-0.0","0","0","54117","","null","","","null","82","","","","","","","","","","","","","","","",""
"","time_out","","html-keyboard-response","543","600261","0.0-1.0-746.0-0.0","0","0","54117","","null","","","null","82","","","","","","","","","","","","","","","",""
"","ITI","","html-keyboard-response","544","601265","0.0-1.0-747.0","0","0","54117","","null","","","null","82","","","","","","","","","","","","","","","NaN",""
"","S1","","html-keyboard-response","545","601419","0.0-1.0-749.0","0","0","54117","","null","","","null","83","","","","","","","","","","","","","","","",""
"","ISI","","html-keyboard-response","546","603423","0.0-1.0-750.0","0","0","54117","","null","","","null","83","NaN","","","","","","","","","","","","","","",""
"","S2","","html-keyboard-response","547","603578","0.0-1.0-751.0","0","0","54117","","null","","","null","83","","NaN","","","","","","","","","","","","","",""
"","response","","html-keyboard-response","548","603821","0.0-1.0-752.0-0.0","0","0","54117","","240","","","68","83","","","2","83","training","adjacent","FE","6","5","L.jpg","Q.jpg","0","0","1","",""
"","feedback","","html-keyboard-response","549","604826","0.0-1.0-753.0-0.0","0","0","54117","","null","","","null","83","","","","","","","","","","","","","","","",""
"","ITI","","html-keyboard-response","550","605830","0.0-1.0-756.0","0","0","54117","","null","","","null","83","","","","","","","","","","","","","","","NaN",""
"","S1","","html-keyboard-response","551","605984","0.0-1.0-758.0","0","0","54117","","null","","","null","84","","","","","","","","","","","","","","","",""
"","ISI","","html-keyboard-response","552","607989","0.0-1.0-759.0","0","0","54117","","null","","","null","84","NaN","","","","","","","","","","","","","","",""
"","S2","","html-keyboard-response","553","608143","0.0-1.0-760.0","0","0","54117","","null","","","null","84","","NaN","","","","","","","","","","","","","",""
"","response","","html-keyboard-response","554","608731","0.0-1.0-761.0-0.0","0","0","54117","","585","","","68","84","","","2","84","training","adjacent","EF","5","6","Q.jpg","L.jpg","0","1","0","",""
"","feedback","","html-keyboard-response","555","609736","0.0-1.0-762.0-0.0","0","0","54117","","null","","","null","84","","","","","","","","","","","","","","","",""
"","time_out","","html-keyboard-response","556","611740","0.0-1.0-764.0-0.0","0","0","54117","","null","","","null","84","","","","","","","","","","","","","","","",""
"","ITI","","html-keyboard-response","557","612744","0.0-1.0-765.0","0","0","54117","","null","","","null","84","","","","","","","","","","","","","","","NaN",""
"","S1","","html-keyboard-response","558","612898","0.0-1.0-767.0","0","0","54117","","null","","","null","85","","","","","","","","","","","","","","","",""
"","ISI","","html-keyboard-response","559","614903","0.0-1.0-768.0","0","0","54117","","null","","","null","85","NaN","","","","","","","","","","","","","","",""
"","S2","","html-keyboard-response","560","615058","0.0-1.0-769.0","0","0","54117","","null","","","null","85","","NaN","","","","","","","","","","","","","",""
"","response","","html-keyboard-response","561","615601","0.0-1.0-770.0-0.0","0","0","54117","","539","","","75","85","","","2","85","training","adjacent","CB","3","2","N.jpg","P.jpg","1","0","0","",""
"","feedback","","html-keyboard-response","562","616606","0.0-1.0-771.0-0.0","0","0","54117","","null","","","null","85","","","","","","","","","","","","","","","",""
"","time_out","","html-keyboard-response","563","618611","0.0-1.0-773.0-0.0","0","0","54117","","null","","","null","85","","","","","","","","","","","","","","","",""
"","ITI","","html-keyboard-response","564","619622","0.0-1.0-774.0","0","0","54117","","null","","","null","85","","","","","","","","","","","","","","","NaN",""
"","S1","","html-keyboard-response","565","619776","0.0-1.0-776.0","0","0","54117","","null","","","null","86","","","","","","","","","","","","","","","",""
"","ISI","","html-keyboard-response","566","621779","0.0-1.0-777.0","0","0","54117","","null","","","null","86","NaN","","","","","","","","","","","","","","",""
"","S2","","html-keyboard-response","567","621936","0.0-1.0-778.0","0","0","54117","","null","","","null","86","","NaN","","","","","","","","","","","","","",""
"","response","","html-keyboard-response","568","622721","0.0-1.0-779.0-0.0","0","0","54117","","782","","","75","86","","","2","86","training","adjacent","DC","4","3","O.jpg","N.jpg","1","0","0","",""
"","feedback","","html-keyboard-response","569","623726","0.0-1.0-780.0-0.0","0","0","54117","","null","","","null","86","","","","","","","","","","","","","","","",""
"","time_out","","html-keyboard-response","570","625731","0.0-1.0-782.0-0.0","0","0","54117","","null","","","null","86","","","","","","","","","","","","","","","",""
"","ITI","","html-keyboard-response","571","626735","0.0-1.0-783.0","0","0","54117","","null","","","null","86","","","","","","","","","","","","","","","NaN",""
"","S1","","html-keyboard-response","572","626889","0.0-1.0-785.0","0","0","54117","","null","","","null","87","","","","","","","","","","","","","","","",""
"","ISI","","html-keyboard-response","573","628892","0.0-1.0-786.0","0","0","54117","","null","","","null","87","NaN","","","","","","","","","","","","","","",""
"","S2","","html-keyboard-response","574","629048","0.0-1.0-787.0","0","0","54117","","null","","","null","87","","NaN","","","","","","","","","","","","","",""
"","response","","html-keyboard-response","575","629220","0.0-1.0-788.0-0.0","0","0","54117","","169","","","75","87","","","2","87","training","adjacent","DE","4","5","O.jpg","Q.jpg","1","1","1","",""
"","feedback","","html-keyboard-response","576","630224","0.0-1.0-789.0-0.0","0","0","54117","","null","","","null","87","","","","","","","","","","","","","","","",""
"","ITI","","html-keyboard-response","577","631229","0.0-1.0-792.0","0","0","54117","","null","","","null","87","","","","","","","","","","","","","","","NaN",""
"","S1","","html-keyboard-response","578","631383","0.0-1.0-794.0","0","0","54117","","null","","","null","88","","","","","","","","","","","","","","","",""
"","ISI","","html-keyboard-response","579","633387","0.0-1.0-795.0","0","0","54117","","null","","","null","88","NaN","","","","","","","","","","","","","","",""
"","S2","","html-keyboard-response","580","633542","0.0-1.0-796.0","0","0","54117","","null","","","null","88","","NaN","","","","","","","","","","","","","",""
"","response","","html-keyboard-response","581","633887","0.0-1.0-797.0-0.0","0","0","54117","","342","","","68","88","","","2","88","training","adjacent","GF","7","6","R.jpg","L.jpg","0","0","1","",""
"","feedback","","html-keyboard-response","582","634891","0.0-1.0-798.0-0.0","0","0","54117","","null","","","null","88","","","","","","","","","","","","","","","",""
