"success","ttype","start_time","trial_type","trial_index","time_elapsed","internal_node_id","warning","missed_checkup","PID","view_history","rt","responses","repeat_instructions","key_press","index","keypress_isi","keypress_S2","block","trial_num","phase","group_type","pair_type","S1_stim","S2_stim","S1_img","S2_img","S1_chosen","S1_higher","accuracy","keypress_iti","total_bonus_tally"
"true","full_screen","d03082023hr1525","fullscreen","0","3205","0.0-0.0","0","0","10907","","","","","","","","","","","","","","","","","","","","","",""
"","instructions","","instructions","1","45640","0.0-1.0-0.0-0.0","0","0","10907","[{""page_index"":0,""viewing_time"":4387},{""page_index"":1,""viewing_time"":27444},{""page_index"":2,""viewing_time"":8484},{""page_index"":3,""viewing_time"":2112}]","42428","","","","","","","","","","","","","","","","","","","",""
"","comprehension_check","","survey-multi-choice","2","67719","0.0-1.0-0.0-1.0","0","0","10907","","22069","{""Q0"":""True"",""Q1"":""K"",""Q2"":""Only when the screen 'MAKE A CHOICE' is shown"",""Q3"":""Green mark"",""Q4"":""either D or K""}","1","","","","","","","","","","","","","","","","","",""
"","missed_instruction_checkup","","html-keyboard-response","3","70805","0.0-1.0-0.0-2.0-0.0","0","1","10907","","3078","","","32","","","","","","","","","","","","","","","","",""
"","instructions","","instructions","4","92770","0.0-1.0-0.1-0.1","0","0","10907","[{""page_index"":0,""viewing_time"":1788},{""page_index"":1,""viewing_time"":16049},{""page_index"":2,""viewing_time"":2134},{""page_index"":3,""viewing_time"":1987}]","21959","","","","","","","","","","","","","","","","","","","",""
"","comprehension_check","","survey-multi-choice","5","105993","0.0-1.0-0.1-1.1","0","0","10907","","13209","{""Q0"":""True"",""Q1"":""K"",""Q2"":""Once the second image appears and while the screen 'MAKE A CHOICE' is shown"",""Q3"":""Green mark"",""Q4"":""either D or K""}","0","","","","","","","","","","","","","","","","","",""
"","start_exp","","html-keyboard-response","6","107692","0.0-1.0-1.0","0","0","10907","","1693","","","32","","","","","","","","","","","","","","","","",""
"","S1","","html-keyboard-response","7","107950","0.0-1.0-2.0","0","0","10907","","null","","","null","0","","","","","","","","","","","","","","","",""
"","ISI","","html-keyboard-response","8","108110","0.0-1.0-3.0","0","0","10907","","null","","","null","0","NaN","","","","","","","","","","","","","","",""
"","S2","","html-keyboard-response","9","108372","0.0-1.0-4.0","0","0","10907","","null","","","null","0","","NaN","","","","","","","","","","","","","",""
"","response","","html-keyboard-response","10","109349","0.0-1.0-5.0-0.0","0","0","10907","","970","","","75","0","","","1","0","training","adjacent","GF","7","6","M.jpg","O.jpg","1","0","0","",""
"","feedback","","html-keyboard-response","11","110360","0.0-1.0-6.0-0.0","0","0","10907","","null","","","null","0","","","","","","","","","","","","","","","",""
"","time_out","","html-keyboard-response","12","112372","0.0-1.0-8.0-0.0","0","0","10907","","null","","","null","0","","","","","","","","","","","","","","","",""
"","ITI","","html-keyboard-response","13","113381","0.0-1.0-9.0","0","0","10907","","null","","","null","0","","","","","","","","","","","","","","","NaN",""
"","S1","","html-keyboard-response","14","113641","0.0-1.0-11.0","0","0","10907","","null","","","null","1","","","","","","","","","","","","","","","",""
"","ISI","","html-keyboard-response","15","113800","0.0-1.0-12.0","0","0","10907","","null","","","null","1","NaN","","","","","","","","","","","","","","",""
"","S2","","html-keyboard-response","16","114061","0.0-1.0-13.0","0","0","10907","","null","","","null","1","","NaN","","","","","","","","","","","","","",""
"","response","","html-keyboard-response","17","115532","0.0-1.0-14.0-0.0","0","0","10907","","1464","","","75","1","","","1","1","training","adjacent","EF","5","6","P.jpg","O.jpg","1","1","1","",""
"","feedback","","html-keyboard-response","18","116542","0.0-1.0-15.0-0.0","0","0","10907","","null","","","null","1","","","","","","","","","","","","","","","",""
"","ITI","","html-keyboard-response","19","117550","0.0-1.0-18.0","0","0","10907","","null","","","null","1","","","","","","","","","","","","","","","NaN",""
"","S1","","html-keyboard-response","20","117811","0.0-1.0-20.0","0","0","10907","","null","","","null","2","","","","","","","","","","","","","","","",""
"","ISI","","html-keyboard-response","21","117971","0.0-1.0-21.0","0","0","10907","","null","","","null","2","NaN","","","","","","","","","","","","","","",""
"","S2","","html-keyboard-response","22","118232","0.0-1.0-22.0","0","0","10907","","null","","","null","2","","NaN","","","","","","","","","","","","","",""
"","response","","html-keyboard-response","23","118650","0.0-1.0-23.0-0.0","0","0","10907","","412","","","68","2","","","1","2","training","adjacent","FE","6","5","O.jpg","P.jpg","0","0","1","",""
"","feedback","","html-keyboard-response","24","119661","0.0-1.0-24.0-0.0","0","0","10907","","null","","","null","2","","","","","","","","","","","","","","","",""
"","ITI","","html-keyboard-response","25","120670","0.0-1.0-27.0","0","0","10907","","null","","","null","2","","","","","","","","","","","","","","","NaN",""
"","S1","","html-keyboard-response","26","120931","0.0-1.0-29.0","0","0","10907","","null","","","null","3","","","","","","","","","","","","","","","",""
"","ISI","","html-keyboard-response","27","121092","0.0-1.0-30.0","0","0","10907","","null","","","null","3","NaN","","","","","","","","","","","","","","",""
"","S2","","html-keyboard-response","28","121354","0.0-1.0-31.0","0","0","10907","","null","","","null","3","","NaN","","","","","","","","","","","","","",""
"","response","","html-keyboard-response","29","121743","0.0-1.0-32.0-0.0","0","0","10907","","384","","","68","3","","","1","3","training","adjacent","CD","3","4","N.jpg","L.jpg","0","1","0","",""
"","feedback","","html-keyboard-response","30","122754","0.0-1.0-33.0-0.0","0","0","10907","","null","","","null","3","","","","","","","","","","","","","","","",""
"","time_out","","html-keyboard-response","31","124765","0.0-1.0-35.0-0.0","0","0","10907","","null","","","null","3","","","","","","","","","","","","","","","",""
"","ITI","","html-keyboard-response","32","125775","0.0-1.0-36.0","0","0","10907","","null","","","null","3","","","","","","","","","","","","","","","NaN",""
"","S1","","html-keyboard-response","33","126035","0.0-1.0-38.0","0","0","10907","","null","","","null","4","","","","","","","","","","","","","","","",""
"","ISI","","html-keyboard-response","34","126195","0.0-1.0-39.0","0","0","10907","","null","","","null","4","NaN","","","","","","","","","","","","","","",""
"","S2","","html-keyboard-response","35","126457","0.0-1.0-40.0","0","0","10907","","null","","","null","4","","NaN","","","","","","","","","","","","","",""
"","response","","html-keyboard-response","36","126735","0.0-1.0-41.0-0.0","0","0","10907","","272","","","75","4","","","1","4","training","adjacent","AB","1","2","R.jpg","Q.jpg","1","1","1","",""
"","feedback","","html-keyboard-response","37","127742","0.0-1.0-42.0-0.0","0","0","10907","","null","","","null","4","","","","","","","","","","","","","","","",""
"","ITI","","html-keyboard-response","38","128753","0.0-1.0-45.0","0","0","10907","","null","","","null","4","","","","","","","","","","","","","","","NaN",""
"","S1","","html-keyboard-response","39","129012","0.0-1.0-47.0","0","0","10907","","null","","","null","5","","","","","","","","","","","","","","","",""
"","ISI","","html-keyboard-response","40","129171","0.0-1.0-48.0","0","0","10907","","null","","","null","5","NaN","","","","","","","","","","","","","","",""
"","S2","","html-keyboard-response","41","129433","0.0-1.0-49.0","0","0","10907","","null","","","null","5","","NaN","","","","","","","","","","","","","",""
"","response","","html-keyboard-response","42","129917","0.0-1.0-50.0-0.0","0","0","10907","","478","","","68","5","","","1","5","training","adjacent","AB","1","2","R.jpg","Q.jpg","0","1","0","",""
"","feedback","","html-keyboard-response","43","130927","0.0-1.0-51.0-0.0","0","0","10907","","null","","","null","5","","","","","","","","","","","","","","","",""
"","time_out","","html-keyboard-response","44","132936","0.0-1.0-53.0-0.0","0","0","10907","","null","","","null","5","","","","","","","","","","","","","","","",""
"","ITI","","html-keyboard-response","45","133944","0.0-1.0-54.0","0","0","10907","","null","","","null","5","","","","","","","","","","","","","","","NaN",""
"","S1","","html-keyboard-response","46","134205","0.0-1.0-56.0","0","0","10907","","null","","","null","6","","","","","","","","","","","","","","","",""
"","ISI","","html-keyboard-response","47","134365","0.0-1.0-57.0","0","0","10907","","null","","","null","6","NaN","","","","","","","","","","","","","","",""
"","S2","","html-keyboard-response","48","134626","0.0-1.0-58.0","0","0","10907","","null","","","null","6","","NaN","","","","","","","","","","","","","",""
"","response","","html-keyboard-response","49","134715","0.0-1.0-59.0-0.0","0","0","10907","","84","","","75","6","","","1","6","training","adjacent","FG","6","7","O.jpg","M.jpg","1","1","1","",""
"","feedback","","html-keyboard-response","50","135726","0.0-1.0-60.0-0.0","0","0","10907","","null","","","null","6","","","","","","","","","","","","","","","",""
"","ITI","","html-keyboard-response","51","136733","0.0-1.0-63.0","0","0","10907","","null","","","null","6","","","","","","","","","","","","","","","NaN",""
"","S1","","html-keyboard-response","52","136995","0.0-1.0-65.0","0","0","10907","","null","","","null","7","","","","","","","","","","","","","","","",""
"","ISI","","html-keyboard-response","53","137155","0.0-1.0-66.0","0","0","10907","","null","","","null","7","NaN","","","","","","","","","","","","","","",""
"","S2","","html-keyboard-response","54","137416","0.0-1.0-67.0","0","0","10907","","null","","","null","7","","NaN","","","","","","","","","","","","","",""
"","response","","html-keyboard-response","55","137915","0.0-1.0-68.0-0.0","0","0","10907","","493","","","75","7","","","1","7","training","adjacent","FE","6","5","O.jpg","P.jpg","1","0","0","",""
"","feedback","","html-keyboard-response","56","138926","0.0-1.0-69.0-0.0","0","0","10907","","null","","","null","7","","","","","","","","","","","","","","","",""
"","time_out","","html-keyboard-response","57","140937","0.0-1.0-71.0-0.0","0","0","10907","","null","","","null","7","","","","","","","","","","","","","","","",""
"","ITI","","html-keyboard-response","58","141944","0.0-1.0-72.0","0","0","10907","","null","","","null","7","","","","","","","","","","","","","","","NaN",""
"","S1","","html-keyboard-response","59","142205","0.0-1.0-74.0","0","0","10907","","null","","","null","8","","","","","","","","","","","","","","","",""
"","ISI","","html-keyboard-response","60","142368","0.0-1.0-75.0","0","0","10907","","null","","","null","8","NaN","","","","","","","","","","","","","","",""
"","S2","","html-keyboard-response","61","142627","0.0-1.0-76.0","0","0","10907","","null","","","null","8","","NaN","","","","","","","","","","","","","",""
"","response","","html-keyboard-response","62","142670","0.0-1.0-77.0-0.0","0","0","10907","","37","","","75","8","","","1","8","training","adjacent","FE","6","5","O.jpg","P.jpg","1","0","0","",""
"","feedback","","html-keyboard-response","63","143679","0.0-1.0-78.0-0.0","0","0","10907","","null","","","null","8","","","","","","","","","","","","","","","",""
"","time_out","","html-keyboard-response","64","145688","0.0-1.0-80.0-0.0","0","0","10907","","null","","","null","8","","","","","","","","","","","","","","","",""
"","ITI","","html-keyboard-response","65","146696","0.0-1.0-81.0","0","0","10907","","null","","","null","8","","","","","","","","","","","","","","","NaN",""
"","S1","","html-keyboard-response","66","146958","0.0-1.0-83.0","0","0","10907","","null","","","null","9","","","","","","","","","","","","","","","",""
"","ISI","","html-keyboard-response","67","147117","0.0-1.0-84.0","0","0","10907","","null","","","null","9","NaN","","","","","","","","","","","","","","",""
"","S2","","html-keyboard-response","68","147378","0.0-1.0-85.0","0","0","10907","","null","","","null","9","","NaN","","","","","","","","","","","","","",""
"","response","","html-keyboard-response","69","147558","0.0-1.0-86.0-0.0","0","0","10907","","175","","","75","9","","","1","9","training","adjacent","DC","4","3","L.jpg","N.jpg","1","0","0","",""
"","feedback","","html-keyboard-response","70","148569","0.0-1.0-87.0-0.0","0","0","10907","","null","","","null","9","","","","","","","","","","","","","","","",""
"","time_out","","html-keyboard-response","71","150579","0.0-1.0-89.0-0.0","0","0","10907","","null","","","null","9","","","","","","","","","","","","","","","",""
"","ITI","","html-keyboard-response","72","151587","0.0-1.0-90.0","0","0","10907","","null","","","null","9","","","","","","","","","","","","","","","NaN",""
"","S1","","html-keyboard-response","73","151848","0.0-1.0-92.0","0","0","10907","","null","","","null","10","","","","","","","","","","","","","","","",""
"","ISI","","html-keyboard-response","74","152008","0.0-1.0-93.0","0","0","10907","","null","","","null","10","NaN","","","","","","","","","","","","","","",""
"","S2","","html-keyboard-response","75","152270","0.0-1.0-94.0","0","0","10907","","null","","","null","10","","NaN","","","","","","","","","","","","","",""
"","response","","html-keyboard-response","76","152666","0.0-1.0-95.0-0.0","0","0","10907","","390","","","75","10","","","1","10","training","adjacent","ED","5","4","P.jpg","L.jpg","1","0","0","",""
"","feedback","","html-keyboard-response","77","153677","0.0-1.0-96.0-0.0","0","0","10907","","null","","","null","10","","","","","","","","","","","","","","","",""
"","time_out","","html-keyboard-response","78","155688","0.0-1.0-98.0-0.0","0","0","10907","","null","","","null","10","","","","","","","","","","","","","","","",""
"","ITI","","html-keyboard-response","79","156698","0.0-1.0-99.0","0","0","10907","","null","","","null","10","","","","","","","","","","","","","","","NaN",""
"","S1","","html-keyboard-response","80","156958","0.0-1.0-101.0","0","0","10907","","null","","","null","11","","","","","","","","","","","","","","","",""
"","ISI","","html-keyboard-response","81","157116","0.0-1.0-102.0","0","0","10907","","null","","","null","11","NaN","","","","","","","","","","","","","","",""
"","S2","","html-keyboard-response","82","157377","0.0-1.0-103.0","0","0","10907","","null","","","null","11","","NaN","","","","","","","","","","","","","",""
"","response","","html-keyboard-response","83","157484","0.0-1.0-104.0-0.0","0","0","10907","","102","","","68","11","","","1","11","training","adjacent","BA","2","1","Q.jpg","R.jpg","0","0","1","",""
"","feedback","","html-keyboard-response","84","158494","0.0-1.0-105.0-0.0","0","0","10907","","null","","","null","11","","","","","","","","","","","","","","","",""
"","ITI","","html-keyboard-response","85","159501","0.0-1.0-108.0","0","0","10907","","null","","","null","11","","","","","","","","","","","","","","","NaN",""
"","S1","","html-keyboard-response","86","159761","0.0-1.0-110.0","0","0","10907","","null","","","null","12","","","","","","","","","","","","","","","",""
"","ISI","","html-keyboard-response","87","159921","0.0-1.0-111.0","0","0","10907","","null","","","null","12","NaN","","","","","","","","","","","","","","",""
"","S2","","html-keyboard-response","88","160178","0.0-1.0-112.0","0","0","10907","","null","","","null","12","","NaN","","","","","","","","","","","","","",""
"","response","","html-keyboard-response","89","160664","0.0-1.0-113.0-0.0","0","0","10907","","481","","","68","12","","","1","12","training","adjacent","FG","6","7","O.jpg","M.jpg","0","1","0","",""
"","feedback","","html-keyboard-response","90","161671","0.0-1.0-114.0-0.0","0","0","10907","","null","","","null","12","","","","","","","","","","","","","","","",""
"","time_out","","html-keyboard-response","91","163681","0.0-1.0-116.0-0.0","0","0","10907","","null","","","null","12","","","","","","","","","","","","","","","",""
"","ITI","","html-keyboard-response","92","164690","0.0-1.0-117.0","0","0","10907","","null","","","null","12","","","","","","","","","","","","","","","NaN",""
"","S1","","html-keyboard-response","93","164950","0.0-1.0-119.0","0","0","10907","","null","","","null","13","","","","","","","","","","","","","","","",""
"","ISI","","html-keyboard-response","94","165110","0.0-1.0-120.0","0","0","10907","","null","","","null","13","NaN","","","","","","","","","","","","","","",""
"","S2","","html-keyboard-response","95","165368","0.0-1.0-121.0","0","0","10907","","null","","","null","13","","NaN","","","","","","","","","","","","","",""
"","response","","html-keyboard-response","96","165433","0.0-1.0-122.0-0.0","0","0","10907","","60","","","75","13","","","1","13","training","adjacent","DE","4","5","L.jpg","P.jpg","1","1","1","",""
"","feedback","","html-keyboard-response","97","166444","0.0-1.0-123.0-0.0","0","0","10907","","null","","","null","13","","","","","","","","","","","","","","","",""
"","ITI","","html-keyboard-response","98","167453","0.0-1.0-126.0","0","0","10907","","null","","","null","13","","","","","","","","","","","","","","","NaN",""
"","S1","","html-keyboard-response","99","167710","0.0-1.0-128.0","0","0","10907","","null","","","null","14","","","","","","","","","","","","","","","",""
"","ISI","","html-keyboard-response","100","167870","0.0-1.0-129.0","0","0","10907","","null","","","null","14","NaN","","","","","","","","","","","","","","",""
"","S2","","html-keyboard-response","101","168129","0.0-1.0-130.0","0","0","10907","","null","","","null","14","","NaN","","","","","","","","","","","","","",""
"","response","","html-keyboard-response","102","168847","0.0-1.0-131.0-0.0","0","0","10907","","713","","","68","14","","","1","14","training","adjacent","GF","7","6","M.jpg","O.jpg","0","0","1","",""
"","feedback","","html-keyboard-response","103","169858","0.0-1.0-132.0-0.0","0","0","10907","","null","","","null","14","","","","","","","","","","","","","","","",""
"","ITI","","html-keyboard-response","104","170866","0.0-1.0-135.0","0","0","10907","","null","","","null","14","","","","","","","","","","","","","","","NaN",""
"","S1","","html-keyboard-response","105","171126","0.0-1.0-137.0","0","0","10907","","null","","","null","15","","","","","","","","","","","","","","","",""
"","ISI","","html-keyboard-response","106","171281","0.0-1.0-138.0","0","0","10907","","null","","","null","15","NaN","","","","","","","","","","","","","","",""
"","S2","","html-keyboard-response","107","171539","0.0-1.0-139.0","0","0","10907","","null","","","null","15","","NaN","","","","","","","","","","","","","",""
"","response","","html-keyboard-response","108","172749","0.0-1.0-140.0-0.0","0","0","10907","","1206","","","68","15","","","1","15","training","adjacent","CB","3","2","N.jpg","Q.jpg","0","0","1","",""
"","feedback","","html-keyboard-response","109","173756","0.0-1.0-141.0-0.0","0","0","10907","","null","","","null","15","","","","","","","","","","","","","","","",""
"","ITI","","html-keyboard-response","110","174766","0.0-1.0-144.0","0","0","10907","","null","","","null","15","","","","","","","","","","","","","","","NaN",""
"","S1","","html-keyboard-response","111","175026","0.0-1.0-146.0","0","0","10907","","null","","","null","16","","","","","","","","","","","","","","","",""
"","ISI","","html-keyboard-response","112","175186","0.0-1.0-147.0","0","0","10907","","null","","","null","16","NaN","","","","","","","","","","","","","","",""
"","S2","","html-keyboard-response","113","175447","0.0-1.0-148.0","0","0","10907","","null","","","null","16","","NaN","","","","","","","","","","","","","",""
"","response","","html-keyboard-response","114","175975","0.0-1.0-149.0-0.0","0","0","10907","","524","","","75","16","","","1","16","training","adjacent","BA","2","1","Q.jpg","R.jpg","1","0","0","",""
"","feedback","","html-keyboard-response","115","176984","0.0-1.0-150.0-0.0","0","0","10907","","null","","","null","16","","","","","","","","","","","","","","","",""
"","time_out","","html-keyboard-response","116","178994","0.0-1.0-152.0-0.0","0","0","10907","","null","","","null","16","","","","","","","","","","","","","","","",""
"","ITI","","html-keyboard-response","117","180001","0.0-1.0-153.0","0","0","10907","","null","","","null","16","","","","","","","","","","","","","","","NaN",""
"","S1","","html-keyboard-response","118","180261","0.0-1.0-155.0","0","0","10907","","null","","","null","17","","","","","","","","","","","","","","","",""
"","ISI","","html-keyboard-response","119","180417","0.0-1.0-156.0","0","0","10907","","null","","","null","17","NaN","","","","","","","","","","","","","","",""
"","S2","","html-keyboard-response","120","180674","0.0-1.0-157.0","0","0","10907","","null","","","null","17","","NaN","","","","","","","","","","","","","",""
"","response","","html-keyboard-response","121","181202","0.0-1.0-158.0-0.0","0","0","10907","","523","","","75","17","","","1","17","training","adjacent","FG","6","7","O.jpg","M.jpg","1","1","1","",""
"","feedback","","html-keyboard-response","122","182210","0.0-1.0-159.0-0.0","0","0","10907","","null","","","null","17","","","","","","","","","","","","","","","",""
"","ITI","","html-keyboard-response","123","183219","0.0-1.0-162.0","0","0","10907","","null","","","null","17","","","","","","","","","","","","","","","NaN",""
"","S1","","html-keyboard-response","124","183479","0.0-1.0-164.0","0","0","10907","","null","","","null","18","","","","","","","","","","","","","","","",""
"","ISI","","html-keyboard-response","125","183639","0.0-1.0-165.0","0","0","10907","","null","","","null","18","NaN","","","","","","","","","","","","","","",""
"","S2","","html-keyboard-response","126","183899","0.0-1.0-166.0","0","0","10907","","null","","","null","18","","NaN","","","","","","","","","","","","","",""
"","response","","html-keyboard-response","127","184597","0.0-1.0-167.0-0.0","0","0","10907","","693","","","68","18","","","1","18","training","adjacent","ED","5","4","P.jpg","L.jpg","0","0","1","",""
"","feedback","","html-keyboard-response","128","185607","0.0-1.0-168.0-0.0","0","0","10907","","null","","","null","18","","","","","","","","","","","","","","","",""
"","ITI","","html-keyboard-response","129","186616","0.0-1.0-171.0","0","0","10907","","null","","","null","18","","","","","","","","","","","","","","","NaN",""
"","S1","","html-keyboard-response","130","186876","0.0-1.0-173.0","0","0","10907","","null","","","null","19","","","","","","","","","","","","","","","",""
"","ISI","","html-keyboard-response","131","187032","0.0-1.0-174.0","0","0","10907","","null","","","null","19","NaN","","","","","","","","","","","","","","",""
"","S2","","html-keyboard-response","132","187292","0.0-1.0-175.0","0","0","10907","","null","","","null","19","","NaN","","","","","","","","","","","","","",""
"","response","","html-keyboard-response","133","188395","0.0-1.0-176.0-0.0","0","0","10907","","1097","","","75","19","","","1","19","training","adjacent","CB","3","2","N.jpg","Q.jpg","1","0","0","",""
"","feedback","","html-keyboard-response","134","189405","0.0-1.0-177.0-0.0","0","0","10907","","null","","","null","19","","","","","","","","","","","","","","","",""
"","time_out","","html-keyboard-response","135","191415","0.0-1.0-179.0-0.0","0","0","10907","","null","","","null","19","","","","","","","","","","","","","","","",""
"","ITI","","html-keyboard-response","136","192423","0.0-1.0-180.0","0","0","10907","","null","","","null","19","","","","","","","","","","","","","","","NaN",""
"","S1","","html-keyboard-response","137","192683","0.0-1.0-182.0","0","0","10907","","null","","","null","20","","","","","","","","","","","","","","","",""
"","ISI","","html-keyboard-response","138","192843","0.0-1.0-183.0","0","0","10907","","null","","","null","20","NaN","","","","","","","","","","","","","","",""
"","S2","","html-keyboard-response","139","193100","0.0-1.0-184.0","0","0","10907","","null","","","null","20","","NaN","","","","","","","","","","","","","",""
"","response","","html-keyboard-response","140","193618","0.0-1.0-185.0-0.0","0","0","10907","","513","","","75","20","","","1","20","training","adjacent","AB","1","2","R.jpg","Q.jpg","1","1","1","",""
"","feedback","","html-keyboard-response","141","194626","0.0-1.0-186.0-0.0","0","0","10907","","null","","","null","20","","","","","","","","","","","","","","","",""
"","ITI","","html-keyboard-response","142","195634","0.0-1.0-189.0","0","0","10907","","null","","","null","20","","","","","","","","","","","","","","","NaN",""
"","S1","","html-keyboard-response","143","195895","0.0-1.0-191.0","0","0","10907","","null","","","null","21","","","","","","","","","","","","","","","",""
"","ISI","","html-keyboard-response","144","196055","0.0-1.0-192.0","0","0","10907","","null","","","null","21","NaN","","","","","","","","","","","","","","",""
"","S2","","html-keyboard-response","145","196315","0.0-1.0-193.0","0","0","10907","","null","","","null","21","","NaN","","","","","","","","","","","","","",""
"","response","","html-keyboard-response","146","196851","0.0-1.0-194.0-0.0","0","0","10907","","530","","","68","21","","","1","21","training","adjacent","ED","5","4","P.jpg","L.jpg","0","0","1","",""
"","feedback","","html-keyboard-response","147","197858","0.0-1.0-195.0-0.0","0","0","10907","","null","","","null","21","","","","","","","","","","","","","","","",""
"","ITI","","html-keyboard-response","148","198866","0.0-1.0-198.0","0","0","10907","","null","","","null","21","","","","","","","","","","","","","","","NaN",""
"","S1","","html-keyboard-response","149","199126","0.0-1.0-200.0","0","0","10907","","null","","","null","22","","","","","","","","","","","","","","","",""
"","ISI","","html-keyboard-response","150","199283","0.0-1.0-201.0","0","0","10907","","null","","","null","22","NaN","","","","","","","","","","","","","","",""
"","S2","","html-keyboard-response","151","199542","0.0-1.0-202.0","0","0","10907","","null","","","null","22","","NaN","","","","","","","","","","","","","",""
"","response","","html-keyboard-response","152","200277","0.0-1.0-203.0-0.0","0","0","10907","","730","","","75","22","","","1","22","training","adjacent","CB","3","2","N.jpg","Q.jpg","1","0","0","",""
"","feedback","","html-keyboard-response","153","201287","0.0-1.0-204.0-0.0","0","0","10907","","null","","","null","22","","","","","","","","","","","","","","","",""
"","time_out","","html-keyboard-response","154","203298","0.0-1.0-206.0-0.0","0","0","10907","","null","","","null","22","","","","","","","","","","","","","","","",""
"","ITI","","html-keyboard-response","155","204306","0.0-1.0-207.0","0","0","10907","","null","","","null","22","","","","","","","","","","","","","","","NaN",""
"","S1","","html-keyboard-response","156","204565","0.0-1.0-209.0","0","0","10907","","null","","","null","23","","","","","","","","","","","","","","","",""
"","ISI","","html-keyboard-response","157","204721","0.0-1.0-210.0","0","0","10907","","null","","","null","23","NaN","","","","","","","","","","","","","","",""
"","S2","","html-keyboard-response","158","204982","0.0-1.0-211.0","0","0","10907","","null","","","null","23","","NaN","","","","","","","","","","","","","",""
"","response","","html-keyboard-response","159","205311","0.0-1.0-212.0-0.0","0","0","10907","","324","","","68","23","","","1","23","training","adjacent","DC","4","3","L.jpg","N.jpg","0","0","1","",""
"","feedback","","html-keyboard-response","160","206323","0.0-1.0-213.0-0.0","0","0","10907","","null","","","null","23","","","","","","","","","","","","","","","",""
"","ITI","","html-keyboard-response","161","207329","0.0-1.0-216.0","0","0","10907","","null","","","null","23","","","","","","","","","","","","","","","NaN",""
"","S1","","html-keyboard-response","162","207585","0.0-1.0-218.0","0","0","10907","","null","","","null","24","","","","","","","","","","","","","","","",""
"","ISI","","html-keyboard-response","163","207745","0.0-1.0-219.0","0","0","10907","","null","","","null","24","NaN","","","","","","","","","","","","","","",""
"","S2","","html-keyboard-response","164","208002","0.0-1.0-220.0","0","0","10907","","null","","","null","24","","NaN","","","","","","","","","","","","","",""
"","response","","html-keyboard-response","165","209076","0.0-1.0-221.0-0.0","0","0","10907","","1069","","","75","24","","","1","24","training","adjacent","FG","6","7","O.jpg","M.jpg","1","1","1","",""
"","feedback","","html-keyboard-response","166","210086","0.0-1.0-222.0-0.0","0","0","10907","","null","","","null","24","","","","","","","","","","","","","","","",""
"","ITI","","html-keyboard-response","167","211094","0.0-1.0-225.0","0","0","10907","","null","","","null","24","","","","","","","","","","","","","","","NaN",""
"","S1","","html-keyboard-response","168","211352","0.0-1.0-227.0","0","0","10907","","null","","","null","25","","","","","","","","","","","","","","","",""
"","ISI","","html-keyboard-response","169","211511","0.0-1.0-228.0","0","0","10907","","null","","","null","25","NaN","","","","","","","","","","","","","","",""
"","S2","","html-keyboard-response","170","211771","0.0-1.0-229.0","0","0","10907","","null","","","null","25","","NaN","","","","","","","","","","","","","",""
"","response","","html-keyboard-response","171","212530","0.0-1.0-230.0-0.0","0","0","10907","","754","","","75","25","","","1","25","training","adjacent","DC","4","3","L.jpg","N.jpg","1","0","0","",""
"","feedback","","html-keyboard-response","172","213539","0.0-1.0-231.0-0.0","0","0","10907","","null","","","null","25","","","","","","","","","","","","","","","",""
"","time_out","","html-keyboard-response","173","215548","0.0-1.0-233.0-0.0","0","0","10907","","null","","","null","25","","","","","","","","","","","","","","","",""
"","ITI","","html-keyboard-response","174","216556","0.0-1.0-234.0","0","0","10907","","null","","","null","25","","","","","","","","","","","","","","","NaN",""
"","S1","","html-keyboard-response","175","216816","0.0-1.0-236.0","0","0","10907","","null","","","null","26","","","","","","","","","","","","","","","",""
"","ISI","","html-keyboard-response","176","216976","0.0-1.0-237.0","0","0","10907","","null","","","null","26","NaN","","","","","","","","","","","","","","",""
"","S2","","html-keyboard-response","177","217233","0.0-1.0-238.0","0","0","10907","","null","","","null","26","","NaN","","","","","","","","","","","","","",""
"","response","","html-keyboard-response","178","217535","0.0-1.0-239.0-0.0","0","0","10907","","297","","","75","26","","","1","26","training","adjacent","DC","4","3","L.jpg","N.jpg","1","0","0","",""
"","feedback","","html-keyboard-response","179","218545","0.0-1.0-240.0-0.0","0","0","10907","","null","","","null","26","","","","","","","","","","","","","","","",""
"","time_out","","html-keyboard-response","180","220555","0.0-1.0-242.0-0.0","0","0","10907","","null","","","null","26","","","","","","","","","","","","","","","",""
"","ITI","","html-keyboard-response","181","221565","0.0-1.0-243.0","0","0","10907","","null","","","null","26","","","","","","","","","","","","","","","NaN",""
"","S1","","html-keyboard-response","182","221825","0.0-1.0-245.0","0","0","10907","","null","","","null","27","","","","","","","","","","","","","","","",""
"","ISI","","html-keyboard-response","183","221985","0.0-1.0-246.0","0","0","10907","","null","","","null","27","NaN","","","","","","","","","","","","","","",""
"","S2","","html-keyboard-response","184","222245","0.0-1.0-247.0","0","0","10907","","null","","","null","27","","NaN","","","","","","","","","","","","","",""
"","response","","html-keyboard-response","185","222383","0.0-1.0-248.0-0.0","0","0","10907","","133","","","68","27","","","1","27","training","adjacent","DE","4","5","L.jpg","P.jpg","0","1","0","",""
"","feedback","","html-keyboard-response","186","223393","0.0-1.0-249.0-0.0","0","0","10907","","null","","","null","27","","","","","","","","","","","","","","","",""
"","time_out","","html-keyboard-response","187","225403","0.0-1.0-251.0-0.0","0","0","10907","","null","","","null","27","","","","","","","","","","","","","","","",""
"","ITI","","html-keyboard-response","188","226411","0.0-1.0-252.0","0","0","10907","","null","","","null","27","","","","","","","","","","","","","","","NaN",""
"","S1","","html-keyboard-response","189","226670","0.0-1.0-254.0","0","0","10907","","null","","","null","28","","","","","","","","","","","","","","","",""
"","ISI","","html-keyboard-response","190","226827","0.0-1.0-255.0","0","0","10907","","null","","","null","28","NaN","","","","","","","","","","","","","","",""
"","S2","","html-keyboard-response","191","227083","0.0-1.0-256.0","0","0","10907","","null","","","null","28","","NaN","","","","","","","","","","","","","",""
"","response","","html-keyboard-response","192","227115","0.0-1.0-257.0-0.0","0","0","10907","","27","","","75","28","","","1","28","training","adjacent","EF","5","6","P.jpg","O.jpg","1","1","1","",""
"","feedback","","html-keyboard-response","193","228125","0.0-1.0-258.0-0.0","0","0","10907","","null","","","null","28","","","","","","","","","","","","","","","",""
"","ITI","","html-keyboard-response","194","229135","0.0-1.0-261.0","0","0","10907","","null","","","null","28","","","","","","","","","","","","","","","NaN",""
"","S1","","html-keyboard-response","195","229394","0.0-1.0-263.0","0","0","10907","","null","","","null","29","","","","","","","","","","","","","","","",""
"","ISI","","html-keyboard-response","196","229553","0.0-1.0-264.0","0","0","10907","","null","","","null","29","NaN","","","","","","","","","","","","","","",""
"","S2","","html-keyboard-response","197","229814","0.0-1.0-265.0","0","0","10907","","null","","","null","29","","NaN","","","","","","","","","","","","","",""
"","response","","html-keyboard-response","198","230154","0.0-1.0-266.0-0.0","0","0","10907","","336","","","68","29","","","1","29","training","adjacent","ED","5","4","P.jpg","L.jpg","0","0","1","",""
"","feedback","","html-keyboard-response","199","231164","0.0-1.0-267.0-0.0","0","0","10907","","null","","","null","29","","","","","","","","","","","","","","","",""
"","ITI","","html-keyboard-response","200","232171","0.0-1.0-270.0","0","0","10907","","null","","","null","29","","","","","","","","","","","","","","","NaN",""
"","S1","","html-keyboard-response","201","232427","0.0-1.0-272.0","0","0","10907","","null","","","null","30","","","","","","","","","","","","","","","",""
"","ISI","","html-keyboard-response","202","232586","0.0-1.0-273.0","0","0","10907","","null","","","null","30","NaN","","","","","","","","","","","","","","",""
"","S2","","html-keyboard-response","203","232843","0.0-1.0-274.0","0","0","10907","","null","","","null","30","","NaN","","","","","","","","","","","","","",""
"","response","","html-keyboard-response","204","233147","0.0-1.0-275.0-0.0","0","0","10907","","299","","","75","30","","","1","30","training","adjacent","BC","2","3","Q.jpg","N.jpg","1","1","1","",""
"","feedback","","html-keyboard-response","205","234155","0.0-1.0-276.0-0.0","0","0","10907","","null","","","null","30","","","","","","","","","","","","","","","",""
"","ITI","","html-keyboard-response","206","235163","0.0-1.0-279.0","0","0","10907","","null","","","null","30","","","","","","","","","","","","","","","NaN",""
"","S1","","html-keyboard-response","207","235420","0.0-1.0-281.0","0","0","10907","","null","","","null","31","","","","","","","","","","","","","","","",""
"","ISI","","html-keyboard-response","208","235580","0.0-1.0-282.0","0","0","10907","","null","","","null","31","NaN","","","","","","","","","","","","","","",""
"","S2","","html-keyboard-response","209","235840","0.0-1.0-283.0","0","0","10907","","null","","","null","31","","NaN","","","","","","","","","","","","","",""
"","response","","html-keyboard-response","210","236338","0.0-1.0-284.0-0.0","0","0","10907","","493","","","68","31","","","1","31","training","adjacent","EF","5","6","P.jpg","O.jpg","0","1","0","",""
"","feedback","","html-keyboard-response","211","237344","0.0-1.0-285.0-0.0","0","0","10907","","null","","","null","31","","","","","","","","","","","","","","","",""
"","time_out","","html-keyboard-response","212","239351","0.0-1.0-287.0-0.0","0","0","10907","","null","","","null","31","","","","","","","","","","","","","","","",""
"","ITI","","html-keyboard-response","213","240358","0.0-1.0-288.0","0","0","10907","","null","","","null","31","","","","","","","","","","","","","","","NaN",""
"","S1","","html-keyboard-response","214","240618","0.0-1.0-290.0","0","0","10907","","null","","","null","32","","","","","","","","","","","","","","","",""
"","ISI","","html-keyboard-response","215","240774","0.0-1.0-291.0","0","0","10907","","null","","","null","32","NaN","","","","","","","","","","","","","","",""
"","S2","","html-keyboard-response","216","241035","0.0-1.0-292.0","0","0","10907","","null","","","null","32","","NaN","","","","","","","","","","","","","",""
"","response","","html-keyboard-response","217","241460","0.0-1.0-293.0-0.0","0","0","10907","","420","","","68","32","","","1","32","training","adjacent","GF","7","6","M.jpg","O.jpg","0","0","1","",""
"","feedback","","html-keyboard-response","218","242470","0.0-1.0-294.0-0.0","0","0","10907","","null","","","null","32","","","","","","","","","","","","","","","",""
"","ITI","","html-keyboard-response","219","243478","0.0-1.0-297.0","0","0","10907","","null","","","null","32","","","","","","","","","","","","","","","NaN",""
"","S1","","html-keyboard-response","220","243738","0.0-1.0-299.0","0","0","10907","","null","","","null","33","","","","","","","","","","","","","","","",""
"","ISI","","html-keyboard-response","221","243894","0.0-1.0-300.0","0","0","10907","","null","","","null","33","NaN","","","","","","","","","","","","","","",""
"","S2","","html-keyboard-response","222","244154","0.0-1.0-301.0","0","0","10907","","null","","","null","33","","NaN","","","","","","","","","","","","","",""
"","response","","html-keyboard-response","223","244513","0.0-1.0-302.0-0.0","0","0","10907","","353","","","75","33","","","1","33","training","adjacent","EF","5","6","P.jpg","O.jpg","1","1","1","",""
"","feedback","","html-keyboard-response","224","245521","0.0-1.0-303.0-0.0","0","0","10907","","null","","","null","33","","","","","","","","","","","","","","","",""
"","ITI","","html-keyboard-response","225","246528","0.0-1.0-306.0","0","0","10907","","null","","","null","33","","","","","","","","","","","","","","","NaN",""
"","S1","","html-keyboard-response","226","246791","0.0-1.0-308.0","0","0","10907","","null","","","null","34","","","","","","","","","","","","","","","",""
"","ISI","","html-keyboard-response","227","246950","0.0-1.0-309.0","0","0","10907","","null","","","null","34","NaN","","","","","","","","","","","","","","",""
"","S2","","html-keyboard-response","228","247211","0.0-1.0-310.0","0","0","10907","","null","","","null","34","","NaN","","","","","","","","","","","","","",""
"","response","","html-keyboard-response","229","247725","0.0-1.0-311.0-0.0","0","0","10907","","509","","","75","34","","","1","34","training","adjacent","BC","2","3","Q.jpg","N.jpg","1","1","1","",""
"","feedback","","html-keyboard-response","230","248731","0.0-1.0-312.0-0.0","0","0","10907","","null","","","null","34","","","","","","","","","","","","","","","",""
"","ITI","","html-keyboard-response","231","249739","0.0-1.0-315.0","0","0","10907","","null","","","null","34","","","","","","","","","","","","","","","NaN",""
"","S1","","html-keyboard-response","232","249995","0.0-1.0-317.0","0","0","10907","","null","","","null","35","","","","","","","","","","","","","","","",""
"","ISI","","html-keyboard-response","233","250155","0.0-1.0-318.0","0","0","10907","","null","","","null","35","NaN","","","","","","","","","","","","","","",""
"","S2","","html-keyboard-response","234","250411","0.0-1.0-319.0","0","0","10907","","null","","","null","35","","NaN","","","","","","","","","","","","","",""
"","response","","html-keyboard-response","235","250739","0.0-1.0-320.0-0.0","0","0","10907","","323","","","68","35","","","1","35","training","adjacent","BC","2","3","Q.jpg","N.jpg","0","1","0","",""
"","feedback","","html-keyboard-response","236","251750","0.0-1.0-321.0-0.0","0","0","10907","","null","","","null","35","","","","","","","","","","","","","","","",""
"","time_out","","html-keyboard-response","237","253760","0.0-1.0-323.0-0.0","0","0","10907","","null","","","null","35","","","","","","","","","","","","","","","",""
"","ITI","","html-keyboard-response","238","254769","0.0-1.0-324.0","0","0","10907","","null","","","null","35","","","","","","","","","","","","","","","NaN",""
"","S1","","html-keyboard-response","239","255029","0.0-1.0-326.0","0","0","10907","","null","","","null","36","","","","","","","","","","","","","","","",""
"","ISI","","html-keyboard-response","240","255184","0.0-1.0-327.0","0","0","10907","","null","","","null","36","NaN","","","","","","","","","","","","","","",""
"","S2","","html-keyboard-response","241","255441","0.0-1.0-328.0","0","0","10907","","null","","","null","36","","NaN","","","","","","","","","","","","","",""
"","response","","html-keyboard-response","242","255517","0.0-1.0-329.0-0.0","0","0","10907","","71","","","68","36","","","1","36","training","adjacent","FE","6","5","O.jpg","P.jpg","0","0","1","",""
"","feedback","","html-keyboard-response","243","256528","0.0-1.0-330.0-0.0","0","0","10907","","null","","","null","36","","","","","","","","","","","","","","","",""
"","ITI","","html-keyboard-response","244","257534","0.0-1.0-333.0","0","0","10907","","null","","","null","36","","","","","","","","","","","","","","","NaN",""
"","S1","","html-keyboard-response","245","257788","0.0-1.0-335.0","0","0","10907","","null","","","null","37","","","","","","","","","","","","","","","",""
"","ISI","","html-keyboard-response","246","257947","0.0-1.0-336.0","0","0","10907","","null","","","null","37","NaN","","","","","","","","","","","","","","",""
"","S2","","html-keyboard-response","247","258208","0.0-1.0-337.0","0","0","10907","","null","","","null","37","","NaN","","","","","","","","","","","","","",""
"","response","","html-keyboard-response","248","258732","0.0-1.0-338.0-0.0","0","0","10907","","519","","","75","37","","","1","37","training","adjacent","DE","4","5","L.jpg","P.jpg","1","1","1","",""
"","feedback","","html-keyboard-response","249","259740","0.0-1.0-339.0-0.0","0","0","10907","","null","","","null","37","","","","","","","","","","","","","","","",""
"","ITI","","html-keyboard-response","250","260750","0.0-1.0-342.0","0","0","10907","","null","","","null","37","","","","","","","","","","","","","","","NaN",""
"","S1","","html-keyboard-response","251","261010","0.0-1.0-344.0","0","0","10907","","null","","","null","38","","","","","","","","","","","","","","","",""
"","ISI","","html-keyboard-response","252","261169","0.0-1.0-345.0","0","0","10907","","null","","","null","38","NaN","","","","","","","","","","","","","","",""
"","S2","","html-keyboard-response","253","261429","0.0-1.0-346.0","0","0","10907","","null","","","null","38","","NaN","","","","","","","","","","","","","",""
"","response","","html-keyboard-response","254","261936","0.0-1.0-347.0-0.0","0","0","10907","","502","","","75","38","","","1","38","training","adjacent","CD","3","4","N.jpg","L.jpg","1","1","1","",""
"","feedback","","html-keyboard-response","255","262944","0.0-1.0-348.0-0.0","0","0","10907","","null","","","null","38","","","","","","","","","","","","","","","",""
"","ITI","","html-keyboard-response","256","263952","0.0-1.0-351.0","0","0","10907","","null","","","null","38","","","","","","","","","","","","","","","NaN",""
"","S1","","html-keyboard-response","257","264213","0.0-1.0-353.0","0","0","10907","","null","","","null","39","","","","","","","","","","","","","","","",""
"","ISI","","html-keyboard-response","258","264373","0.0-1.0-354.0","0","0","10907","","null","","","null","39","NaN","","","","","","","","","","","","","","",""
"","S2","","html-keyboard-response","259","264630","0.0-1.0-355.0","0","0","10907","","null","","","null","39","","NaN","","","","","","","","","","","","","",""
"","response","","html-keyboard-response","260","265059","0.0-1.0-356.0-0.0","0","0","10907","","424","","","68","39","","","1","39","training","adjacent","CD","3","4","N.jpg","L.jpg","0","1","0","",""
"","feedback","","html-keyboard-response","261","266069","0.0-1.0-357.0-0.0","0","0","10907","","null","","","null","39","","","","","","","","","","","","","","","",""
"","time_out","","html-keyboard-response","262","268079","0.0-1.0-359.0-0.0","0","0","10907","","null","","","null","39","","","","","","","","","","","","","","","",""
"","ITI","","html-keyboard-response","263","269089","0.0-1.0-360.0","0","0","10907","","null","","","null","39","","","","","","","","","","","","","","","NaN",""
"","S1","","html-keyboard-response","264","269350","0.0-1.0-362.0","0","0","10907","","null","","","null","40","","","","","","","","","","","","","","","",""
"","ISI","","html-keyboard-response","265","269509","0.0-1.0-363.0","0","0","10907","","null","","","null","40","NaN","","","","","","","","","","","","","","",""
"","S2","","html-keyboard-response","266","269769","0.0-1.0-364.0","0","0","10907","","null","","","null","40","","NaN","","","","","","","","","","","","","",""
"","response","","html-keyboard-response","267","270061","0.0-1.0-365.0-0.0","0","0","10907","","286","","","75","40","","","1","40","training","adjacent","CB","3","2","N.jpg","Q.jpg","1","0","0","",""
"","feedback","","html-keyboard-response","268","271069","0.0-1.0-366.0-0.0","0","0","10907","","null","","","null","40","","","","","","","","","","","","","","","",""
"","time_out","","html-keyboard-response","269","273078","0.0-1.0-368.0-0.0","0","0","10907","","null","","","null","40","","","","","","","","","","","","","","","",""
"","ITI","","html-keyboard-response","270","274085","0.0-1.0-369.0","0","0","10907","","null","","","null","40","","","","","","","","","","","","","","","NaN",""
"","S1","","html-keyboard-response","271","274342","0.0-1.0-371.0","0","0","10907","","null","","","null","41","","","","","","","","","","","","","","","",""
"","ISI","","html-keyboard-response","272","274502","0.0-1.0-372.0","0","0","10907","","null","","","null","41","NaN","","","","","","","","","","","","","","",""
"","S2","","html-keyboard-response","273","274762","0.0-1.0-373.0","0","0","10907","","null","","","null","41","","NaN","","","","","","","","","","","","","",""
"","response","","html-keyboard-response","274","275760","0.0-1.0-374.0-0.0","0","0","10907","","993","","","68","41","","","1","41","training","adjacent","BA","2","1","Q.jpg","R.jpg","0","0","1","",""
"","feedback","","html-keyboard-response","275","276769","0.0-1.0-375.0-0.0","0","0","10907","","null","","","null","41","","","","","","","","","","","","","","","",""
"","ITI","","html-keyboard-response","276","277776","0.0-1.0-378.0","0","0","10907","","null","","","null","41","","","","","","","","","","","","","","","NaN",""
"","S1","","html-keyboard-response","277","278037","0.0-1.0-380.0","0","0","10907","","null","","","null","42","","","","","","","","","","","","","","","",""
"","ISI","","html-keyboard-response","278","278197","0.0-1.0-381.0","0","0","10907","","null","","","null","42","NaN","","","","","","","","","","","","","","",""
"","S2","","html-keyboard-response","279","278458","0.0-1.0-382.0","0","0","10907","","null","","","null","42","","NaN","","","","","","","","","","","","","",""
"","response","","html-keyboard-response","280","278770","0.0-1.0-383.0-0.0","0","0","10907","","307","","","75","42","","","1","42","training","adjacent","DE","4","5","L.jpg","P.jpg","1","1","1","",""
"","feedback","","html-keyboard-response","281","279778","0.0-1.0-384.0-0.0","0","0","10907","","null","","","null","42","","","","","","","","","","","","","","","",""
"","ITI","","html-keyboard-response","282","280785","0.0-1.0-387.0","0","0","10907","","null","","","null","42","","","","","","","","","","","","","","","NaN",""
"","S1","","html-keyboard-response","283","281045","0.0-1.0-389.0","0","0","10907","","null","","","null","43","","","","","","","","","","","","","","","",""
"","ISI","","html-keyboard-response","284","281205","0.0-1.0-390.0","0","0","10907","","null","","","null","43","NaN","","","","","","","","","","","","","","",""
"","S2","","html-keyboard-response","285","281462","0.0-1.0-391.0","0","0","10907","","null","","","null","43","","NaN","","","","","","","","","","","","","",""
"","response","","html-keyboard-response","286","282210","0.0-1.0-392.0-0.0","0","0","10907","","742","","","68","43","","","1","43","training","adjacent","AB","1","2","R.jpg","Q.jpg","0","1","0","",""
"","feedback","","html-keyboard-response","287","283217","0.0-1.0-393.0-0.0","0","0","10907","","null","","","null","43","","","","","","","","","","","","","","","",""
"","time_out","","html-keyboard-response","288","285227","0.0-1.0-395.0-0.0","0","0","10907","","null","","","null","43","","","","","","","","","","","","","","","",""
"","ITI","","html-keyboard-response","289","286235","0.0-1.0-396.0","0","0","10907","","null","","","null","43","","","","","","","","","","","","","","","NaN",""
"","S1","","html-keyboard-response","290","286496","0.0-1.0-398.0","0","0","10907","","null","","","null","44","","","","","","","","","","","","","","","",""
"","ISI","","html-keyboard-response","291","286655","0.0-1.0-399.0","0","0","10907","","null","","","null","44","NaN","","","","","","","","","","","","","","",""
"","S2","","html-keyboard-response","292","286914","0.0-1.0-400.0","0","0","10907","","null","","","null","44","","NaN","","","","","","","","","","","","","",""
"","response","","html-keyboard-response","293","287521","0.0-1.0-401.0-0.0","0","0","10907","","602","","","68","44","","","1","44","training","adjacent","BA","2","1","Q.jpg","R.jpg","0","0","1","",""
"","feedback","","html-keyboard-response","294","288529","0.0-1.0-402.0-0.0","0","0","10907","","null","","","null","44","","","","","","","","","","","","","","","",""
"","ITI","","html-keyboard-response","295","289538","0.0-1.0-405.0","0","0","10907","","null","","","null","44","","","","","","","","","","","","","","","NaN",""
"","S1","","html-keyboard-response","296","289797","0.0-1.0-407.0","0","0","10907","","null","","","null","45","","","","","","","","","","","","","","","",""
"","ISI","","html-keyboard-response","297","289958","0.0-1.0-408.0","0","0","10907","","null","","","null","45","NaN","","","","","","","","","","","","","","",""
"","S2","","html-keyboard-response","298","290218","0.0-1.0-409.0","0","0","10907","","null","","","null","45","","NaN","","","","","","","","","","","","","",""
"","response","","html-keyboard-response","299","291978","0.0-1.0-410.0-0.0","0","0","10907","","null","","","null","45","","","1","45","training","adjacent","BC","2","3","Q.jpg","N.jpg","NaN","1","0","",""
"","too_slow_prompt","","html-keyboard-response","300","292989","0.0-1.0-412.0-0.0","1","0","10907","","null","","","null","","","","","","","","","","","","","","","","",""
"","time_out","","html-keyboard-response","301","294997","0.0-1.0-413.0-0.0","0","0","10907","","null","","","null","45","","","","","","","","","","","","","","","",""
"","ITI","","html-keyboard-response","302","296004","0.0-1.0-414.0","0","0","10907","","null","","","null","45","","","","","","","","","","","","","","","NaN",""
"","S1","","html-keyboard-response","303","296263","0.0-1.0-416.0","0","0","10907","","null","","","null","46","","","","","","","","","","","","","","","",""
"","ISI","","html-keyboard-response","304","296421","0.0-1.0-417.0","0","0","10907","","null","","","null","46","NaN","","","","","","","","","","","","","","",""
"","S2","","html-keyboard-response","305","296682","0.0-1.0-418.0","0","0","10907","","null","","","null","46","","NaN","","","","","","","","","","","","","",""
"","response","","html-keyboard-response","306","296967","0.0-1.0-419.0-0.0","0","0","10907","","280","","","75","46","","","1","46","training","adjacent","CD","3","4","N.jpg","L.jpg","1","1","1","",""
"","feedback","","html-keyboard-response","307","297977","0.0-1.0-420.0-0.0","0","0","10907","","null","","","null","46","","","","","","","","","","","","","","","",""
"","ITI","","html-keyboard-response","308","298989","0.0-1.0-423.0","0","0","10907","","null","","","null","46","","","","","","","","","","","","","","","NaN",""
"","S1","","html-keyboard-response","309","299249","0.0-1.0-425.0","0","0","10907","","null","","","null","47","","","","","","","","","","","","","","","",""
"","ISI","","html-keyboard-response","310","299407","0.0-1.0-426.0","0","0","10907","","null","","","null","47","NaN","","","","","","","","","","","","","","",""
"","S2","","html-keyboard-response","311","299664","0.0-1.0-427.0","0","0","10907","","null","","","null","47","","NaN","","","","","","","","","","","","","",""
"","response","","html-keyboard-response","312","299906","0.0-1.0-428.0-0.0","0","0","10907","","236","","","68","47","","","1","47","training","adjacent","GF","7","6","M.jpg","O.jpg","0","0","1","",""
"","feedback","","html-keyboard-response","313","300912","0.0-1.0-429.0-0.0","0","0","10907","","null","","","null","47","","","","","","","","","","","","","","","",""
"","ITI","","html-keyboard-response","314","301920","0.0-1.0-432.0","0","0","10907","","null","","","null","47","","","","","","","","","","","","","","","NaN",""
"","block_over","","html-keyboard-response","315","308179","0.0-1.0-433.0-0.0","0","0","10907","","6253","","","32","47","","","","","","","","","","","","","","","",""
"","S1","","html-keyboard-response","316","308438","0.0-1.0-434.0","0","0","10907","","null","","","null","48","","","","","","","","","","","","","","","",""
"","ISI","","html-keyboard-response","317","308597","0.0-1.0-435.0","0","0","10907","","null","","","null","48","NaN","","","","","","","","","","","","","","",""
"","S2","","html-keyboard-response","318","308858","0.0-1.0-436.0","0","0","10907","","null","","","null","48","","NaN","","","","","","","","","","","","","",""
"","response","","html-keyboard-response","319","309294","0.0-1.0-437.0-0.0","0","0","10907","","431","","","75","48","","","2","48","training","adjacent","DC","4","3","L.jpg","N.jpg","1","0","0","",""
"","feedback","","html-keyboard-response","320","310304","0.0-1.0-438.0-0.0","0","0","10907","","null","","","null","48","","","","","","","","","","","","","","","",""
"","time_out","","html-keyboard-response","321","312315","0.0-1.0-440.0-0.0","0","0","10907","","null","","","null","48","","","","","","","","","","","","","","","",""
"","ITI","","html-keyboard-response","322","313324","0.0-1.0-441.0","0","0","10907","","null","","","null","48","","","","","","","","","","","","","","","NaN",""
"","S1","","html-keyboard-response","323","313584","0.0-1.0-443.0","0","0","10907","","null","","","null","49","","","","","","","","","","","","","","","",""
"","ISI","","html-keyboard-response","324","313744","0.0-1.0-444.0","0","0","10907","","null","","","null","49","NaN","","","","","","","","","","","","","","",""
"","S2","","html-keyboard-response","325","314004","0.0-1.0-445.0","0","0","10907","","null","","","null","49","","NaN","","","","","","","","","","","","","",""
"","response","","html-keyboard-response","326","314074","0.0-1.0-446.0-0.0","0","0","10907","","66","","","75","49","","","2","49","training","adjacent","FG","6","7","O.jpg","M.jpg","1","1","1","",""
"","feedback","","html-keyboard-response","327","315082","0.0-1.0-447.0-0.0","0","0","10907","","null","","","null","49","","","","","","","","","","","","","","","",""
"","ITI","","html-keyboard-response","328","316091","0.0-1.0-450.0","0","0","10907","","null","","","null","49","","","","","","","","","","","","","","","NaN",""
"","S1","","html-keyboard-response","329","316349","0.0-1.0-452.0","0","0","10907","","null","","","null","50","","","","","","","","","","","","","","","",""
"","ISI","","html-keyboard-response","330","316507","0.0-1.0-453.0","0","0","10907","","null","","","null","50","NaN","","","","","","","","","","","","","","",""
"","S2","","html-keyboard-response","331","316767","0.0-1.0-454.0","0","0","10907","","null","","","null","50","","NaN","","","","","","","","","","","","","",""
"","response","","html-keyboard-response","332","317247","0.0-1.0-455.0-0.0","0","0","10907","","475","","","68","50","","","2","50","training","adjacent","AB","1","2","R.jpg","Q.jpg","0","1","0","",""
"","feedback","","html-keyboard-response","333","318255","0.0-1.0-456.0-0.0","0","0","10907","","null","","","null","50","","","","","","","","","","","","","","","",""
"","time_out","","html-keyboard-response","334","320262","0.0-1.0-458.0-0.0","0","0","10907","","null","","","null","50","","","","","","","","","","","","","","","",""
"","ITI","","html-keyboard-response","335","321269","0.0-1.0-459.0","0","0","10907","","null","","","null","50","","","","","","","","","","","","","","","NaN",""
"","S1","","html-keyboard-response","336","321528","0.0-1.0-461.0","0","0","10907","","null","","","null","51","","","","","","","","","","","","","","","",""
"","ISI","","html-keyboard-response","337","321688","0.0-1.0-462.0","0","0","10907","","null","","","null","51","NaN","","","","","","","","","","","","","","",""
"","S2","","html-keyboard-response","338","321736","0.0-1.0-463.0","0","0","10907","","43","","","75","51","","k","2","51","training","adjacent","CB","3","2","N.jpg","Q.jpg","1","0","0","",""
"","feedback","","html-keyboard-response","339","322746","0.0-1.0-465.0-0.0","0","0","10907","","null","","","null","51","","","","","","","","","","","","","","","",""
"","time_out","","html-keyboard-response","340","324756","0.0-1.0-467.0-0.0","0","0","10907","","null","","","null","51","","","","","","","","","","","","","","","",""
"","ITI","","html-keyboard-response","341","325765","0.0-1.0-468.0","0","0","10907","","null","","","null","51","","","","","","","","","","","","","","","NaN",""
"","S1","","html-keyboard-response","342","326021","0.0-1.0-470.0","0","0","10907","","null","","","null","52","","","","","","","","","","","","","","","",""
"","ISI","","html-keyboard-response","343","326182","0.0-1.0-471.0","0","0","10907","","null","","","null","52","NaN","","","","","","","","","","","","","","",""
"","S2","","html-keyboard-response","344","326442","0.0-1.0-472.0","0","0","10907","","null","","","null","52","","NaN","","","","","","","","","","","","","",""
"","response","","html-keyboard-response","345","326734","0.0-1.0-473.0-0.0","0","0","10907","","287","","","75","52","","","2","52","training","adjacent","BA","2","1","Q.jpg","R.jpg","1","0","0","",""
"","feedback","","html-keyboard-response","346","327743","0.0-1.0-474.0-0.0","0","0","10907","","null","","","null","52","","","","","","","","","","","","","","","",""
"","time_out","","html-keyboard-response","347","329754","0.0-1.0-476.0-0.0","0","0","10907","","null","","","null","52","","","","","","","","","","","","","","","",""
"","ITI","","html-keyboard-response","348","330763","0.0-1.0-477.0","0","0","10907","","null","","","null","52","","","","","","","","","","","","","","","NaN",""
"","S1","","html-keyboard-response","349","331024","0.0-1.0-479.0","0","0","10907","","null","","","null","53","","","","","","","","","","","","","","","",""
"","ISI","","html-keyboard-response","350","331183","0.0-1.0-480.0","0","0","10907","","null","","","null","53","NaN","","","","","","","","","","","","","","",""
"","S2","","html-keyboard-response","351","331444","0.0-1.0-481.0","0","0","10907","","null","","","null","53","","NaN","","","","","","","","","","","","","",""
"","response","","html-keyboard-response","352","331840","0.0-1.0-482.0-0.0","0","0","10907","","391","","","75","53","","","2","53","training","adjacent","GF","7","6","M.jpg","O.jpg","1","0","0","",""
"","feedback","","html-keyboard-response","353","332848","0.0-1.0-483.0-0.0","0","0","10907","","null","","","null","53","","","","","","","","","","","","","","","",""
"","time_out","","html-keyboard-response","354","334858","0.0-1.0-485.0-0.0","0","0","10907","","null","","","null","53","","","","","","","","","","","","","","","",""
"","ITI","","html-keyboard-response","355","335868","0.0-1.0-486.0","0","0","10907","","null","","","null","53","","","","","","","","","","","","","","","NaN",""
"","S1","","html-keyboard-response","356","336127","0.0-1.0-488.0","0","0","10907","","null","","","null","54","","","","","","","","","","","","","","","",""
"","ISI","","html-keyboard-response","357","336288","0.0-1.0-489.0","0","0","10907","","null","","","null","54","NaN","","","","","","","","","","","","","","",""
"","S2","","html-keyboard-response","358","336548","0.0-1.0-490.0","0","0","10907","","null","","","null","54","","NaN","","","","","","","","","","","","","",""
"","response","","html-keyboard-response","359","336791","0.0-1.0-491.0-0.0","0","0","10907","","237","","","68","54","","","2","54","training","adjacent","GF","7","6","M.jpg","O.jpg","0","0","1","",""
"","feedback","","html-keyboard-response","360","337801","0.0-1.0-492.0-0.0","0","0","10907","","null","","","null","54","","","","","","","","","","","","","","","",""
"","ITI","","html-keyboard-response","361","338810","0.0-1.0-495.0","0","0","10907","","null","","","null","54","","","","","","","","","","","","","","","NaN",""
"","S1","","html-keyboard-response","362","339070","0.0-1.0-497.0","0","0","10907","","null","","","null","55","","","","","","","","","","","","","","","",""
"","ISI","","html-keyboard-response","363","339230","0.0-1.0-498.0","0","0","10907","","null","","","null","55","NaN","","","","","","","","","","","","","","",""
"","S2","","html-keyboard-response","364","339489","0.0-1.0-499.0","0","0","10907","","null","","","null","55","","NaN","","","","","","","","","","","","","",""
"","response","","html-keyboard-response","365","339563","0.0-1.0-500.0-0.0","0","0","10907","","69","","","75","55","","","2","55","training","adjacent","EF","5","6","P.jpg","O.jpg","1","1","1","",""
"","feedback","","html-keyboard-response","366","340571","0.0-1.0-501.0-0.0","0","0","10907","","null","","","null","55","","","","","","","","","","","","","","","",""
"","ITI","","html-keyboard-response","367","341578","0.0-1.0-504.0","0","0","10907","","null","","","null","55","","","","","","","","","","","","","","","NaN",""
"","S1","","html-keyboard-response","368","341838","0.0-1.0-506.0","0","0","10907","","null","","","null","56","","","","","","","","","","","","","","","",""
"","ISI","","html-keyboard-response","369","341998","0.0-1.0-507.0","0","0","10907","","null","","","null","56","NaN","","","","","","","","","","","","","","",""
"","S2","","html-keyboard-response","370","342255","0.0-1.0-508.0","0","0","10907","","null","","","null","56","","NaN","","","","","","","","","","","","","",""
"","response","","html-keyboard-response","371","342492","0.0-1.0-509.0-0.0","0","0","10907","","232","","","75","56","","","2","56","training","adjacent","AB","1","2","R.jpg","Q.jpg","1","1","1","",""
"","feedback","","html-keyboard-response","372","343504","0.0-1.0-510.0-0.0","0","0","10907","","null","","","null","56","","","","","","","","","","","","","","","",""
"","ITI","","html-keyboard-response","373","344513","0.0-1.0-513.0","0","0","10907","","null","","","null","56","","","","","","","","","","","","","","","NaN",""
"","S1","","html-keyboard-response","374","344774","0.0-1.0-515.0","0","0","10907","","null","","","null","57","","","","","","","","","","","","","","","",""
"","ISI","","html-keyboard-response","375","344933","0.0-1.0-516.0","0","0","10907","","null","","","null","57","NaN","","","","","","","","","","","","","","",""
"","S2","","html-keyboard-response","376","345192","0.0-1.0-517.0","0","0","10907","","null","","","null","57","","NaN","","","","","","","","","","","","","",""
"","response","","html-keyboard-response","377","345301","0.0-1.0-518.0-0.0","0","0","10907","","103","","","75","57","","","2","57","training","adjacent","FG","6","7","O.jpg","M.jpg","1","1","1","",""
"","feedback","","html-keyboard-response","378","346308","0.0-1.0-519.0-0.0","0","0","10907","","null","","","null","57","","","","","","","","","","","","","","","",""
"","ITI","","html-keyboard-response","379","347317","0.0-1.0-522.0","0","0","10907","","null","","","null","57","","","","","","","","","","","","","","","NaN",""
"","S1","","html-keyboard-response","380","347577","0.0-1.0-524.0","0","0","10907","","null","","","null","58","","","","","","","","","","","","","","","",""
"","ISI","","html-keyboard-response","381","347737","0.0-1.0-525.0","0","0","10907","","null","","","null","58","NaN","","","","","","","","","","","","","","",""
"","S2","","html-keyboard-response","382","347993","0.0-1.0-526.0","0","0","10907","","null","","","null","58","","NaN","","","","","","","","","","","","","",""
"","response","","html-keyboard-response","383","348333","0.0-1.0-527.0-0.0","0","0","10907","","335","","","68","58","","","2","58","training","adjacent","GF","7","6","M.jpg","O.jpg","0","0","1","",""
"","feedback","","html-keyboard-response","384","349343","0.0-1.0-528.0-0.0","0","0","10907","","null","","","null","58","","","","","","","","","","","","","","","",""
"","ITI","","html-keyboard-response","385","350351","0.0-1.0-531.0","0","0","10907","","null","","","null","58","","","","","","","","","","","","","","","NaN",""
"","S1","","html-keyboard-response","386","350612","0.0-1.0-533.0","0","0","10907","","null","","","null","59","","","","","","","","","","","","","","","",""
"","ISI","","html-keyboard-response","387","350771","0.0-1.0-534.0","0","0","10907","","null","","","null","59","NaN","","","","","","","","","","","","","","",""
"","S2","","html-keyboard-response","388","351028","0.0-1.0-535.0","0","0","10907","","null","","","null","59","","NaN","","","","","","","","","","","","","",""
"","response","","html-keyboard-response","389","351372","0.0-1.0-536.0-0.0","0","0","10907","","339","","","75","59","","","2","59","training","adjacent","GF","7","6","M.jpg","O.jpg","1","0","0","",""
"","feedback","","html-keyboard-response","390","352383","0.0-1.0-537.0-0.0","0","0","10907","","null","","","null","59","","","","","","","","","","","","","","","",""
"","time_out","","html-keyboard-response","391","354393","0.0-1.0-539.0-0.0","0","0","10907","","null","","","null","59","","","","","","","","","","","","","","","",""
"","ITI","","html-keyboard-response","392","355400","0.0-1.0-540.0","0","0","10907","","null","","","null","59","","","","","","","","","","","","","","","NaN",""
"","S1","","html-keyboard-response","393","355656","0.0-1.0-542.0","0","0","10907","","null","","","null","60","","","","","","","","","","","","","","","",""
"","ISI","","html-keyboard-response","394","355809","0.0-1.0-543.0","0","0","10907","","null","","","null","60","NaN","","","","","","","","","","","","","","",""
"","S2","","html-keyboard-response","395","356069","0.0-1.0-544.0","0","0","10907","","null","","","null","60","","NaN","","","","","","","","","","","","","",""
"","response","","html-keyboard-response","396","356403","0.0-1.0-545.0-0.0","0","0","10907","","329","","","68","60","","","2","60","training","adjacent","CD","3","4","N.jpg","L.jpg","0","1","0","",""
"","feedback","","html-keyboard-response","397","357413","0.0-1.0-546.0-0.0","0","0","10907","","null","","","null","60","","","","","","","","","","","","","","","",""
"","time_out","","html-keyboard-response","398","359424","0.0-1.0-548.0-0.0","0","0","10907","","null","","","null","60","","","","","","","","","","","","","","","",""
"","ITI","","html-keyboard-response","399","360432","0.0-1.0-549.0","0","0","10907","","null","","","null","60","","","","","","","","","","","","","","","NaN",""
"","S1","","html-keyboard-response","400","360692","0.0-1.0-551.0","0","0","10907","","null","","","null","61","","","","","","","","","","","","","","","",""
"","ISI","","html-keyboard-response","401","360852","0.0-1.0-552.0","0","0","10907","","null","","","null","61","NaN","","","","","","","","","","","","","","",""
"","S2","","html-keyboard-response","402","361013","0.0-1.0-553.0","0","0","10907","","155","","","75","61","","k","2","61","training","adjacent","FE","6","5","O.jpg","P.jpg","1","0","0","",""
"","feedback","","html-keyboard-response","403","362020","0.0-1.0-555.0-0.0","0","0","10907","","null","","","null","61","","","","","","","","","","","","","","","",""
"","time_out","","html-keyboard-response","404","364031","0.0-1.0-557.0-0.0","0","0","10907","","null","","","null","61","","","","","","","","","","","","","","","",""
"","ITI","","html-keyboard-response","405","365040","0.0-1.0-558.0","0","0","10907","","null","","","null","61","","","","","","","","","","","","","","","NaN",""
"","S1","","html-keyboard-response","406","365300","0.0-1.0-560.0","0","0","10907","","null","","","null","62","","","","","","","","","","","","","","","",""
"","ISI","","html-keyboard-response","407","365459","0.0-1.0-561.0","0","0","10907","","null","","","null","62","NaN","","","","","","","","","","","","","","",""
"","S2","","html-keyboard-response","408","365717","0.0-1.0-562.0","0","0","10907","","null","","","null","62","","NaN","","","","","","","","","","","","","",""
"","response","","html-keyboard-response","409","366088","0.0-1.0-563.0-0.0","0","0","10907","","365","","","68","62","","","2","62","training","adjacent","BC","2","3","Q.jpg","N.jpg","0","1","0","",""
"","feedback","","html-keyboard-response","410","367098","0.0-1.0-564.0-0.0","0","0","10907","","null","","","null","62","","","","","","","","","","","","","","","",""
"","time_out","","html-keyboard-response","411","369108","0.0-1.0-566.0-0.0","0","0","10907","","null","","","null","62","","","","","","","","","","","","","","","",""
"","ITI","","html-keyboard-response","412","370116","0.0-1.0-567.0","0","0","10907","","null","","","null","62","","","","","","","","","","","","","","","NaN",""
"","S1","","html-keyboard-response","413","370373","0.0-1.0-569.0","0","0","10907","","null","","","null","63","","","","","","","","","","","","","","","",""
"","ISI","","html-keyboard-response","414","370532","0.0-1.0-570.0","0","0","10907","","null","","","null","63","NaN","","","","","","","","","","","","","","",""
"","S2","","html-keyboard-response","415","370793","0.0-1.0-571.0","0","0","10907","","null","","","null","63","","NaN","","","","","","","","","","","","","",""
"","response","","html-keyboard-response","416","371300","0.0-1.0-572.0-0.0","0","0","10907","","502","","","68","63","","","2","63","training","adjacent","DC","4","3","L.jpg","N.jpg","0","0","1","",""
"","feedback","","html-keyboard-response","417","372309","0.0-1.0-573.0-0.0","0","0","10907","","null","","","null","63","","","","","","","","","","","","","","","",""
"","ITI","","html-keyboard-response","418","373318","0.0-1.0-576.0","0","0","10907","","null","","","null","63","","","","","","","","","","","","","","","NaN",""
"","S1","","html-keyboard-response","419","373578","0.0-1.0-578.0","0","0","10907","","null","","","null","64","","","","","","","","","","","","","","","",""
"","ISI","","html-keyboard-response","420","373738","0.0-1.0-579.0","0","0","10907","","null","","","null","64","NaN","","","","","","","","","","","","","","",""
"","S2","","html-keyboard-response","421","373998","0.0-1.0-580.0","0","0","10907","","null","","","null","64","","NaN","","","","","","","","","","","","","",""
"","response","","html-keyboard-response","422","374645","0.0-1.0-581.0-0.0","0","0","10907","","641","","","75","64","","","2","64","training","adjacent","FE","6","5","O.jpg","P.jpg","1","0","0","",""
"","feedback","","html-keyboard-response","423","375653","0.0-1.0-582.0-0.0","0","0","10907","","null","","","null","64","","","","","","","","","","","","","","","",""
"","time_out","","html-keyboard-response","424","377660","0.0-1.0-584.0-0.0","0","0","10907","","null","","","null","64","","","","","","","","","","","","","","","",""
"","ITI","","html-keyboard-response","425","378666","0.0-1.0-585.0","0","0","10907","","null","","","null","64","","","","","","","","","","","","","","","NaN",""
"","S1","","html-keyboard-response","426","378927","0.0-1.0-587.0","0","0","10907","","null","","","null","65","","","","","","","","","","","","","","","",""
"","ISI","","html-keyboard-response","427","379088","0.0-1.0-588.0","0","0","10907","","null","","","null","65","NaN","","","","","","","","","","","","","","",""
"","S2","","html-keyboard-response","428","379348","0.0-1.0-589.0","0","0","10907","","null","","","null","65","","NaN","","","","","","","","","","","","","",""
"","response","","html-keyboard-response","429","379953","0.0-1.0-590.0-0.0","0","0","10907","","599","","","68","65","","","2","65","training","adjacent","FE","6","5","O.jpg","P.jpg","0","0","1","",""
"","feedback","","html-keyboard-response","430","380963","0.0-1.0-591.0-0.0","0","0","10907","","null","","","null","65","","","","","","","","","","","","","","","",""
"","ITI","","html-keyboard-response","431","381974","0.0-1.0-594.0","0","0","10907","","null","","","null","65","","","","","","","","","","","","","","","NaN",""
"","S1","","html-keyboard-response","432","382233","0.0-1.0-596.0","0","0","10907","","null","","","null","66","","","","","","","","","","","","","","","",""
"","ISI","","html-keyboard-response","433","382394","0.0-1.0-597.0","0","0","10907","","null","","","null","66","NaN","","","","","","","","","","","","","","",""
"","S2","","html-keyboard-response","434","382654","0.0-1.0-598.0","0","0","10907","","null","","","null","66","","NaN","","","","","","","","","","","","","",""
"","response","","html-keyboard-response","435","383912","0.0-1.0-599.0-0.0","0","0","10907","","1254","","","75","66","","","2","66","training","adjacent","CD","3","4","N.jpg","L.jpg","1","1","1","",""
"","feedback","","html-keyboard-response","436","384922","0.0-1.0-600.0-0.0","0","0","10907","","null","","","null","66","","","","","","","","","","","","","","","",""
"","ITI","","html-keyboard-response","437","385929","0.0-1.0-603.0","0","0","10907","","null","","","null","66","","","","","","","","","","","","","","","NaN",""
"","S1","","html-keyboard-response","438","386190","0.0-1.0-605.0","0","0","10907","","null","","","null","67","","","","","","","","","","","","","","","",""
"","ISI","","html-keyboard-response","439","386350","0.0-1.0-606.0","0","0","10907","","null","","","null","67","NaN","","","","","","","","","","","","","","",""
"","S2","","html-keyboard-response","440","386607","0.0-1.0-607.0","0","0","10907","","null","","","null","67","","NaN","","","","","","","","","","","","","",""
"","response","","html-keyboard-response","441","387489","0.0-1.0-608.0-0.0","0","0","10907","","876","","","75","67","","","2","67","training","adjacent","BA","2","1","Q.jpg","R.jpg","1","0","0","",""
"","feedback","","html-keyboard-response","442","388501","0.0-1.0-609.0-0.0","0","0","10907","","null","","","null","67","","","","","","","","","","","","","","","",""
"","time_out","","html-keyboard-response","443","390511","0.0-1.0-611.0-0.0","0","0","10907","","null","","","null","67","","","","","","","","","","","","","","","",""
"","ITI","","html-keyboard-response","444","391519","0.0-1.0-612.0","0","0","10907","","null","","","null","67","","","","","","","","","","","","","","","NaN",""
"","S1","","html-keyboard-response","445","391780","0.0-1.0-614.0","0","0","10907","","null","","","null","68","","","","","","","","","","","","","","","",""
"","ISI","","html-keyboard-response","446","391940","0.0-1.0-615.0","0","0","10907","","null","","","null","68","NaN","","","","","","","","","","","","","","",""
"","S2","","html-keyboard-response","447","392196","0.0-1.0-616.0","0","0","10907","","null","","","null","68","","NaN","","","","","","","","","","","","","",""
"","response","","html-keyboard-response","448","392703","0.0-1.0-617.0-0.0","0","0","10907","","501","","","75","68","","","2","68","training","adjacent","ED","5","4","P.jpg","L.jpg","1","0","0","",""
"","feedback","","html-keyboard-response","449","393713","0.0-1.0-618.0-0.0","0","0","10907","","null","","","null","68","","","","","","","","","","","","","","","",""
"","time_out","","html-keyboard-response","450","395721","0.0-1.0-620.0-0.0","0","0","10907","","null","","","null","68","","","","","","","","","","","","","","","",""
"","ITI","","html-keyboard-response","451","396729","0.0-1.0-621.0","0","0","10907","","null","","","null","68","","","","","","","","","","","","","","","NaN",""
"","S1","","html-keyboard-response","452","396990","0.0-1.0-623.0","0","0","10907","","null","","","null","69","","","","","","","","","","","","","","","",""
"","ISI","","html-keyboard-response","453","397150","0.0-1.0-624.0","0","0","10907","","null","","","null","69","NaN","","","","","","","","","","","","","","",""
"","S2","","html-keyboard-response","454","397407","0.0-1.0-625.0","0","0","10907","","null","","","null","69","","NaN","","","","","","","","","","","","","",""
"","response","","html-keyboard-response","455","397620","0.0-1.0-626.0-0.0","0","0","10907","","208","","","68","69","","","2","69","training","adjacent","FE","6","5","O.jpg","P.jpg","0","0","1","",""
"","feedback","","html-keyboard-response","456","398629","0.0-1.0-627.0-0.0","0","0","10907","","null","","","null","69","","","","","","","","","","","","","","","",""
"","ITI","","html-keyboard-response","457","399637","0.0-1.0-630.0","0","0","10907","","null","","","null","69","","","","","","","","","","","","","","","NaN",""
"","S1","","html-keyboard-response","458","399895","0.0-1.0-632.0","0","0","10907","","null","","","null","70","","","","","","","","","","","","","","","",""
"","ISI","","html-keyboard-response","459","400050","0.0-1.0-633.0","0","0","10907","","null","","","null","70","NaN","","","","","","","","","","","","","","",""
"","S2","","html-keyboard-response","460","400308","0.0-1.0-634.0","0","0","10907","","null","","","null","70","","NaN","","","","","","","","","","","","","",""
"","response","","html-keyboard-response","461","400565","0.0-1.0-635.0-0.0","0","0","10907","","251","","","75","70","","","2","70","training","adjacent","EF","5","6","P.jpg","O.jpg","1","1","1","",""
"","feedback","","html-keyboard-response","462","401572","0.0-1.0-636.0-0.0","0","0","10907","","null","","","null","70","","","","","","","","","","","","","","","",""
"","ITI","","html-keyboard-response","463","402580","0.0-1.0-639.0","0","0","10907","","null","","","null","70","","","","","","","","","","","","","","","NaN",""
"","S1","","html-keyboard-response","464","402841","0.0-1.0-641.0","0","0","10907","","null","","","null","71","","","","","","","","","","","","","","","",""
"","ISI","","html-keyboard-response","465","403001","0.0-1.0-642.0","0","0","10907","","null","","","null","71","NaN","","","","","","","","","","","","","","",""
"","S2","","html-keyboard-response","466","403263","0.0-1.0-643.0","0","0","10907","","null","","","null","71","","NaN","","","","","","","","","","","","","",""
"","response","","html-keyboard-response","467","403729","0.0-1.0-644.0-0.0","0","0","10907","","461","","","75","71","","","2","71","training","adjacent","DE","4","5","L.jpg","P.jpg","1","1","1","",""
"","feedback","","html-keyboard-response","468","404740","0.0-1.0-645.0-0.0","0","0","10907","","null","","","null","71","","","","","","","","","","","","","","","",""
"","ITI","","html-keyboard-response","469","405749","0.0-1.0-648.0","0","0","10907","","null","","","null","71","","","","","","","","","","","","","","","NaN",""
"","S1","","html-keyboard-response","470","406009","0.0-1.0-650.0","0","0","10907","","null","","","null","72","","","","","","","","","","","","","","","",""
"","ISI","","html-keyboard-response","471","406165","0.0-1.0-651.0","0","0","10907","","null","","","null","72","NaN","","","","","","","","","","","","","","",""
"","S2","","html-keyboard-response","472","406425","0.0-1.0-652.0","0","0","10907","","null","","","null","72","","NaN","","","","","","","","","","","","","",""
"","response","","html-keyboard-response","473","406616","0.0-1.0-653.0-0.0","0","0","10907","","186","","","68","72","","","2","72","training","adjacent","DC","4","3","L.jpg","N.jpg","0","0","1","",""
"","feedback","","html-keyboard-response","474","407625","0.0-1.0-654.0-0.0","0","0","10907","","null","","","null","72","","","","","","","","","","","","","","","",""
"","ITI","","html-keyboard-response","475","408633","0.0-1.0-657.0","0","0","10907","","null","","","null","72","","","","","","","","","","","","","","","NaN",""
"","S1","","html-keyboard-response","476","408894","0.0-1.0-659.0","0","0","10907","","null","","","null","73","","","","","","","","","","","","","","","",""
"","ISI","","html-keyboard-response","477","409053","0.0-1.0-660.0","0","0","10907","","null","","","null","73","NaN","","","","","","","","","","","","","","",""
"","S2","","html-keyboard-response","478","409312","0.0-1.0-661.0","0","0","10907","","null","","","null","73","","NaN","","","","","","","","","","","","","",""
"","response","","html-keyboard-response","479","409593","0.0-1.0-662.0-0.0","0","0","10907","","276","","","75","73","","","2","73","training","adjacent","BC","2","3","Q.jpg","N.jpg","1","1","1","",""
"","feedback","","html-keyboard-response","480","410601","0.0-1.0-663.0-0.0","0","0","10907","","null","","","null","73","","","","","","","","","","","","","","","",""
"","ITI","","html-keyboard-response","481","411609","0.0-1.0-666.0","0","0","10907","","null","","","null","73","","","","","","","","","","","","","","","NaN",""
"","S1","","html-keyboard-response","482","411869","0.0-1.0-668.0","0","0","10907","","null","","","null","74","","","","","","","","","","","","","","","",""
"","ISI","","html-keyboard-response","483","412029","0.0-1.0-669.0","0","0","10907","","null","","","null","74","NaN","","","","","","","","","","","","","","",""
"","S2","","html-keyboard-response","484","412286","0.0-1.0-670.0","0","0","10907","","null","","","null","74","","NaN","","","","","","","","","","","","","",""
"","response","","html-keyboard-response","485","412497","0.0-1.0-671.0-0.0","0","0","10907","","204","","","68","74","","","2","74","training","adjacent","BA","2","1","Q.jpg","R.jpg","0","0","1","",""
"","feedback","","html-keyboard-response","486","413508","0.0-1.0-672.0-0.0","0","0","10907","","null","","","null","74","","","","","","","","","","","","","","","",""
"","ITI","","html-keyboard-response","487","414517","0.0-1.0-675.0","0","0","10907","","null","","","null","74","","","","","","","","","","","","","","","NaN",""
"","S1","","html-keyboard-response","488","414777","0.0-1.0-677.0","0","0","10907","","null","","","null","75","","","","","","","","","","","","","","","",""
"","ISI","","html-keyboard-response","489","414938","0.0-1.0-678.0","0","0","10907","","null","","","null","75","NaN","","","","","","","","","","","","","","",""
"","S2","","html-keyboard-response","490","415198","0.0-1.0-679.0","0","0","10907","","null","","","null","75","","NaN","","","","","","","","","","","","","",""
"","response","","html-keyboard-response","491","415307","0.0-1.0-680.0-0.0","0","0","10907","","104","","","75","75","","","2","75","training","adjacent","CB","3","2","N.jpg","Q.jpg","1","0","0","",""
"","feedback","","html-keyboard-response","492","416317","0.0-1.0-681.0-0.0","0","0","10907","","null","","","null","75","","","","","","","","","","","","","","","",""
"","time_out","","html-keyboard-response","493","418324","0.0-1.0-683.0-0.0","0","0","10907","","null","","","null","75","","","","","","","","","","","","","","","",""
"","ITI","","html-keyboard-response","494","419332","0.0-1.0-684.0","0","0","10907","","null","","","null","75","","","","","","","","","","","","","","","NaN",""
"","S1","","html-keyboard-response","495","419592","0.0-1.0-686.0","0","0","10907","","null","","","null","76","","","","","","","","","","","","","","","",""
"","ISI","","html-keyboard-response","496","419752","0.0-1.0-687.0","0","0","10907","","83","","","68","76","d","","","","","","","","","","","","","","",""
"","S2","","html-keyboard-response","497","420014","0.0-1.0-688.0","0","0","10907","","null","","","null","76","","NaN","","","","","","","","","","","","","",""
"","response","","html-keyboard-response","498","420426","0.0-1.0-689.0-0.0","0","0","10907","","406","","","68","76","","","2","76","training","adjacent","CB","3","2","N.jpg","Q.jpg","0","0","1","",""
"","feedback","","html-keyboard-response","499","421436","0.0-1.0-690.0-0.0","0","0","10907","","null","","","null","76","","","","","","","","","","","","","","","",""
"","ITI","","html-keyboard-response","500","422447","0.0-1.0-693.0","0","0","10907","","null","","","null","76","","","","","","","","","","","","","","","NaN",""
"","S1","","html-keyboard-response","501","422708","0.0-1.0-695.0","0","0","10907","","null","","","null","77","","","","","","","","","","","","","","","",""
"","ISI","","html-keyboard-response","502","422867","0.0-1.0-696.0","0","0","10907","","null","","","null","77","NaN","","","","","","","","","","","","","","",""
"","S2","","html-keyboard-response","503","423128","0.0-1.0-697.0","0","0","10907","","null","","","null","77","","NaN","","","","","","","","","","","","","",""
"","response","","html-keyboard-response","504","423294","0.0-1.0-698.0-0.0","0","0","10907","","161","","","75","77","","","2","77","training","adjacent","DC","4","3","L.jpg","N.jpg","1","0","0","",""
"","feedback","","html-keyboard-response","505","424302","0.0-1.0-699.0-0.0","0","0","10907","","null","","","null","77","","","","","","","","","","","","","","","",""
"","time_out","","html-keyboard-response","506","426313","0.0-1.0-701.0-0.0","0","0","10907","","null","","","null","77","","","","","","","","","","","","","","","",""
"","ITI","","html-keyboard-response","507","427323","0.0-1.0-702.0","0","0","10907","","null","","","null","77","","","","","","","","","","","","","","","NaN",""
"","S1","","html-keyboard-response","508","427582","0.0-1.0-704.0","0","0","10907","","null","","","null","78","","","","","","","","","","","","","","","",""
"","ISI","","html-keyboard-response","509","427742","0.0-1.0-705.0","0","0","10907","","null","","","null","78","NaN","","","","","","","","","","","","","","",""
"","S2","","html-keyboard-response","510","427863","0.0-1.0-706.0","0","0","10907","","115","","","68","78","","d","2","78","training","adjacent","EF","5","6","P.jpg","O.jpg","0","1","0","",""
"","feedback","","html-keyboard-response","511","428872","0.0-1.0-708.0-0.0","0","0","10907","","null","","","null","78","","","","","","","","","","","","","","","",""
"","time_out","","html-keyboard-response","512","430882","0.0-1.0-710.0-0.0","0","0","10907","","null","","","null","78","","","","","","","","","","","","","","","",""
"","ITI","","html-keyboard-response","513","431891","0.0-1.0-711.0","0","0","10907","","null","","","null","78","","","","","","","","","","","","","","","NaN",""
"","S1","","html-keyboard-response","514","432152","0.0-1.0-713.0","0","0","10907","","null","","","null","79","","","","","","","","","","","","","","","",""
"","ISI","","html-keyboard-response","515","432312","0.0-1.0-714.0","0","0","10907","","null","","","null","79","NaN","","","","","","","","","","","","","","",""
"","S2","","html-keyboard-response","516","432418","0.0-1.0-715.0","0","0","10907","","101","","","75","79","","k","2","79","training","adjacent","AB","1","2","R.jpg","Q.jpg","1","1","1","",""
"","feedback","","html-keyboard-response","517","433428","0.0-1.0-717.0-0.0","0","0","10907","","null","","","null","79","","","","","","","","","","","","","","","",""
"","ITI","","html-keyboard-response","518","434436","0.0-1.0-720.0","0","0","10907","","null","","","null","79","","","","","","","","","","","","","","","NaN",""
"","S1","","html-keyboard-response","519","434696","0.0-1.0-722.0","0","0","10907","","null","","","null","80","","","","","","","","","","","","","","","",""
"","ISI","","html-keyboard-response","520","434856","0.0-1.0-723.0","0","0","10907","","null","","","null","80","NaN","","","","","","","","","","","","","","",""
"","S2","","html-keyboard-response","521","435115","0.0-1.0-724.0","0","0","10907","","null","","","null","80","","NaN","","","","","","","","","","","","","",""
"","response","","html-keyboard-response","522","435158","0.0-1.0-725.0-0.0","0","0","10907","","37","","","75","80","","","2","80","training","adjacent","CB","3","2","N.jpg","Q.jpg","1","0","0","",""
"","feedback","","html-keyboard-response","523","436168","0.0-1.0-726.0-0.0","0","0","10907","","null","","","null","80","","","","","","","","","","","","","","","",""
"","time_out","","html-keyboard-response","524","438179","0.0-1.0-728.0-0.0","0","0","10907","","null","","","null","80","","","","","","","","","","","","","","","",""
"","ITI","","html-keyboard-response","525","439188","0.0-1.0-729.0","0","0","10907","","null","","","null","80","","","","","","","","","","","","","","","NaN",""
"","S1","","html-keyboard-response","526","439448","0.0-1.0-731.0","0","0","10907","","null","","","null","81","","","","","","","","","","","","","","","",""
"","ISI","","html-keyboard-response","527","439609","0.0-1.0-732.0","0","0","10907","","null","","","null","81","NaN","","","","","","","","","","","","","","",""
"","S2","","html-keyboard-response","528","439870","0.0-1.0-733.0","0","0","10907","","null","","","null","81","","NaN","","","","","","","","","","","","","",""
"","response","","html-keyboard-response","529","439942","0.0-1.0-734.0-0.0","0","0","10907","","66","","","75","81","","","2","81","training","adjacent","FG","6","7","O.jpg","M.jpg","1","1","1","",""
"","feedback","","html-keyboard-response","530","440952","0.0-1.0-735.0-0.0","0","0","10907","","null","","","null","81","","","","","","","","","","","","","","","",""
"","ITI","","html-keyboard-response","531","441962","0.0-1.0-738.0","0","0","10907","","null","","","null","81","","","","","","","","","","","","","","","NaN",""
"","S1","","html-keyboard-response","532","442220","0.0-1.0-740.0","0","0","10907","","null","","","null","82","","","","","","","","","","","","","","","",""
"","ISI","","html-keyboard-response","533","442377","0.0-1.0-741.0","0","0","10907","","null","","","null","82","NaN","","","","","","","","","","","","","","",""
"","S2","","html-keyboard-response","534","442637","0.0-1.0-742.0","0","0","10907","","null","","","null","82","","NaN","","","","","","","","","","","","","",""
"","response","","html-keyboard-response","535","442820","0.0-1.0-743.0-0.0","0","0","10907","","177","","","75","82","","","2","82","training","adjacent","BC","2","3","Q.jpg","N.jpg","1","1","1","",""
"","feedback","","html-keyboard-response","536","443828","0.0-1.0-744.0-0.0","0","0","10907","","null","","","null","82","","","","","","","","","","","","","","","",""
"","ITI","","html-keyboard-response","537","444835","0.0-1.0-747.0","0","0","10907","","null","","","null","82","","","","","","","","","","","","","","","NaN",""
"","S1","","html-keyboard-response","538","445095","0.0-1.0-749.0","0","0","10907","","null","","","null","83","","","","","","","","","","","","","","","",""
"","ISI","","html-keyboard-response","539","445256","0.0-1.0-750.0","0","0","10907","","null","","","null","83","NaN","","","","","","","","","","","","","","",""
"","S2","","html-keyboard-response","540","445513","0.0-1.0-751.0","0","0","10907","","null","","","null","83","","NaN","","","","","","","","","","","","","",""
"","response","","html-keyboard-response","541","445669","0.0-1.0-752.0-0.0","0","0","10907","","150","","","75","83","","","2","83","training","adjacent","BA","2","1","Q.jpg","R.jpg","1","0","0","",""
"","feedback","","html-keyboard-response","542","446680","0.0-1.0-753.0-0.0","0","0","10907","","null","","","null","83","","","","","","","","","","","","","","","",""
"","time_out","","html-keyboard-response","543","448692","0.0-1.0-755.0-0.0","0","0","10907","","null","","","null","83","","","","","","","","","","","","","","","",""
"","ITI","","html-keyboard-response","544","449700","0.0-1.0-756.0","0","0","10907","","null","","","null","83","","","","","","","","","","","","","","","NaN",""
"","S1","","html-keyboard-response","545","449961","0.0-1.0-758.0","0","0","10907","","null","","","null","84","","","","","","","","","","","","","","","",""
"","ISI","","html-keyboard-response","546","450120","0.0-1.0-759.0","0","0","10907","","58","","","68","84","d","","","","","","","","","","","","","","",""
"","S2","","html-keyboard-response","547","450381","0.0-1.0-760.0","0","0","10907","","null","","","null","84","","NaN","","","","","","","","","","","","","",""
"","response","","html-keyboard-response","548","450740","0.0-1.0-761.0-0.0","0","0","10907","","354","","","68","84","","","2","84","training","adjacent","DE","4","5","L.jpg","P.jpg","0","1","0","",""
"","feedback","","html-keyboard-response","549","451748","0.0-1.0-762.0-0.0","0","0","10907","","null","","","null","84","","","","","","","","","","","","","","","",""
"","time_out","","html-keyboard-response","550","453759","0.0-1.0-764.0-0.0","0","0","10907","","null","","","null","84","","","","","","","","","","","","","","","",""
"","ITI","","html-keyboard-response","551","454767","0.0-1.0-765.0","0","0","10907","","null","","","null","84","","","","","","","","","","","","","","","NaN",""
"","S1","","html-keyboard-response","552","455028","0.0-1.0-767.0","0","0","10907","","null","","","null","85","","","","","","","","","","","","","","","",""
"","ISI","","html-keyboard-response","553","455187","0.0-1.0-768.0","0","0","10907","","null","","","null","85","NaN","","","","","","","","","","","","","","",""
"","S2","","html-keyboard-response","554","455317","0.0-1.0-769.0","0","0","10907","","124","","","75","85","","k","2","85","training","adjacent","CD","3","4","N.jpg","L.jpg","1","1","1","",""
"","feedback","","html-keyboard-response","555","456327","0.0-1.0-771.0-0.0","0","0","10907","","null","","","null","85","","","","","","","","","","","","","","","",""
"","ITI","","html-keyboard-response","556","457336","0.0-1.0-774.0","0","0","10907","","null","","","null","85","","","","","","","","","","","","","","","NaN",""
"","S1","","html-keyboard-response","557","457593","0.0-1.0-776.0","0","0","10907","","null","","","null","86","","","","","","","","","","","","","","","",""
"","ISI","","html-keyboard-response","558","457752","0.0-1.0-777.0","0","0","10907","","null","","","null","86","NaN","","","","","","","","","","","","","","",""
"","S2","","html-keyboard-response","559","458013","0.0-1.0-778.0","0","0","10907","","null","","","null","86","","NaN","","","","","","","","","","","","","",""
"","response","","html-keyboard-response","560","458016","0.0-1.0-779.0-0.0","0","0","10907","","0","","","68","86","","","2","86","training","adjacent","DE","4","5","L.jpg","P.jpg","0","1","0","",""
"","feedback","","html-keyboard-response","561","459022","0.0-1.0-780.0-0.0","0","0","10907","","null","","","null","86","","","","","","","","","","","","","","","",""
"","time_out","","html-keyboard-response","562","461033","0.0-1.0-782.0-0.0","0","0","10907","","null","","","null","86","","","","","","","","","","","","","","","",""
"","ITI","","html-keyboard-response","563","462040","0.0-1.0-783.0","0","0","10907","","null","","","null","86","","","","","","","","","","","","","","","NaN",""
"","S1","","html-keyboard-response","564","462296","0.0-1.0-785.0","0","0","10907","","null","","","null","87","","","","","","","","","","","","","","","",""
"","ISI","","html-keyboard-response","565","462456","0.0-1.0-786.0","0","0","10907","","null","","","null","87","NaN","","","","","","","","","","","","","","",""
"","S2","","html-keyboard-response","566","462717","0.0-1.0-787.0","0","0","10907","","null","","","null","87","","NaN","","","","","","","","","","","","","",""
"","response","","html-keyboard-response","567","462803","0.0-1.0-788.0-0.0","0","0","10907","","80","","","68","87","","","2","87","training","adjacent","ED","5","4","P.jpg","L.jpg","0","0","1","",""
"","feedback","","html-keyboard-response","568","463811","0.0-1.0-789.0-0.0","0","0","10907","","null","","","null","87","","","","","","","","","","","","","","","",""
"","ITI","","html-keyboard-response","569","464819","0.0-1.0-792.0","0","0","10907","","null","","","null","87","","","","","","","","","","","","","","","NaN",""
"","S1","","html-keyboard-response","570","465079","0.0-1.0-794.0","0","0","10907","","null","","","null","88","","","","","","","","","","","","","","","",""
"","ISI","","html-keyboard-response","571","465239","0.0-1.0-795.0","0","0","10907","","null","","","null","88","NaN","","","","","","","","","","","","","","",""
"","S2","","html-keyboard-response","572","465496","0.0-1.0-796.0","0","0","10907","","null","","","null","88","","NaN","","","","","","","","","","","","","",""
"","response","","html-keyboard-response","573","465789","0.0-1.0-797.0-0.0","0","0","10907","","289","","","75","88","","","2","88","training","adjacent","DE","4","5","L.jpg","P.jpg","1","1","1","",""
"","feedback","","html-keyboard-response","574","466797","0.0-1.0-798.0-0.0","0","0","10907","","null","","","null","88","","","","","","","","","","","","","","","",""
"","ITI","","html-keyboard-response","575","467806","0.0-1.0-801.0","0","0","10907","","null","","","null","88","","","","","","","","","","","","","","","NaN",""
"","S1","","html-keyboard-response","576","468063","0.0-1.0-803.0","0","0","10907","","null","","","null","89","","","","","","","","","","","","","","","",""
"","ISI","","html-keyboard-response","577","468222","0.0-1.0-804.0","0","0","10907","","null","","","null","89","NaN","","","","","","","","","","","","","","",""
"","S2","","html-keyboard-response","578","468483","0.0-1.0-805.0","0","0","10907","","null","","","null","89","","NaN","","","","","","","","","","","","","",""
"","response","","html-keyboard-response","579","468857","0.0-1.0-806.0-0.0","0","0","10907","","369","","","75","89","","","2","89","training","adjacent","BC","2","3","Q.jpg","N.jpg","1","1","1","",""
"","feedback","","html-keyboard-response","580","469866","0.0-1.0-807.0-0.0","0","0","10907","","null","","","null","89","","","","","","","","","","","","","","","",""
