"success","ttype","start_time","trial_type","trial_index","time_elapsed","internal_node_id","warning","missed_checkup","PID","view_history","rt","responses","repeat_instructions","key_press","index","keypress_isi","keypress_S2","block","trial_num","phase","group_type","pair_type","S1_stim","S2_stim","S1_img","S2_img","S1_chosen","S1_higher","accuracy","keypress_iti","total_bonus_tally"
"true","full_screen","d04162023hr0129","fullscreen","0","18836","0.0-0.0","0","0","31968","","","","","","","","","","","","","","","","","","","","","",""
"","instructions","","instructions","1","39685","0.0-1.0-0.0-0.0","0","0","31968","[{""page_index"":0,""viewing_time"":2433},{""page_index"":1,""viewing_time"":10392},{""page_index"":2,""viewing_time"":6727},{""page_index"":3,""viewing_time"":1296}]","20848","","","","","","","","","","","","","","","","","","","",""
"","comprehension_check","","survey-multi-choice","2","59479","0.0-1.0-0.0-1.0","0","0","31968","","19788","{""Q0"":""True"",""Q1"":""D"",""Q2"":""Only when the screen 'MAKE A CHOICE' is shown"",""Q3"":""Green mark"",""Q4"":""either D or K""}","1","","","","","","","","","","","","","","","","","",""
"","missed_instruction_checkup","","html-keyboard-response","3","61057","0.0-1.0-0.0-2.0-0.0","0","1","31968","","1574","","","32","","","","","","","","","","","","","","","","",""
"","instructions","","instructions","4","67501","0.0-1.0-0.1-0.1","0","0","31968","[{""page_index"":0,""viewing_time"":1602},{""page_index"":1,""viewing_time"":3216},{""page_index"":2,""viewing_time"":864},{""page_index"":3,""viewing_time"":760}]","6442","","","","","","","","","","","","","","","","","","","",""
"","comprehension_check","","survey-multi-choice","5","74534","0.0-1.0-0.1-1.1","0","0","31968","","7028","{""Q0"":""True"",""Q1"":""D"",""Q2"":""Once the second image appears and while the screen 'MAKE A CHOICE' is shown"",""Q3"":""Green mark"",""Q4"":""either D or K""}","0","","","","","","","","","","","","","","","","","",""
"","start_exp","","html-keyboard-response","6","75480","0.0-1.0-1.0","0","0","31968","","944","","","32","","","","","","","","","","","","","","","","",""
"","S1","","html-keyboard-response","7","75736","0.0-1.0-2.0","0","0","31968","","null","","","null","0","","","","","","","","","","","","","","","",""
"","ISI","","html-keyboard-response","8","76747","0.0-1.0-3.0","0","0","31968","","null","","","null","0","NaN","","","","","","","","","","","","","","",""
"","S2","","html-keyboard-response","9","77008","0.0-1.0-4.0","0","0","31968","","null","","","null","0","","NaN","","","","","","","","","","","","","",""
"","response","","html-keyboard-response","10","77368","0.0-1.0-5.0-0.0","0","0","31968","","358","","","75","0","","","1","0","training","adjacent","BA","2","1","L.jpg","P.jpg","0","0","1","",""
"","feedback","","html-keyboard-response","11","78378","0.0-1.0-6.0-0.0","0","0","31968","","null","","","null","0","","","","","","","","","","","","","","","",""
"","ITI","","html-keyboard-response","12","79383","0.0-1.0-9.0","0","0","31968","","null","","","null","0","","","","","","","","","","","","","","","NaN",""
"","S1","","html-keyboard-response","13","79644","0.0-1.0-11.0","0","0","31968","","null","","","null","1","","","","","","","","","","","","","","","",""
"","ISI","","html-keyboard-response","14","80648","0.0-1.0-12.0","0","0","31968","","null","","","null","1","NaN","","","","","","","","","","","","","","",""
"","S2","","html-keyboard-response","15","80904","0.0-1.0-13.0","0","0","31968","","null","","","null","1","","NaN","","","","","","","","","","","","","",""
"","response","","html-keyboard-response","16","81176","0.0-1.0-14.0-0.0","0","0","31968","","270","","","68","1","","","1","1","training","adjacent","GF","7","6","R.jpg","O.jpg","1","0","0","",""
"","feedback","","html-keyboard-response","17","82186","0.0-1.0-15.0-0.0","0","0","31968","","null","","","null","1","","","","","","","","","","","","","","","",""
"","time_out","","html-keyboard-response","18","84195","0.0-1.0-17.0-0.0","0","0","31968","","null","","","null","1","","","","","","","","","","","","","","","",""
"","ITI","","html-keyboard-response","19","85200","0.0-1.0-18.0","0","0","31968","","null","","","null","1","","","","","","","","","","","","","","","NaN",""
"","S1","","html-keyboard-response","20","85455","0.0-1.0-20.0","0","0","31968","","null","","","null","2","","","","","","","","","","","","","","","",""
"","ISI","","html-keyboard-response","21","86464","0.0-1.0-21.0","0","0","31968","","null","","","null","2","NaN","","","","","","","","","","","","","","",""
"","S2","","html-keyboard-response","22","86720","0.0-1.0-22.0","0","0","31968","","null","","","null","2","","NaN","","","","","","","","","","","","","",""
"","response","","html-keyboard-response","23","87049","0.0-1.0-23.0-0.0","0","0","31968","","328","","","75","2","","","1","2","training","adjacent","DC","4","3","Q.jpg","N.jpg","0","0","1","",""
"","feedback","","html-keyboard-response","24","88059","0.0-1.0-24.0-0.0","0","0","31968","","null","","","null","2","","","","","","","","","","","","","","","",""
"","ITI","","html-keyboard-response","25","89064","0.0-1.0-27.0","0","0","31968","","null","","","null","2","","","","","","","","","","","","","","","NaN",""
"","S1","","html-keyboard-response","26","89323","0.0-1.0-29.0","0","0","31968","","null","","","null","3","","","","","","","","","","","","","","","",""
"","ISI","","html-keyboard-response","27","90330","0.0-1.0-30.0","0","0","31968","","null","","","null","3","NaN","","","","","","","","","","","","","","",""
"","S2","","html-keyboard-response","28","90592","0.0-1.0-31.0","0","0","31968","","null","","","null","3","","NaN","","","","","","","","","","","","","",""
"","response","","html-keyboard-response","29","90784","0.0-1.0-32.0-0.0","0","0","31968","","190","","","75","3","","","1","3","training","adjacent","FE","6","5","O.jpg","M.jpg","0","0","1","",""
"","feedback","","html-keyboard-response","30","91795","0.0-1.0-33.0-0.0","0","0","31968","","null","","","null","3","","","","","","","","","","","","","","","",""
"","ITI","","html-keyboard-response","31","92803","0.0-1.0-36.0","0","0","31968","","null","","","null","3","","","","","","","","","","","","","","","NaN",""
"","S1","","html-keyboard-response","32","93063","0.0-1.0-38.0","0","0","31968","","null","","","null","4","","","","","","","","","","","","","","","",""
"","ISI","","html-keyboard-response","33","94074","0.0-1.0-39.0","0","0","31968","","null","","","null","4","NaN","","","","","","","","","","","","","","",""
"","S2","","html-keyboard-response","34","94335","0.0-1.0-40.0","0","0","31968","","null","","","null","4","","NaN","","","","","","","","","","","","","",""
"","response","","html-keyboard-response","35","94815","0.0-1.0-41.0-0.0","0","0","31968","","478","","","75","4","","","1","4","training","adjacent","CB","3","2","N.jpg","L.jpg","0","0","1","",""
"","feedback","","html-keyboard-response","36","95825","0.0-1.0-42.0-0.0","0","0","31968","","null","","","null","4","","","","","","","","","","","","","","","",""
"","ITI","","html-keyboard-response","37","96832","0.0-1.0-45.0","0","0","31968","","null","","","null","4","","","","","","","","","","","","","","","NaN",""
"","S1","","html-keyboard-response","38","97087","0.0-1.0-47.0","0","0","31968","","null","","","null","5","","","","","","","","","","","","","","","",""
"","ISI","","html-keyboard-response","39","98097","0.0-1.0-48.0","0","0","31968","","null","","","null","5","NaN","","","","","","","","","","","","","","",""
"","S2","","html-keyboard-response","40","98351","0.0-1.0-49.0","0","0","31968","","null","","","null","5","","NaN","","","","","","","","","","","","","",""
"","response","","html-keyboard-response","41","98551","0.0-1.0-50.0-0.0","0","0","31968","","199","","","75","5","","","1","5","training","adjacent","DC","4","3","Q.jpg","N.jpg","0","0","1","",""
"","feedback","","html-keyboard-response","42","99559","0.0-1.0-51.0-0.0","0","0","31968","","null","","","null","5","","","","","","","","","","","","","","","",""
"","ITI","","html-keyboard-response","43","100570","0.0-1.0-54.0","0","0","31968","","null","","","null","5","","","","","","","","","","","","","","","NaN",""
"","S1","","html-keyboard-response","44","100826","0.0-1.0-56.0","0","0","31968","","null","","","null","6","","","","","","","","","","","","","","","",""
"","ISI","","html-keyboard-response","45","101834","0.0-1.0-57.0","0","0","31968","","null","","","null","6","NaN","","","","","","","","","","","","","","",""
"","S2","","html-keyboard-response","46","102089","0.0-1.0-58.0","0","0","31968","","null","","","null","6","","NaN","","","","","","","","","","","","","",""
"","response","","html-keyboard-response","47","102408","0.0-1.0-59.0-0.0","0","0","31968","","317","","","75","6","","","1","6","training","adjacent","BC","2","3","L.jpg","N.jpg","0","1","0","",""
"","feedback","","html-keyboard-response","48","103415","0.0-1.0-60.0-0.0","0","0","31968","","null","","","null","6","","","","","","","","","","","","","","","",""
"","time_out","","html-keyboard-response","49","105426","0.0-1.0-62.0-0.0","0","0","31968","","null","","","null","6","","","","","","","","","","","","","","","",""
"","ITI","","html-keyboard-response","50","106433","0.0-1.0-63.0","0","0","31968","","null","","","null","6","","","","","","","","","","","","","","","NaN",""
"","S1","","html-keyboard-response","51","106688","0.0-1.0-65.0","0","0","31968","","null","","","null","7","","","","","","","","","","","","","","","",""
"","ISI","","html-keyboard-response","52","107697","0.0-1.0-66.0","0","0","31968","","null","","","null","7","NaN","","","","","","","","","","","","","","",""
"","S2","","html-keyboard-response","53","107954","0.0-1.0-67.0","0","0","31968","","null","","","null","7","","NaN","","","","","","","","","","","","","",""
"","response","","html-keyboard-response","54","108311","0.0-1.0-68.0-0.0","0","0","31968","","356","","","75","7","","","1","7","training","adjacent","CB","3","2","N.jpg","L.jpg","0","0","1","",""
"","feedback","","html-keyboard-response","55","109322","0.0-1.0-69.0-0.0","0","0","31968","","null","","","null","7","","","","","","","","","","","","","","","",""
"","ITI","","html-keyboard-response","56","110328","0.0-1.0-72.0","0","0","31968","","null","","","null","7","","","","","","","","","","","","","","","NaN",""
"","S1","","html-keyboard-response","57","110583","0.0-1.0-74.0","0","0","31968","","null","","","null","8","","","","","","","","","","","","","","","",""
"","ISI","","html-keyboard-response","58","111594","0.0-1.0-75.0","0","0","31968","","null","","","null","8","NaN","","","","","","","","","","","","","","",""
"","S2","","html-keyboard-response","59","111849","0.0-1.0-76.0","0","0","31968","","null","","","null","8","","NaN","","","","","","","","","","","","","",""
"","response","","html-keyboard-response","60","112112","0.0-1.0-77.0-0.0","0","0","31968","","260","","","68","8","","","1","8","training","adjacent","DE","4","5","Q.jpg","M.jpg","1","1","1","",""
"","feedback","","html-keyboard-response","61","113120","0.0-1.0-78.0-0.0","0","0","31968","","null","","","null","8","","","","","","","","","","","","","","","",""
"","ITI","","html-keyboard-response","62","114127","0.0-1.0-81.0","0","0","31968","","null","","","null","8","","","","","","","","","","","","","","","NaN",""
"","S1","","html-keyboard-response","63","114386","0.0-1.0-83.0","0","0","31968","","null","","","null","9","","","","","","","","","","","","","","","",""
"","ISI","","html-keyboard-response","64","115394","0.0-1.0-84.0","0","0","31968","","null","","","null","9","NaN","","","","","","","","","","","","","","",""
"","S2","","html-keyboard-response","65","115649","0.0-1.0-85.0","0","0","31968","","null","","","null","9","","NaN","","","","","","","","","","","","","",""
"","response","","html-keyboard-response","66","115888","0.0-1.0-86.0-0.0","0","0","31968","","236","","","68","9","","","1","9","training","adjacent","DE","4","5","Q.jpg","M.jpg","1","1","1","",""
"","feedback","","html-keyboard-response","67","116896","0.0-1.0-87.0-0.0","0","0","31968","","null","","","null","9","","","","","","","","","","","","","","","",""
"","ITI","","html-keyboard-response","68","117903","0.0-1.0-90.0","0","0","31968","","null","","","null","9","","","","","","","","","","","","","","","NaN",""
"","S1","","html-keyboard-response","69","118162","0.0-1.0-92.0","0","0","31968","","null","","","null","10","","","","","","","","","","","","","","","",""
"","ISI","","html-keyboard-response","70","119169","0.0-1.0-93.0","0","0","31968","","null","","","null","10","NaN","","","","","","","","","","","","","","",""
"","S2","","html-keyboard-response","71","119426","0.0-1.0-94.0","0","0","31968","","null","","","null","10","","NaN","","","","","","","","","","","","","",""
"","response","","html-keyboard-response","72","119583","0.0-1.0-95.0-0.0","0","0","31968","","156","","","75","10","","","1","10","training","adjacent","FE","6","5","O.jpg","M.jpg","0","0","1","",""
"","feedback","","html-keyboard-response","73","120591","0.0-1.0-96.0-0.0","0","0","31968","","null","","","null","10","","","","","","","","","","","","","","","",""
"","ITI","","html-keyboard-response","74","121601","0.0-1.0-99.0","0","0","31968","","null","","","null","10","","","","","","","","","","","","","","","NaN",""
"","S1","","html-keyboard-response","75","121856","0.0-1.0-101.0","0","0","31968","","null","","","null","11","","","","","","","","","","","","","","","",""
"","ISI","","html-keyboard-response","76","122866","0.0-1.0-102.0","0","0","31968","","null","","","null","11","NaN","","","","","","","","","","","","","","",""
"","S2","","html-keyboard-response","77","123128","0.0-1.0-103.0","0","0","31968","","null","","","null","11","","NaN","","","","","","","","","","","","","",""
"","response","","html-keyboard-response","78","123239","0.0-1.0-104.0-0.0","0","0","31968","","109","","","68","11","","","1","11","training","adjacent","BC","2","3","L.jpg","N.jpg","1","1","1","",""
"","feedback","","html-keyboard-response","79","124248","0.0-1.0-105.0-0.0","0","0","31968","","null","","","null","11","","","","","","","","","","","","","","","",""
"","ITI","","html-keyboard-response","80","125258","0.0-1.0-108.0","0","0","31968","","null","","","null","11","","","","","","","","","","","","","","","NaN",""
"","S1","","html-keyboard-response","81","125519","0.0-1.0-110.0","0","0","31968","","null","","","null","12","","","","","","","","","","","","","","","",""
"","ISI","","html-keyboard-response","82","126529","0.0-1.0-111.0","0","0","31968","","null","","","null","12","NaN","","","","","","","","","","","","","","",""
"","S2","","html-keyboard-response","83","126784","0.0-1.0-112.0","0","0","31968","","null","","","null","12","","NaN","","","","","","","","","","","","","",""
"","response","","html-keyboard-response","84","127152","0.0-1.0-113.0-0.0","0","0","31968","","366","","","68","12","","","1","12","training","adjacent","AB","1","2","P.jpg","L.jpg","1","1","1","",""
"","feedback","","html-keyboard-response","85","128161","0.0-1.0-114.0-0.0","0","0","31968","","null","","","null","12","","","","","","","","","","","","","","","",""
"","ITI","","html-keyboard-response","86","129171","0.0-1.0-117.0","0","0","31968","","null","","","null","12","","","","","","","","","","","","","","","NaN",""
"","S1","","html-keyboard-response","87","129431","0.0-1.0-119.0","0","0","31968","","null","","","null","13","","","","","","","","","","","","","","","",""
"","ISI","","html-keyboard-response","88","130442","0.0-1.0-120.0","0","0","31968","","null","","","null","13","NaN","","","","","","","","","","","","","","",""
"","S2","","html-keyboard-response","89","130703","0.0-1.0-121.0","0","0","31968","","null","","","null","13","","NaN","","","","","","","","","","","","","",""
"","response","","html-keyboard-response","90","131183","0.0-1.0-122.0-0.0","0","0","31968","","477","","","68","13","","","1","13","training","adjacent","ED","5","4","M.jpg","Q.jpg","1","0","0","",""
"","feedback","","html-keyboard-response","91","132191","0.0-1.0-123.0-0.0","0","0","31968","","null","","","null","13","","","","","","","","","","","","","","","",""
"","time_out","","html-keyboard-response","92","134198","0.0-1.0-125.0-0.0","0","0","31968","","null","","","null","13","","","","","","","","","","","","","","","",""
"","ITI","","html-keyboard-response","93","135208","0.0-1.0-126.0","0","0","31968","","null","","","null","13","","","","","","","","","","","","","","","NaN",""
"","S1","","html-keyboard-response","94","135463","0.0-1.0-128.0","0","0","31968","","null","","","null","14","","","","","","","","","","","","","","","",""
"","ISI","","html-keyboard-response","95","136473","0.0-1.0-129.0","0","0","31968","","null","","","null","14","NaN","","","","","","","","","","","","","","",""
"","S2","","html-keyboard-response","96","136729","0.0-1.0-130.0","0","0","31968","","null","","","null","14","","NaN","","","","","","","","","","","","","",""
"","response","","html-keyboard-response","97","136975","0.0-1.0-131.0-0.0","0","0","31968","","245","","","75","14","","","1","14","training","adjacent","FG","6","7","O.jpg","R.jpg","0","1","0","",""
"","feedback","","html-keyboard-response","98","137982","0.0-1.0-132.0-0.0","0","0","31968","","null","","","null","14","","","","","","","","","","","","","","","",""
"","time_out","","html-keyboard-response","99","139991","0.0-1.0-134.0-0.0","0","0","31968","","null","","","null","14","","","","","","","","","","","","","","","",""
"","ITI","","html-keyboard-response","100","141001","0.0-1.0-135.0","0","0","31968","","null","","","null","14","","","","","","","","","","","","","","","NaN",""
"","S1","","html-keyboard-response","101","141256","0.0-1.0-137.0","0","0","31968","","null","","","null","15","","","","","","","","","","","","","","","",""
"","ISI","","html-keyboard-response","102","142262","0.0-1.0-138.0","0","0","31968","","null","","","null","15","NaN","","","","","","","","","","","","","","",""
"","S2","","html-keyboard-response","103","142522","0.0-1.0-139.0","0","0","31968","","null","","","null","15","","NaN","","","","","","","","","","","","","",""
"","response","","html-keyboard-response","104","142582","0.0-1.0-140.0-0.0","0","0","31968","","59","","","68","15","","","1","15","training","adjacent","ED","5","4","M.jpg","Q.jpg","1","0","0","",""
"","feedback","","html-keyboard-response","105","143590","0.0-1.0-141.0-0.0","0","0","31968","","null","","","null","15","","","","","","","","","","","","","","","",""
"","time_out","","html-keyboard-response","106","145599","0.0-1.0-143.0-0.0","0","0","31968","","null","","","null","15","","","","","","","","","","","","","","","",""
"","ITI","","html-keyboard-response","107","146609","0.0-1.0-144.0","0","0","31968","","null","","","null","15","","","","","","","","","","","","","","","NaN",""
"","S1","","html-keyboard-response","108","146864","0.0-1.0-146.0","0","0","31968","","null","","","null","16","","","","","","","","","","","","","","","",""
"","ISI","","html-keyboard-response","109","147874","0.0-1.0-147.0","0","0","31968","","null","","","null","16","NaN","","","","","","","","","","","","","","",""
"","S2","","html-keyboard-response","110","148134","0.0-1.0-148.0","0","0","31968","","null","","","null","16","","NaN","","","","","","","","","","","","","",""
"","response","","html-keyboard-response","111","148326","0.0-1.0-149.0-0.0","0","0","31968","","190","","","68","16","","","1","16","training","adjacent","BA","2","1","L.jpg","P.jpg","1","0","0","",""
"","feedback","","html-keyboard-response","112","149337","0.0-1.0-150.0-0.0","0","0","31968","","null","","","null","16","","","","","","","","","","","","","","","",""
"","time_out","","html-keyboard-response","113","151345","0.0-1.0-152.0-0.0","0","0","31968","","null","","","null","16","","","","","","","","","","","","","","","",""
"","ITI","","html-keyboard-response","114","152349","0.0-1.0-153.0","0","0","31968","","null","","","null","16","","","","","","","","","","","","","","","NaN",""
"","S1","","html-keyboard-response","115","152610","0.0-1.0-155.0","0","0","31968","","null","","","null","17","","","","","","","","","","","","","","","",""
"","ISI","","html-keyboard-response","116","153614","0.0-1.0-156.0","0","0","31968","","null","","","null","17","NaN","","","","","","","","","","","","","","",""
"","S2","","html-keyboard-response","117","153870","0.0-1.0-157.0","0","0","31968","","null","","","null","17","","NaN","","","","","","","","","","","","","",""
"","response","","html-keyboard-response","118","154254","0.0-1.0-158.0-0.0","0","0","31968","","381","","","68","17","","","1","17","training","adjacent","EF","5","6","M.jpg","O.jpg","1","1","1","",""
"","feedback","","html-keyboard-response","119","155264","0.0-1.0-159.0-0.0","0","0","31968","","null","","","null","17","","","","","","","","","","","","","","","",""
"","ITI","","html-keyboard-response","120","156274","0.0-1.0-162.0","0","0","31968","","null","","","null","17","","","","","","","","","","","","","","","NaN",""
"","S1","","html-keyboard-response","121","156535","0.0-1.0-164.0","0","0","31968","","null","","","null","18","","","","","","","","","","","","","","","",""
"","ISI","","html-keyboard-response","122","157545","0.0-1.0-165.0","0","0","31968","","null","","","null","18","NaN","","","","","","","","","","","","","","",""
"","S2","","html-keyboard-response","123","157806","0.0-1.0-166.0","0","0","31968","","null","","","null","18","","NaN","","","","","","","","","","","","","",""
"","response","","html-keyboard-response","124","157942","0.0-1.0-167.0-0.0","0","0","31968","","135","","","75","18","","","1","18","training","adjacent","BA","2","1","L.jpg","P.jpg","0","0","1","",""
"","feedback","","html-keyboard-response","125","158950","0.0-1.0-168.0-0.0","0","0","31968","","null","","","null","18","","","","","","","","","","","","","","","",""
"","ITI","","html-keyboard-response","126","159960","0.0-1.0-171.0","0","0","31968","","null","","","null","18","","","","","","","","","","","","","","","NaN",""
"","S1","","html-keyboard-response","127","160214","0.0-1.0-173.0","0","0","31968","","null","","","null","19","","","","","","","","","","","","","","","",""
"","ISI","","html-keyboard-response","128","161225","0.0-1.0-174.0","0","0","31968","","null","","","null","19","NaN","","","","","","","","","","","","","","",""
"","S2","","html-keyboard-response","129","161486","0.0-1.0-175.0","0","0","31968","","null","","","null","19","","NaN","","","","","","","","","","","","","",""
"","response","","html-keyboard-response","130","161701","0.0-1.0-176.0-0.0","0","0","31968","","213","","","75","19","","","1","19","training","adjacent","ED","5","4","M.jpg","Q.jpg","0","0","1","",""
"","feedback","","html-keyboard-response","131","162711","0.0-1.0-177.0-0.0","0","0","31968","","null","","","null","19","","","","","","","","","","","","","","","",""
"","ITI","","html-keyboard-response","132","163721","0.0-1.0-180.0","0","0","31968","","null","","","null","19","","","","","","","","","","","","","","","NaN",""
"","S1","","html-keyboard-response","133","163982","0.0-1.0-182.0","0","0","31968","","null","","","null","20","","","","","","","","","","","","","","","",""
"","ISI","","html-keyboard-response","134","164993","0.0-1.0-183.0","0","0","31968","","null","","","null","20","NaN","","","","","","","","","","","","","","",""
"","S2","","html-keyboard-response","135","165254","0.0-1.0-184.0","0","0","31968","","null","","","null","20","","NaN","","","","","","","","","","","","","",""
"","response","","html-keyboard-response","136","165422","0.0-1.0-185.0-0.0","0","0","31968","","167","","","75","20","","","1","20","training","adjacent","ED","5","4","M.jpg","Q.jpg","0","0","1","",""
"","feedback","","html-keyboard-response","137","166432","0.0-1.0-186.0-0.0","0","0","31968","","null","","","null","20","","","","","","","","","","","","","","","",""
"","ITI","","html-keyboard-response","138","167437","0.0-1.0-189.0","0","0","31968","","null","","","null","20","","","","","","","","","","","","","","","NaN",""
"","S1","","html-keyboard-response","139","167698","0.0-1.0-191.0","0","0","31968","","null","","","null","21","","","","","","","","","","","","","","","",""
"","ISI","","html-keyboard-response","140","168702","0.0-1.0-192.0","0","0","31968","","null","","","null","21","NaN","","","","","","","","","","","","","","",""
"","S2","","html-keyboard-response","141","168957","0.0-1.0-193.0","0","0","31968","","null","","","null","21","","NaN","","","","","","","","","","","","","",""
"","response","","html-keyboard-response","142","169273","0.0-1.0-194.0-0.0","0","0","31968","","314","","","68","21","","","1","21","training","adjacent","CB","3","2","N.jpg","L.jpg","1","0","0","",""
"","feedback","","html-keyboard-response","143","170280","0.0-1.0-195.0-0.0","0","0","31968","","null","","","null","21","","","","","","","","","","","","","","","",""
"","time_out","","html-keyboard-response","144","172289","0.0-1.0-197.0-0.0","0","0","31968","","null","","","null","21","","","","","","","","","","","","","","","",""
"","ITI","","html-keyboard-response","145","173293","0.0-1.0-198.0","0","0","31968","","null","","","null","21","","","","","","","","","","","","","","","NaN",""
"","S1","","html-keyboard-response","146","173550","0.0-1.0-200.0","0","0","31968","","null","","","null","22","","","","","","","","","","","","","","","",""
"","ISI","","html-keyboard-response","147","174559","0.0-1.0-201.0","0","0","31968","","null","","","null","22","NaN","","","","","","","","","","","","","","",""
"","S2","","html-keyboard-response","148","174815","0.0-1.0-202.0","0","0","31968","","null","","","null","22","","NaN","","","","","","","","","","","","","",""
"","response","","html-keyboard-response","149","174894","0.0-1.0-203.0-0.0","0","0","31968","","78","","","75","22","","","1","22","training","adjacent","BA","2","1","L.jpg","P.jpg","0","0","1","",""
"","feedback","","html-keyboard-response","150","175904","0.0-1.0-204.0-0.0","0","0","31968","","null","","","null","22","","","","","","","","","","","","","","","",""
"","ITI","","html-keyboard-response","151","176909","0.0-1.0-207.0","0","0","31968","","null","","","null","22","","","","","","","","","","","","","","","NaN",""
"","S1","","html-keyboard-response","152","177165","0.0-1.0-209.0","0","0","31968","","null","","","null","23","","","","","","","","","","","","","","","",""
"","ISI","","html-keyboard-response","153","178175","0.0-1.0-210.0","0","0","31968","","null","","","null","23","NaN","","","","","","","","","","","","","","",""
"","S2","","html-keyboard-response","154","178246","0.0-1.0-211.0","0","0","31968","","69","","","68","23","","d","1","23","training","adjacent","DE","4","5","Q.jpg","M.jpg","1","1","1","",""
"","feedback","","html-keyboard-response","155","179255","0.0-1.0-213.0-0.0","0","0","31968","","null","","","null","23","","","","","","","","","","","","","","","",""
"","ITI","","html-keyboard-response","156","180265","0.0-1.0-216.0","0","0","31968","","null","","","null","23","","","","","","","","","","","","","","","NaN",""
"","S1","","html-keyboard-response","157","180525","0.0-1.0-218.0","0","0","31968","","null","","","null","24","","","","","","","","","","","","","","","",""
"","ISI","","html-keyboard-response","158","181535","0.0-1.0-219.0","0","0","31968","","null","","","null","24","NaN","","","","","","","","","","","","","","",""
"","S2","","html-keyboard-response","159","181792","0.0-1.0-220.0","0","0","31968","","null","","","null","24","","NaN","","","","","","","","","","","","","",""
"","response","","html-keyboard-response","160","182054","0.0-1.0-221.0-0.0","0","0","31968","","261","","","68","24","","","1","24","training","adjacent","BC","2","3","L.jpg","N.jpg","1","1","1","",""
"","feedback","","html-keyboard-response","161","183063","0.0-1.0-222.0-0.0","0","0","31968","","null","","","null","24","","","","","","","","","","","","","","","",""
"","ITI","","html-keyboard-response","162","184072","0.0-1.0-225.0","0","0","31968","","null","","","null","24","","","","","","","","","","","","","","","NaN",""
"","S1","","html-keyboard-response","163","184328","0.0-1.0-227.0","0","0","31968","","null","","","null","25","","","","","","","","","","","","","","","",""
"","ISI","","html-keyboard-response","164","185333","0.0-1.0-228.0","0","0","31968","","null","","","null","25","NaN","","","","","","","","","","","","","","",""
"","S2","","html-keyboard-response","165","185590","0.0-1.0-229.0","0","0","31968","","null","","","null","25","","NaN","","","","","","","","","","","","","",""
"","response","","html-keyboard-response","166","185621","0.0-1.0-230.0-0.0","0","0","31968","","29","","","75","25","","","1","25","training","adjacent","FG","6","7","O.jpg","R.jpg","0","1","0","",""
"","feedback","","html-keyboard-response","167","186632","0.0-1.0-231.0-0.0","0","0","31968","","null","","","null","25","","","","","","","","","","","","","","","",""
"","time_out","","html-keyboard-response","168","188637","0.0-1.0-233.0-0.0","0","0","31968","","null","","","null","25","","","","","","","","","","","","","","","",""
"","ITI","","html-keyboard-response","169","189646","0.0-1.0-234.0","0","0","31968","","null","","","null","25","","","","","","","","","","","","","","","NaN",""
"","S1","","html-keyboard-response","170","189901","0.0-1.0-236.0","0","0","31968","","null","","","null","26","","","","","","","","","","","","","","","",""
"","ISI","","html-keyboard-response","171","190911","0.0-1.0-237.0","0","0","31968","","null","","","null","26","NaN","","","","","","","","","","","","","","",""
"","S2","","html-keyboard-response","172","191166","0.0-1.0-238.0","0","0","31968","","null","","","null","26","","NaN","","","","","","","","","","","","","",""
"","response","","html-keyboard-response","173","191285","0.0-1.0-239.0-0.0","0","0","31968","","117","","","68","26","","","1","26","training","adjacent","CD","3","4","N.jpg","Q.jpg","1","1","1","",""
"","feedback","","html-keyboard-response","174","192293","0.0-1.0-240.0-0.0","0","0","31968","","null","","","null","26","","","","","","","","","","","","","","","",""
"","ITI","","html-keyboard-response","175","193303","0.0-1.0-243.0","0","0","31968","","null","","","null","26","","","","","","","","","","","","","","","NaN",""
"","S1","","html-keyboard-response","176","193557","0.0-1.0-245.0","0","0","31968","","null","","","null","27","","","","","","","","","","","","","","","",""
"","ISI","","html-keyboard-response","177","194568","0.0-1.0-246.0","0","0","31968","","null","","","null","27","NaN","","","","","","","","","","","","","","",""
"","S2","","html-keyboard-response","178","194824","0.0-1.0-247.0","0","0","31968","","null","","","null","27","","NaN","","","","","","","","","","","","","",""
"","response","","html-keyboard-response","179","195213","0.0-1.0-248.0-0.0","0","0","31968","","388","","","75","27","","","1","27","training","adjacent","BC","2","3","L.jpg","N.jpg","0","1","0","",""
"","feedback","","html-keyboard-response","180","196223","0.0-1.0-249.0-0.0","0","0","31968","","null","","","null","27","","","","","","","","","","","","","","","",""
"","time_out","","html-keyboard-response","181","198231","0.0-1.0-251.0-0.0","0","0","31968","","null","","","null","27","","","","","","","","","","","","","","","",""
"","ITI","","html-keyboard-response","182","199241","0.0-1.0-252.0","0","0","31968","","null","","","null","27","","","","","","","","","","","","","","","NaN",""
"","S1","","html-keyboard-response","183","199502","0.0-1.0-254.0","0","0","31968","","null","","","null","28","","","","","","","","","","","","","","","",""
"","ISI","","html-keyboard-response","184","200513","0.0-1.0-255.0","0","0","31968","","null","","","null","28","NaN","","","","","","","","","","","","","","",""
"","S2","","html-keyboard-response","185","200774","0.0-1.0-256.0","0","0","31968","","null","","","null","28","","NaN","","","","","","","","","","","","","",""
"","response","","html-keyboard-response","186","201118","0.0-1.0-257.0-0.0","0","0","31968","","342","","","75","28","","","1","28","training","adjacent","DC","4","3","Q.jpg","N.jpg","0","0","1","",""
"","feedback","","html-keyboard-response","187","202129","0.0-1.0-258.0-0.0","0","0","31968","","null","","","null","28","","","","","","","","","","","","","","","",""
"","ITI","","html-keyboard-response","188","203136","0.0-1.0-261.0","0","0","31968","","null","","","null","28","","","","","","","","","","","","","","","NaN",""
"","S1","","html-keyboard-response","189","203392","0.0-1.0-263.0","0","0","31968","","null","","","null","29","","","","","","","","","","","","","","","",""
"","ISI","","html-keyboard-response","190","204396","0.0-1.0-264.0","0","0","31968","","null","","","null","29","NaN","","","","","","","","","","","","","","",""
"","S2","","html-keyboard-response","191","204657","0.0-1.0-265.0","0","0","31968","","null","","","null","29","","NaN","","","","","","","","","","","","","",""
"","response","","html-keyboard-response","192","204901","0.0-1.0-266.0-0.0","0","0","31968","","243","","","68","29","","","1","29","training","adjacent","FE","6","5","O.jpg","M.jpg","1","0","0","",""
"","feedback","","html-keyboard-response","193","205911","0.0-1.0-267.0-0.0","0","0","31968","","null","","","null","29","","","","","","","","","","","","","","","",""
"","time_out","","html-keyboard-response","194","207920","0.0-1.0-269.0-0.0","0","0","31968","","null","","","null","29","","","","","","","","","","","","","","","",""
"","ITI","","html-keyboard-response","195","208929","0.0-1.0-270.0","0","0","31968","","null","","","null","29","","","","","","","","","","","","","","","NaN",""
"","S1","","html-keyboard-response","196","209191","0.0-1.0-272.0","0","0","31968","","null","","","null","30","","","","","","","","","","","","","","","",""
"","ISI","","html-keyboard-response","197","210201","0.0-1.0-273.0","0","0","31968","","null","","","null","30","NaN","","","","","","","","","","","","","","",""
"","S2","","html-keyboard-response","198","210462","0.0-1.0-274.0","0","0","31968","","null","","","null","30","","NaN","","","","","","","","","","","","","",""
"","response","","html-keyboard-response","199","210709","0.0-1.0-275.0-0.0","0","0","31968","","245","","","68","30","","","1","30","training","adjacent","EF","5","6","M.jpg","O.jpg","1","1","1","",""
"","feedback","","html-keyboard-response","200","211716","0.0-1.0-276.0-0.0","0","0","31968","","null","","","null","30","","","","","","","","","","","","","","","",""
"","ITI","","html-keyboard-response","201","212726","0.0-1.0-279.0","0","0","31968","","null","","","null","30","","","","","","","","","","","","","","","NaN",""
"","S1","","html-keyboard-response","202","212981","0.0-1.0-281.0","0","0","31968","","null","","","null","31","","","","","","","","","","","","","","","",""
"","ISI","","html-keyboard-response","203","213989","0.0-1.0-282.0","0","0","31968","","null","","","null","31","NaN","","","","","","","","","","","","","","",""
"","S2","","html-keyboard-response","204","214247","0.0-1.0-283.0","0","0","31968","","null","","","null","31","","NaN","","","","","","","","","","","","","",""
"","response","","html-keyboard-response","205","214573","0.0-1.0-284.0-0.0","0","0","31968","","324","","","75","31","","","1","31","training","adjacent","AB","1","2","P.jpg","L.jpg","0","1","0","",""
"","feedback","","html-keyboard-response","206","215582","0.0-1.0-285.0-0.0","0","0","31968","","null","","","null","31","","","","","","","","","","","","","","","",""
"","time_out","","html-keyboard-response","207","217591","0.0-1.0-287.0-0.0","0","0","31968","","null","","","null","31","","","","","","","","","","","","","","","",""
"","ITI","","html-keyboard-response","208","218601","0.0-1.0-288.0","0","0","31968","","null","","","null","31","","","","","","","","","","","","","","","NaN",""
"","S1","","html-keyboard-response","209","218862","0.0-1.0-290.0","0","0","31968","","null","","","null","32","","","","","","","","","","","","","","","",""
"","ISI","","html-keyboard-response","210","219872","0.0-1.0-291.0","0","0","31968","","null","","","null","32","NaN","","","","","","","","","","","","","","",""
"","S2","","html-keyboard-response","211","220133","0.0-1.0-292.0","0","0","31968","","null","","","null","32","","NaN","","","","","","","","","","","","","",""
"","response","","html-keyboard-response","212","220645","0.0-1.0-293.0-0.0","0","0","31968","","511","","","68","32","","","1","32","training","adjacent","EF","5","6","M.jpg","O.jpg","1","1","1","",""
"","feedback","","html-keyboard-response","213","221654","0.0-1.0-294.0-0.0","0","0","31968","","null","","","null","32","","","","","","","","","","","","","","","",""
"","ITI","","html-keyboard-response","214","222664","0.0-1.0-297.0","0","0","31968","","null","","","null","32","","","","","","","","","","","","","","","NaN",""
"","S1","","html-keyboard-response","215","222925","0.0-1.0-299.0","0","0","31968","","null","","","null","33","","","","","","","","","","","","","","","",""
"","ISI","","html-keyboard-response","216","223935","0.0-1.0-300.0","0","0","31968","","null","","","null","33","NaN","","","","","","","","","","","","","","",""
"","S2","","html-keyboard-response","217","224190","0.0-1.0-301.0","0","0","31968","","null","","","null","33","","NaN","","","","","","","","","","","","","",""
"","response","","html-keyboard-response","218","224796","0.0-1.0-302.0-0.0","0","0","31968","","604","","","68","33","","","1","33","training","adjacent","FG","6","7","O.jpg","R.jpg","1","1","1","",""
"","feedback","","html-keyboard-response","219","225804","0.0-1.0-303.0-0.0","0","0","31968","","null","","","null","33","","","","","","","","","","","","","","","",""
"","ITI","","html-keyboard-response","220","226814","0.0-1.0-306.0","0","0","31968","","null","","","null","33","","","","","","","","","","","","","","","NaN",""
"","S1","","html-keyboard-response","221","227071","0.0-1.0-308.0","0","0","31968","","null","","","null","34","","","","","","","","","","","","","","","",""
"","ISI","","html-keyboard-response","222","228080","0.0-1.0-309.0","0","0","31968","","null","","","null","34","NaN","","","","","","","","","","","","","","",""
"","S2","","html-keyboard-response","223","228341","0.0-1.0-310.0","0","0","31968","","null","","","null","34","","NaN","","","","","","","","","","","","","",""
"","response","","html-keyboard-response","224","228612","0.0-1.0-311.0-0.0","0","0","31968","","270","","","68","34","","","1","34","training","adjacent","EF","5","6","M.jpg","O.jpg","1","1","1","",""
"","feedback","","html-keyboard-response","225","229624","0.0-1.0-312.0-0.0","0","0","31968","","null","","","null","34","","","","","","","","","","","","","","","",""
"","ITI","","html-keyboard-response","226","230628","0.0-1.0-315.0","0","0","31968","","null","","","null","34","","","","","","","","","","","","","","","NaN",""
"","S1","","html-keyboard-response","227","230888","0.0-1.0-317.0","0","0","31968","","null","","","null","35","","","","","","","","","","","","","","","",""
"","ISI","","html-keyboard-response","228","231893","0.0-1.0-318.0","0","0","31968","","null","","","null","35","NaN","","","","","","","","","","","","","","",""
"","S2","","html-keyboard-response","229","232149","0.0-1.0-319.0","0","0","31968","","null","","","null","35","","NaN","","","","","","","","","","","","","",""
"","response","","html-keyboard-response","230","232181","0.0-1.0-320.0-0.0","0","0","31968","","30","","","68","35","","","1","35","training","adjacent","CD","3","4","N.jpg","Q.jpg","1","1","1","",""
"","feedback","","html-keyboard-response","231","233188","0.0-1.0-321.0-0.0","0","0","31968","","null","","","null","35","","","","","","","","","","","","","","","",""
"","ITI","","html-keyboard-response","232","234198","0.0-1.0-324.0","0","0","31968","","null","","","null","35","","","","","","","","","","","","","","","NaN",""
"","S1","","html-keyboard-response","233","234453","0.0-1.0-326.0","0","0","31968","","null","","","null","36","","","","","","","","","","","","","","","",""
"","ISI","","html-keyboard-response","234","235463","0.0-1.0-327.0","0","0","31968","","null","","","null","36","NaN","","","","","","","","","","","","","","",""
"","S2","","html-keyboard-response","235","235719","0.0-1.0-328.0","0","0","31968","","null","","","null","36","","NaN","","","","","","","","","","","","","",""
"","response","","html-keyboard-response","236","235989","0.0-1.0-329.0-0.0","0","0","31968","","267","","","68","36","","","1","36","training","adjacent","CB","3","2","N.jpg","L.jpg","1","0","0","",""
"","feedback","","html-keyboard-response","237","236996","0.0-1.0-330.0-0.0","0","0","31968","","null","","","null","36","","","","","","","","","","","","","","","",""
"","time_out","","html-keyboard-response","238","239004","0.0-1.0-332.0-0.0","0","0","31968","","null","","","null","36","","","","","","","","","","","","","","","",""
"","ITI","","html-keyboard-response","239","240014","0.0-1.0-333.0","0","0","31968","","null","","","null","36","","","","","","","","","","","","","","","NaN",""
"","S1","","html-keyboard-response","240","240272","0.0-1.0-335.0","0","0","31968","","null","","","null","37","","","","","","","","","","","","","","","",""
"","ISI","","html-keyboard-response","241","241279","0.0-1.0-336.0","0","0","31968","","null","","","null","37","NaN","","","","","","","","","","","","","","",""
"","S2","","html-keyboard-response","242","241541","0.0-1.0-337.0","0","0","31968","","null","","","null","37","","NaN","","","","","","","","","","","","","",""
"","response","","html-keyboard-response","243","241861","0.0-1.0-338.0-0.0","0","0","31968","","317","","","75","37","","","1","37","training","adjacent","DC","4","3","Q.jpg","N.jpg","0","0","1","",""
"","feedback","","html-keyboard-response","244","242871","0.0-1.0-339.0-0.0","0","0","31968","","null","","","null","37","","","","","","","","","","","","","","","",""
"","ITI","","html-keyboard-response","245","243879","0.0-1.0-342.0","0","0","31968","","null","","","null","37","","","","","","","","","","","","","","","NaN",""
"","S1","","html-keyboard-response","246","244136","0.0-1.0-344.0","0","0","31968","","null","","","null","38","","","","","","","","","","","","","","","",""
"","ISI","","html-keyboard-response","247","245139","0.0-1.0-345.0","0","0","31968","","null","","","null","38","NaN","","","","","","","","","","","","","","",""
"","S2","","html-keyboard-response","248","245395","0.0-1.0-346.0","0","0","31968","","null","","","null","38","","NaN","","","","","","","","","","","","","",""
"","response","","html-keyboard-response","249","245556","0.0-1.0-347.0-0.0","0","0","31968","","159","","","68","38","","","1","38","training","adjacent","DE","4","5","Q.jpg","M.jpg","1","1","1","",""
"","feedback","","html-keyboard-response","250","246564","0.0-1.0-348.0-0.0","0","0","31968","","null","","","null","38","","","","","","","","","","","","","","","",""
"","ITI","","html-keyboard-response","251","247572","0.0-1.0-351.0","0","0","31968","","null","","","null","38","","","","","","","","","","","","","","","NaN",""
"","S1","","html-keyboard-response","252","247828","0.0-1.0-353.0","0","0","31968","","null","","","null","39","","","","","","","","","","","","","","","",""
"","ISI","","html-keyboard-response","253","248838","0.0-1.0-354.0","0","0","31968","","null","","","null","39","NaN","","","","","","","","","","","","","","",""
"","S2","","html-keyboard-response","254","249092","0.0-1.0-355.0","0","0","31968","","null","","","null","39","","NaN","","","","","","","","","","","","","",""
"","response","","html-keyboard-response","255","249157","0.0-1.0-356.0-0.0","0","0","31968","","64","","","75","39","","","1","39","training","adjacent","GF","7","6","R.jpg","O.jpg","0","0","1","",""
"","feedback","","html-keyboard-response","256","250164","0.0-1.0-357.0-0.0","0","0","31968","","null","","","null","39","","","","","","","","","","","","","","","",""
"","ITI","","html-keyboard-response","257","251171","0.0-1.0-360.0","0","0","31968","","null","","","null","39","","","","","","","","","","","","","","","NaN",""
"","S1","","html-keyboard-response","258","251427","0.0-1.0-362.0","0","0","31968","","null","","","null","40","","","","","","","","","","","","","","","",""
"","ISI","","html-keyboard-response","259","252436","0.0-1.0-363.0","0","0","31968","","null","","","null","40","NaN","","","","","","","","","","","","","","",""
"","S2","","html-keyboard-response","260","252692","0.0-1.0-364.0","0","0","31968","","null","","","null","40","","NaN","","","","","","","","","","","","","",""
"","response","","html-keyboard-response","261","252812","0.0-1.0-365.0-0.0","0","0","31968","","118","","","75","40","","","1","40","training","adjacent","GF","7","6","R.jpg","O.jpg","0","0","1","",""
"","feedback","","html-keyboard-response","262","253822","0.0-1.0-366.0-0.0","0","0","31968","","null","","","null","40","","","","","","","","","","","","","","","",""
"","ITI","","html-keyboard-response","263","254832","0.0-1.0-369.0","0","0","31968","","null","","","null","40","","","","","","","","","","","","","","","NaN",""
"","S1","","html-keyboard-response","264","255096","0.0-1.0-371.0","0","0","31968","","null","","","null","41","","","","","","","","","","","","","","","",""
"","ISI","","html-keyboard-response","265","256103","0.0-1.0-372.0","0","0","31968","","null","","","null","41","NaN","","","","","","","","","","","","","","",""
"","S2","","html-keyboard-response","266","256355","0.0-1.0-373.0","0","0","31968","","null","","","null","41","","NaN","","","","","","","","","","","","","",""
"","response","","html-keyboard-response","267","256708","0.0-1.0-374.0-0.0","0","0","31968","","351","","","75","41","","","1","41","training","adjacent","FE","6","5","O.jpg","M.jpg","0","0","1","",""
"","feedback","","html-keyboard-response","268","257720","0.0-1.0-375.0-0.0","0","0","31968","","null","","","null","41","","","","","","","","","","","","","","","",""
"","ITI","","html-keyboard-response","269","258724","0.0-1.0-378.0","0","0","31968","","null","","","null","41","","","","","","","","","","","","","","","NaN",""
"","S1","","html-keyboard-response","270","258983","0.0-1.0-380.0","0","0","31968","","null","","","null","42","","","","","","","","","","","","","","","",""
"","ISI","","html-keyboard-response","271","259988","0.0-1.0-381.0","0","0","31968","","null","","","null","42","NaN","","","","","","","","","","","","","","",""
"","S2","","html-keyboard-response","272","260220","0.0-1.0-382.0","0","0","31968","","230","","","75","42","","k","1","42","training","adjacent","GF","7","6","R.jpg","O.jpg","0","0","1","",""
"","feedback","","html-keyboard-response","273","261232","0.0-1.0-384.0-0.0","0","0","31968","","null","","","null","42","","","","","","","","","","","","","","","",""
"","ITI","","html-keyboard-response","274","262236","0.0-1.0-387.0","0","0","31968","","null","","","null","42","","","","","","","","","","","","","","","NaN",""
"","S1","","html-keyboard-response","275","262491","0.0-1.0-389.0","0","0","31968","","null","","","null","43","","","","","","","","","","","","","","","",""
"","ISI","","html-keyboard-response","276","263500","0.0-1.0-390.0","0","0","31968","","null","","","null","43","NaN","","","","","","","","","","","","","","",""
"","S2","","html-keyboard-response","277","263756","0.0-1.0-391.0","0","0","31968","","null","","","null","43","","NaN","","","","","","","","","","","","","",""
"","response","","html-keyboard-response","278","264140","0.0-1.0-392.0-0.0","0","0","31968","","382","","","75","43","","","1","43","training","adjacent","AB","1","2","P.jpg","L.jpg","0","1","0","",""
"","feedback","","html-keyboard-response","279","265150","0.0-1.0-393.0-0.0","0","0","31968","","null","","","null","43","","","","","","","","","","","","","","","",""
"","time_out","","html-keyboard-response","280","267158","0.0-1.0-395.0-0.0","0","0","31968","","null","","","null","43","","","","","","","","","","","","","","","",""
"","ITI","","html-keyboard-response","281","268166","0.0-1.0-396.0","0","0","31968","","null","","","null","43","","","","","","","","","","","","","","","NaN",""
"","S1","","html-keyboard-response","282","268424","0.0-1.0-398.0","0","0","31968","","null","","","null","44","","","","","","","","","","","","","","","",""
"","ISI","","html-keyboard-response","283","269427","0.0-1.0-399.0","0","0","31968","","null","","","null","44","NaN","","","","","","","","","","","","","","",""
"","S2","","html-keyboard-response","284","269683","0.0-1.0-400.0","0","0","31968","","null","","","null","44","","NaN","","","","","","","","","","","","","",""
"","response","","html-keyboard-response","285","270165","0.0-1.0-401.0-0.0","0","0","31968","","479","","","68","44","","","1","44","training","adjacent","FG","6","7","O.jpg","R.jpg","1","1","1","",""
"","feedback","","html-keyboard-response","286","271174","0.0-1.0-402.0-0.0","0","0","31968","","null","","","null","44","","","","","","","","","","","","","","","",""
"","ITI","","html-keyboard-response","287","272179","0.0-1.0-405.0","0","0","31968","","null","","","null","44","","","","","","","","","","","","","","","NaN",""
"","S1","","html-keyboard-response","288","272435","0.0-1.0-407.0","0","0","31968","","null","","","null","45","","","","","","","","","","","","","","","",""
"","ISI","","html-keyboard-response","289","273445","0.0-1.0-408.0","0","0","31968","","null","","","null","45","NaN","","","","","","","","","","","","","","",""
"","S2","","html-keyboard-response","290","273700","0.0-1.0-409.0","0","0","31968","","null","","","null","45","","NaN","","","","","","","","","","","","","",""
"","response","","html-keyboard-response","291","273788","0.0-1.0-410.0-0.0","0","0","31968","","87","","","68","45","","","1","45","training","adjacent","CD","3","4","N.jpg","Q.jpg","1","1","1","",""
"","feedback","","html-keyboard-response","292","274798","0.0-1.0-411.0-0.0","0","0","31968","","null","","","null","45","","","","","","","","","","","","","","","",""
"","ITI","","html-keyboard-response","293","275803","0.0-1.0-414.0","0","0","31968","","null","","","null","45","","","","","","","","","","","","","","","NaN",""
"","S1","","html-keyboard-response","294","276062","0.0-1.0-416.0","0","0","31968","","null","","","null","46","","","","","","","","","","","","","","","",""
"","ISI","","html-keyboard-response","295","277067","0.0-1.0-417.0","0","0","31968","","null","","","null","46","NaN","","","","","","","","","","","","","","",""
"","S2","","html-keyboard-response","296","277323","0.0-1.0-418.0","0","0","31968","","null","","","null","46","","NaN","","","","","","","","","","","","","",""
"","response","","html-keyboard-response","297","277331","0.0-1.0-419.0-0.0","0","0","31968","","7","","","75","46","","","1","46","training","adjacent","AB","1","2","P.jpg","L.jpg","0","1","0","",""
"","feedback","","html-keyboard-response","298","278340","0.0-1.0-420.0-0.0","0","0","31968","","null","","","null","46","","","","","","","","","","","","","","","",""
"","time_out","","html-keyboard-response","299","280347","0.0-1.0-422.0-0.0","0","0","31968","","null","","","null","46","","","","","","","","","","","","","","","",""
"","ITI","","html-keyboard-response","300","281357","0.0-1.0-423.0","0","0","31968","","null","","","null","46","","","","","","","","","","","","","","","NaN",""
"","S1","","html-keyboard-response","301","281612","0.0-1.0-425.0","0","0","31968","","null","","","null","47","","","","","","","","","","","","","","","",""
"","ISI","","html-keyboard-response","302","282622","0.0-1.0-426.0","0","0","31968","","null","","","null","47","NaN","","","","","","","","","","","","","","",""
"","S2","","html-keyboard-response","303","282878","0.0-1.0-427.0","0","0","31968","","null","","","null","47","","NaN","","","","","","","","","","","","","",""
"","response","","html-keyboard-response","304","282916","0.0-1.0-428.0-0.0","0","0","31968","","37","","","68","47","","","1","47","training","adjacent","CD","3","4","N.jpg","Q.jpg","1","1","1","",""
"","feedback","","html-keyboard-response","305","283923","0.0-1.0-429.0-0.0","0","0","31968","","null","","","null","47","","","","","","","","","","","","","","","",""
"","ITI","","html-keyboard-response","306","284933","0.0-1.0-432.0","0","0","31968","","null","","","null","47","","","","","","","","","","","","","","","NaN",""
"","block_over","","html-keyboard-response","307","287220","0.0-1.0-433.0-0.0","0","0","31968","","2284","","","32","47","","","","","","","","","","","","","","","",""
"","S1","","html-keyboard-response","308","287476","0.0-1.0-434.0","0","0","31968","","null","","","null","48","","","","","","","","","","","","","","","",""
"","ISI","","html-keyboard-response","309","288485","0.0-1.0-435.0","0","0","31968","","null","","","null","48","NaN","","","","","","","","","","","","","","",""
"","S2","","html-keyboard-response","310","288741","0.0-1.0-436.0","0","0","31968","","null","","","null","48","","NaN","","","","","","","","","","","","","",""
"","response","","html-keyboard-response","311","288820","0.0-1.0-437.0-0.0","0","0","31968","","78","","","75","48","","","2","48","training","adjacent","FG","6","7","O.jpg","R.jpg","0","1","0","",""
"","feedback","","html-keyboard-response","312","289830","0.0-1.0-438.0-0.0","0","0","31968","","null","","","null","48","","","","","","","","","","","","","","","",""
"","time_out","","html-keyboard-response","313","291835","0.0-1.0-440.0-0.0","0","0","31968","","null","","","null","48","","","","","","","","","","","","","","","",""
"","ITI","","html-keyboard-response","314","292845","0.0-1.0-441.0","0","0","31968","","null","","","null","48","","","","","","","","","","","","","","","NaN",""
"","S1","","html-keyboard-response","315","293101","0.0-1.0-443.0","0","0","31968","","null","","","null","49","","","","","","","","","","","","","","","",""
"","ISI","","html-keyboard-response","316","294110","0.0-1.0-444.0","0","0","31968","","null","","","null","49","NaN","","","","","","","","","","","","","","",""
"","S2","","html-keyboard-response","317","294371","0.0-1.0-445.0","0","0","31968","","null","","","null","49","","NaN","","","","","","","","","","","","","",""
"","response","","html-keyboard-response","318","294379","0.0-1.0-446.0-0.0","0","0","31968","","7","","","75","49","","","2","49","training","adjacent","GF","7","6","R.jpg","O.jpg","0","0","1","",""
"","feedback","","html-keyboard-response","319","295389","0.0-1.0-447.0-0.0","0","0","31968","","null","","","null","49","","","","","","","","","","","","","","","",""
"","ITI","","html-keyboard-response","320","296397","0.0-1.0-450.0","0","0","31968","","null","","","null","49","","","","","","","","","","","","","","","NaN",""
"","S1","","html-keyboard-response","321","296653","0.0-1.0-452.0","0","0","31968","","null","","","null","50","","","","","","","","","","","","","","","",""
"","ISI","","html-keyboard-response","322","297663","0.0-1.0-453.0","0","0","31968","","null","","","null","50","NaN","","","","","","","","","","","","","","",""
"","S2","","html-keyboard-response","323","297924","0.0-1.0-454.0","0","0","31968","","null","","","null","50","","NaN","","","","","","","","","","","","","",""
"","response","","html-keyboard-response","324","298076","0.0-1.0-455.0-0.0","0","0","31968","","149","","","68","50","","","2","50","training","adjacent","BA","2","1","L.jpg","P.jpg","1","0","0","",""
"","feedback","","html-keyboard-response","325","299084","0.0-1.0-456.0-0.0","0","0","31968","","null","","","null","50","","","","","","","","","","","","","","","",""
"","time_out","","html-keyboard-response","326","301093","0.0-1.0-458.0-0.0","0","0","31968","","null","","","null","50","","","","","","","","","","","","","","","",""
"","ITI","","html-keyboard-response","327","302099","0.0-1.0-459.0","0","0","31968","","null","","","null","50","","","","","","","","","","","","","","","NaN",""
"","S1","","html-keyboard-response","328","302359","0.0-1.0-461.0","0","0","31968","","null","","","null","51","","","","","","","","","","","","","","","",""
"","ISI","","html-keyboard-response","329","303363","0.0-1.0-462.0","0","0","31968","","null","","","null","51","NaN","","","","","","","","","","","","","","",""
"","S2","","html-keyboard-response","330","303619","0.0-1.0-463.0","0","0","31968","","null","","","null","51","","NaN","","","","","","","","","","","","","",""
"","response","","html-keyboard-response","331","303691","0.0-1.0-464.0-0.0","0","0","31968","","71","","","68","51","","","2","51","training","adjacent","CD","3","4","N.jpg","Q.jpg","1","1","1","",""
"","feedback","","html-keyboard-response","332","304700","0.0-1.0-465.0-0.0","0","0","31968","","null","","","null","51","","","","","","","","","","","","","","","",""
"","ITI","","html-keyboard-response","333","305710","0.0-1.0-468.0","0","0","31968","","null","","","null","51","","","","","","","","","","","","","","","NaN",""
"","S1","","html-keyboard-response","334","305963","0.0-1.0-470.0","0","0","31968","","null","","","null","52","","","","","","","","","","","","","","","",""
"","ISI","","html-keyboard-response","335","306973","0.0-1.0-471.0","0","0","31968","","null","","","null","52","NaN","","","","","","","","","","","","","","",""
"","S2","","html-keyboard-response","336","307230","0.0-1.0-472.0","0","0","31968","","null","","","null","52","","NaN","","","","","","","","","","","","","",""
"","response","","html-keyboard-response","337","307531","0.0-1.0-473.0-0.0","0","0","31968","","300","","","75","52","","","2","52","training","adjacent","CB","3","2","N.jpg","L.jpg","0","0","1","",""
"","feedback","","html-keyboard-response","338","308541","0.0-1.0-474.0-0.0","0","0","31968","","null","","","null","52","","","","","","","","","","","","","","","",""
"","ITI","","html-keyboard-response","339","309547","0.0-1.0-477.0","0","0","31968","","null","","","null","52","","","","","","","","","","","","","","","NaN",""
"","S1","","html-keyboard-response","340","309807","0.0-1.0-479.0","0","0","31968","","null","","","null","53","","","","","","","","","","","","","","","",""
"","ISI","","html-keyboard-response","341","310815","0.0-1.0-480.0","0","0","31968","","null","","","null","53","NaN","","","","","","","","","","","","","","",""
"","S2","","html-keyboard-response","342","311078","0.0-1.0-481.0","0","0","31968","","null","","","null","53","","NaN","","","","","","","","","","","","","",""
"","response","","html-keyboard-response","343","311347","0.0-1.0-482.0-0.0","0","0","31968","","268","","","68","53","","","2","53","training","adjacent","EF","5","6","M.jpg","O.jpg","1","1","1","",""
"","feedback","","html-keyboard-response","344","312355","0.0-1.0-483.0-0.0","0","0","31968","","null","","","null","53","","","","","","","","","","","","","","","",""
"","ITI","","html-keyboard-response","345","313365","0.0-1.0-486.0","0","0","31968","","null","","","null","53","","","","","","","","","","","","","","","NaN",""
"","S1","","html-keyboard-response","346","313620","0.0-1.0-488.0","0","0","31968","","null","","","null","54","","","","","","","","","","","","","","","",""
"","ISI","","html-keyboard-response","347","314630","0.0-1.0-489.0","0","0","31968","","null","","","null","54","NaN","","","","","","","","","","","","","","",""
"","S2","","html-keyboard-response","348","314891","0.0-1.0-490.0","0","0","31968","","null","","","null","54","","NaN","","","","","","","","","","","","","",""
"","response","","html-keyboard-response","349","315251","0.0-1.0-491.0-0.0","0","0","31968","","358","","","68","54","","","2","54","training","adjacent","DC","4","3","Q.jpg","N.jpg","1","0","0","",""
"","feedback","","html-keyboard-response","350","316261","0.0-1.0-492.0-0.0","0","0","31968","","null","","","null","54","","","","","","","","","","","","","","","",""
"","time_out","","html-keyboard-response","351","318270","0.0-1.0-494.0-0.0","0","0","31968","","null","","","null","54","","","","","","","","","","","","","","","",""
"","ITI","","html-keyboard-response","352","319278","0.0-1.0-495.0","0","0","31968","","null","","","null","54","","","","","","","","","","","","","","","NaN",""
"","S1","","html-keyboard-response","353","319535","0.0-1.0-497.0","0","0","31968","","null","","","null","55","","","","","","","","","","","","","","","",""
"","ISI","","html-keyboard-response","354","320540","0.0-1.0-498.0","0","0","31968","","null","","","null","55","NaN","","","","","","","","","","","","","","",""
"","S2","","html-keyboard-response","355","320795","0.0-1.0-499.0","0","0","31968","","null","","","null","55","","NaN","","","","","","","","","","","","","",""
"","response","","html-keyboard-response","356","320955","0.0-1.0-500.0-0.0","0","0","31968","","159","","","68","55","","","2","55","training","adjacent","CD","3","4","N.jpg","Q.jpg","1","1","1","",""
"","feedback","","html-keyboard-response","357","321962","0.0-1.0-501.0-0.0","0","0","31968","","null","","","null","55","","","","","","","","","","","","","","","",""
"","ITI","","html-keyboard-response","358","322972","0.0-1.0-504.0","0","0","31968","","null","","","null","55","","","","","","","","","","","","","","","NaN",""
"","S1","","html-keyboard-response","359","323227","0.0-1.0-506.0","0","0","31968","","null","","","null","56","","","","","","","","","","","","","","","",""
"","ISI","","html-keyboard-response","360","324238","0.0-1.0-507.0","0","0","31968","","null","","","null","56","NaN","","","","","","","","","","","","","","",""
"","S2","","html-keyboard-response","361","324474","0.0-1.0-508.0","0","0","31968","","234","","","75","56","","k","2","56","training","adjacent","GF","7","6","R.jpg","O.jpg","0","0","1","",""
"","feedback","","html-keyboard-response","362","325485","0.0-1.0-510.0-0.0","0","0","31968","","null","","","null","56","","","","","","","","","","","","","","","",""
"","ITI","","html-keyboard-response","363","326490","0.0-1.0-513.0","0","0","31968","","null","","","null","56","","","","","","","","","","","","","","","NaN",""
"","S1","","html-keyboard-response","364","326747","0.0-1.0-515.0","0","0","31968","","null","","","null","57","","","","","","","","","","","","","","","",""
"","ISI","","html-keyboard-response","365","327755","0.0-1.0-516.0","0","0","31968","","null","","","null","57","NaN","","","","","","","","","","","","","","",""
"","S2","","html-keyboard-response","366","328011","0.0-1.0-517.0","0","0","31968","","null","","","null","57","","NaN","","","","","","","","","","","","","",""
"","response","","html-keyboard-response","367","328387","0.0-1.0-518.0-0.0","0","0","31968","","374","","","68","57","","","2","57","training","adjacent","BA","2","1","L.jpg","P.jpg","1","0","0","",""
"","feedback","","html-keyboard-response","368","329398","0.0-1.0-519.0-0.0","0","0","31968","","null","","","null","57","","","","","","","","","","","","","","","",""
"","time_out","","html-keyboard-response","369","331402","0.0-1.0-521.0-0.0","0","0","31968","","null","","","null","57","","","","","","","","","","","","","","","",""
"","ITI","","html-keyboard-response","370","332410","0.0-1.0-522.0","0","0","31968","","null","","","null","57","","","","","","","","","","","","","","","NaN",""
"","S1","","html-keyboard-response","371","332666","0.0-1.0-524.0","0","0","31968","","null","","","null","58","","","","","","","","","","","","","","","",""
"","ISI","","html-keyboard-response","372","333676","0.0-1.0-525.0","0","0","31968","","null","","","null","58","NaN","","","","","","","","","","","","","","",""
"","S2","","html-keyboard-response","373","333932","0.0-1.0-526.0","0","0","31968","","null","","","null","58","","NaN","","","","","","","","","","","","","",""
"","response","","html-keyboard-response","374","334139","0.0-1.0-527.0-0.0","0","0","31968","","206","","","68","58","","","2","58","training","adjacent","AB","1","2","P.jpg","L.jpg","1","1","1","",""
"","feedback","","html-keyboard-response","375","335151","0.0-1.0-528.0-0.0","0","0","31968","","null","","","null","58","","","","","","","","","","","","","","","",""
"","ITI","","html-keyboard-response","376","336155","0.0-1.0-531.0","0","0","31968","","null","","","null","58","","","","","","","","","","","","","","","NaN",""
"","S1","","html-keyboard-response","377","336410","0.0-1.0-533.0","0","0","31968","","null","","","null","59","","","","","","","","","","","","","","","",""
"","ISI","","html-keyboard-response","378","337420","0.0-1.0-534.0","0","0","31968","","null","","","null","59","NaN","","","","","","","","","","","","","","",""
"","S2","","html-keyboard-response","379","337676","0.0-1.0-535.0","0","0","31968","","null","","","null","59","","NaN","","","","","","","","","","","","","",""
"","response","","html-keyboard-response","380","337874","0.0-1.0-536.0-0.0","0","0","31968","","196","","","75","59","","","2","59","training","adjacent","BA","2","1","L.jpg","P.jpg","0","0","1","",""
"","feedback","","html-keyboard-response","381","338883","0.0-1.0-537.0-0.0","0","0","31968","","null","","","null","59","","","","","","","","","","","","","","","",""
"","ITI","","html-keyboard-response","382","339892","0.0-1.0-540.0","0","0","31968","","null","","","null","59","","","","","","","","","","","","","","","NaN",""
"","S1","","html-keyboard-response","383","340150","0.0-1.0-542.0","0","0","31968","","null","","","null","60","","","","","","","","","","","","","","","",""
"","ISI","","html-keyboard-response","384","341157","0.0-1.0-543.0","0","0","31968","","null","","","null","60","NaN","","","","","","","","","","","","","","",""
"","S2","","html-keyboard-response","385","341413","0.0-1.0-544.0","0","0","31968","","null","","","null","60","","NaN","","","","","","","","","","","","","",""
"","response","","html-keyboard-response","386","342018","0.0-1.0-545.0-0.0","0","0","31968","","603","","","75","60","","","2","60","training","adjacent","EF","5","6","M.jpg","O.jpg","0","1","0","",""
"","feedback","","html-keyboard-response","387","343027","0.0-1.0-546.0-0.0","0","0","31968","","null","","","null","60","","","","","","","","","","","","","","","",""
"","time_out","","html-keyboard-response","388","345036","0.0-1.0-548.0-0.0","0","0","31968","","null","","","null","60","","","","","","","","","","","","","","","",""
"","ITI","","html-keyboard-response","389","346045","0.0-1.0-549.0","0","0","31968","","null","","","null","60","","","","","","","","","","","","","","","NaN",""
"","S1","","html-keyboard-response","390","346301","0.0-1.0-551.0","0","0","31968","","null","","","null","61","","","","","","","","","","","","","","","",""
"","ISI","","html-keyboard-response","391","347306","0.0-1.0-552.0","0","0","31968","","null","","","null","61","NaN","","","","","","","","","","","","","","",""
"","S2","","html-keyboard-response","392","347562","0.0-1.0-553.0","0","0","31968","","null","","","null","61","","NaN","","","","","","","","","","","","","",""
"","response","","html-keyboard-response","393","347962","0.0-1.0-554.0-0.0","0","0","31968","","398","","","75","61","","","2","61","training","adjacent","ED","5","4","M.jpg","Q.jpg","0","0","1","",""
"","feedback","","html-keyboard-response","394","348972","0.0-1.0-555.0-0.0","0","0","31968","","null","","","null","61","","","","","","","","","","","","","","","",""
"","ITI","","html-keyboard-response","395","349982","0.0-1.0-558.0","0","0","31968","","null","","","null","61","","","","","","","","","","","","","","","NaN",""
"","S1","","html-keyboard-response","396","350243","0.0-1.0-560.0","0","0","31968","","null","","","null","62","","","","","","","","","","","","","","","",""
"","ISI","","html-keyboard-response","397","351253","0.0-1.0-561.0","0","0","31968","","null","","","null","62","NaN","","","","","","","","","","","","","","",""
"","S2","","html-keyboard-response","398","351509","0.0-1.0-562.0","0","0","31968","","null","","","null","62","","NaN","","","","","","","","","","","","","",""
"","response","","html-keyboard-response","399","351874","0.0-1.0-563.0-0.0","0","0","31968","","363","","","75","62","","","2","62","training","adjacent","BC","2","3","L.jpg","N.jpg","0","1","0","",""
"","feedback","","html-keyboard-response","400","352884","0.0-1.0-564.0-0.0","0","0","31968","","null","","","null","62","","","","","","","","","","","","","","","",""
"","time_out","","html-keyboard-response","401","354893","0.0-1.0-566.0-0.0","0","0","31968","","null","","","null","62","","","","","","","","","","","","","","","",""
"","ITI","","html-keyboard-response","402","355898","0.0-1.0-567.0","0","0","31968","","null","","","null","62","","","","","","","","","","","","","","","NaN",""
"","S1","","html-keyboard-response","403","356157","0.0-1.0-569.0","0","0","31968","","null","","","null","63","","","","","","","","","","","","","","","",""
"","ISI","","html-keyboard-response","404","357162","0.0-1.0-570.0","0","0","31968","","null","","","null","63","NaN","","","","","","","","","","","","","","",""
"","S2","","html-keyboard-response","405","357421","0.0-1.0-571.0","0","0","31968","","null","","","null","63","","NaN","","","","","","","","","","","","","",""
"","response","","html-keyboard-response","406","357570","0.0-1.0-572.0-0.0","0","0","31968","","148","","","68","63","","","2","63","training","adjacent","CD","3","4","N.jpg","Q.jpg","1","1","1","",""
"","feedback","","html-keyboard-response","407","358578","0.0-1.0-573.0-0.0","0","0","31968","","null","","","null","63","","","","","","","","","","","","","","","",""
"","ITI","","html-keyboard-response","408","359590","0.0-1.0-576.0","0","0","31968","","null","","","null","63","","","","","","","","","","","","","","","NaN",""
"","S1","","html-keyboard-response","409","359850","0.0-1.0-578.0","0","0","31968","","null","","","null","64","","","","","","","","","","","","","","","",""
"","ISI","","html-keyboard-response","410","360860","0.0-1.0-579.0","0","0","31968","","null","","","null","64","NaN","","","","","","","","","","","","","","",""
"","S2","","html-keyboard-response","411","361116","0.0-1.0-580.0","0","0","31968","","null","","","null","64","","NaN","","","","","","","","","","","","","",""
"","response","","html-keyboard-response","412","361466","0.0-1.0-581.0-0.0","0","0","31968","","349","","","75","64","","","2","64","training","adjacent","EF","5","6","M.jpg","O.jpg","0","1","0","",""
"","feedback","","html-keyboard-response","413","362474","0.0-1.0-582.0-0.0","0","0","31968","","null","","","null","64","","","","","","","","","","","","","","","",""
"","time_out","","html-keyboard-response","414","364482","0.0-1.0-584.0-0.0","0","0","31968","","null","","","null","64","","","","","","","","","","","","","","","",""
"","ITI","","html-keyboard-response","415","365493","0.0-1.0-585.0","0","0","31968","","null","","","null","64","","","","","","","","","","","","","","","NaN",""
"","S1","","html-keyboard-response","416","365748","0.0-1.0-587.0","0","0","31968","","null","","","null","65","","","","","","","","","","","","","","","",""
"","ISI","","html-keyboard-response","417","366756","0.0-1.0-588.0","0","0","31968","","null","","","null","65","NaN","","","","","","","","","","","","","","",""
"","S2","","html-keyboard-response","418","367012","0.0-1.0-589.0","0","0","31968","","null","","","null","65","","NaN","","","","","","","","","","","","","",""
"","response","","html-keyboard-response","419","367456","0.0-1.0-590.0-0.0","0","0","31968","","443","","","75","65","","","2","65","training","adjacent","CB","3","2","N.jpg","L.jpg","0","0","1","",""
"","feedback","","html-keyboard-response","420","368464","0.0-1.0-591.0-0.0","0","0","31968","","null","","","null","65","","","","","","","","","","","","","","","",""
"","ITI","","html-keyboard-response","421","369474","0.0-1.0-594.0","0","0","31968","","null","","","null","65","","","","","","","","","","","","","","","NaN",""
"","S1","","html-keyboard-response","422","369729","0.0-1.0-596.0","0","0","31968","","null","","","null","66","","","","","","","","","","","","","","","",""
"","ISI","","html-keyboard-response","423","370739","0.0-1.0-597.0","0","0","31968","","null","","","null","66","NaN","","","","","","","","","","","","","","",""
"","S2","","html-keyboard-response","424","370994","0.0-1.0-598.0","0","0","31968","","null","","","null","66","","NaN","","","","","","","","","","","","","",""
"","response","","html-keyboard-response","425","371432","0.0-1.0-599.0-0.0","0","0","31968","","436","","","75","66","","","2","66","training","adjacent","DE","4","5","Q.jpg","M.jpg","0","1","0","",""
"","feedback","","html-keyboard-response","426","372439","0.0-1.0-600.0-0.0","0","0","31968","","null","","","null","66","","","","","","","","","","","","","","","",""
"","time_out","","html-keyboard-response","427","374448","0.0-1.0-602.0-0.0","0","0","31968","","null","","","null","66","","","","","","","","","","","","","","","",""
"","ITI","","html-keyboard-response","428","375457","0.0-1.0-603.0","0","0","31968","","null","","","null","66","","","","","","","","","","","","","","","NaN",""
"","S1","","html-keyboard-response","429","375713","0.0-1.0-605.0","0","0","31968","","null","","","null","67","","","","","","","","","","","","","","","",""
"","ISI","","html-keyboard-response","430","376723","0.0-1.0-606.0","0","0","31968","","null","","","null","67","NaN","","","","","","","","","","","","","","",""
"","S2","","html-keyboard-response","431","376982","0.0-1.0-607.0","0","0","31968","","null","","","null","67","","NaN","","","","","","","","","","","","","",""
"","response","","html-keyboard-response","432","377391","0.0-1.0-608.0-0.0","0","0","31968","","406","","","68","67","","","2","67","training","adjacent","FG","6","7","O.jpg","R.jpg","1","1","1","",""
"","feedback","","html-keyboard-response","433","378400","0.0-1.0-609.0-0.0","0","0","31968","","null","","","null","67","","","","","","","","","","","","","","","",""
"","ITI","","html-keyboard-response","434","379409","0.0-1.0-612.0","0","0","31968","","null","","","null","67","","","","","","","","","","","","","","","NaN",""
"","S1","","html-keyboard-response","435","379664","0.0-1.0-614.0","0","0","31968","","null","","","null","68","","","","","","","","","","","","","","","",""
"","ISI","","html-keyboard-response","436","380673","0.0-1.0-615.0","0","0","31968","","null","","","null","68","NaN","","","","","","","","","","","","","","",""
"","S2","","html-keyboard-response","437","380928","0.0-1.0-616.0","0","0","31968","","null","","","null","68","","NaN","","","","","","","","","","","","","",""
"","response","","html-keyboard-response","438","381406","0.0-1.0-617.0-0.0","0","0","31968","","476","","","68","68","","","2","68","training","adjacent","DE","4","5","Q.jpg","M.jpg","1","1","1","",""
"","feedback","","html-keyboard-response","439","382416","0.0-1.0-618.0-0.0","0","0","31968","","null","","","null","68","","","","","","","","","","","","","","","",""
"","ITI","","html-keyboard-response","440","383424","0.0-1.0-621.0","0","0","31968","","null","","","null","68","","","","","","","","","","","","","","","NaN",""
"","S1","","html-keyboard-response","441","383681","0.0-1.0-623.0","0","0","31968","","null","","","null","69","","","","","","","","","","","","","","","",""
"","ISI","","html-keyboard-response","442","384685","0.0-1.0-624.0","0","0","31968","","null","","","null","69","NaN","","","","","","","","","","","","","","",""
"","S2","","html-keyboard-response","443","384941","0.0-1.0-625.0","0","0","31968","","null","","","null","69","","NaN","","","","","","","","","","","","","",""
"","response","","html-keyboard-response","444","385421","0.0-1.0-626.0-0.0","0","0","31968","","479","","","75","69","","","2","69","training","adjacent","BA","2","1","L.jpg","P.jpg","0","0","1","",""
"","feedback","","html-keyboard-response","445","386432","0.0-1.0-627.0-0.0","0","0","31968","","null","","","null","69","","","","","","","","","","","","","","","",""
"","ITI","","html-keyboard-response","446","387437","0.0-1.0-630.0","0","0","31968","","null","","","null","69","","","","","","","","","","","","","","","NaN",""
"","S1","","html-keyboard-response","447","387696","0.0-1.0-632.0","0","0","31968","","null","","","null","70","","","","","","","","","","","","","","","",""
"","ISI","","html-keyboard-response","448","388702","0.0-1.0-633.0","0","0","31968","","null","","","null","70","NaN","","","","","","","","","","","","","","",""
"","S2","","html-keyboard-response","449","388957","0.0-1.0-634.0","0","0","31968","","null","","","null","70","","NaN","","","","","","","","","","","","","",""
"","response","","html-keyboard-response","450","389133","0.0-1.0-635.0-0.0","0","0","31968","","174","","","75","70","","","2","70","training","adjacent","ED","5","4","M.jpg","Q.jpg","0","0","1","",""
"","feedback","","html-keyboard-response","451","390141","0.0-1.0-636.0-0.0","0","0","31968","","null","","","null","70","","","","","","","","","","","","","","","",""
"","ITI","","html-keyboard-response","452","391152","0.0-1.0-639.0","0","0","31968","","null","","","null","70","","","","","","","","","","","","","","","NaN",""
"","S1","","html-keyboard-response","453","391415","0.0-1.0-641.0","0","0","31968","","null","","","null","71","","","","","","","","","","","","","","","",""
"","ISI","","html-keyboard-response","454","392422","0.0-1.0-642.0","0","0","31968","","null","","","null","71","NaN","","","","","","","","","","","","","","",""
"","S2","","html-keyboard-response","455","392678","0.0-1.0-643.0","0","0","31968","","null","","","null","71","","NaN","","","","","","","","","","","","","",""
"","response","","html-keyboard-response","456","393052","0.0-1.0-644.0-0.0","0","0","31968","","373","","","68","71","","","2","71","training","adjacent","DE","4","5","Q.jpg","M.jpg","1","1","1","",""
"","feedback","","html-keyboard-response","457","394059","0.0-1.0-645.0-0.0","0","0","31968","","null","","","null","71","","","","","","","","","","","","","","","",""
"","ITI","","html-keyboard-response","458","395069","0.0-1.0-648.0","0","0","31968","","null","","","null","71","","","","","","","","","","","","","","","NaN",""
"","S1","","html-keyboard-response","459","395325","0.0-1.0-650.0","0","0","31968","","null","","","null","72","","","","","","","","","","","","","","","",""
"","ISI","","html-keyboard-response","460","396335","0.0-1.0-651.0","0","0","31968","","null","","","null","72","NaN","","","","","","","","","","","","","","",""
"","S2","","html-keyboard-response","461","396590","0.0-1.0-652.0","0","0","31968","","null","","","null","72","","NaN","","","","","","","","","","","","","",""
"","response","","html-keyboard-response","462","397132","0.0-1.0-653.0-0.0","0","0","31968","","540","","","75","72","","","2","72","training","adjacent","CB","3","2","N.jpg","L.jpg","0","0","1","",""
"","feedback","","html-keyboard-response","463","398139","0.0-1.0-654.0-0.0","0","0","31968","","null","","","null","72","","","","","","","","","","","","","","","",""
"","ITI","","html-keyboard-response","464","399150","0.0-1.0-657.0","0","0","31968","","null","","","null","72","","","","","","","","","","","","","","","NaN",""
"","S1","","html-keyboard-response","465","399406","0.0-1.0-659.0","0","0","31968","","null","","","null","73","","","","","","","","","","","","","","","",""
"","ISI","","html-keyboard-response","466","400415","0.0-1.0-660.0","0","0","31968","","null","","","null","73","NaN","","","","","","","","","","","","","","",""
"","S2","","html-keyboard-response","467","400677","0.0-1.0-661.0","0","0","31968","","null","","","null","73","","NaN","","","","","","","","","","","","","",""
"","response","","html-keyboard-response","468","400956","0.0-1.0-662.0-0.0","0","0","31968","","278","","","75","73","","","2","73","training","adjacent","DC","4","3","Q.jpg","N.jpg","0","0","1","",""
"","feedback","","html-keyboard-response","469","401965","0.0-1.0-663.0-0.0","0","0","31968","","null","","","null","73","","","","","","","","","","","","","","","",""
"","ITI","","html-keyboard-response","470","402975","0.0-1.0-666.0","0","0","31968","","null","","","null","73","","","","","","","","","","","","","","","NaN",""
"","S1","","html-keyboard-response","471","403237","0.0-1.0-668.0","0","0","31968","","null","","","null","74","","","","","","","","","","","","","","","",""
"","ISI","","html-keyboard-response","472","404246","0.0-1.0-669.0","0","0","31968","","null","","","null","74","NaN","","","","","","","","","","","","","","",""
"","S2","","html-keyboard-response","473","404502","0.0-1.0-670.0","0","0","31968","","null","","","null","74","","NaN","","","","","","","","","","","","","",""
"","response","","html-keyboard-response","474","404788","0.0-1.0-671.0-0.0","0","0","31968","","285","","","68","74","","","2","74","training","adjacent","FE","6","5","O.jpg","M.jpg","1","0","0","",""
"","feedback","","html-keyboard-response","475","405796","0.0-1.0-672.0-0.0","0","0","31968","","null","","","null","74","","","","","","","","","","","","","","","",""
"","time_out","","html-keyboard-response","476","407805","0.0-1.0-674.0-0.0","0","0","31968","","null","","","null","74","","","","","","","","","","","","","","","",""
"","ITI","","html-keyboard-response","477","408815","0.0-1.0-675.0","0","0","31968","","null","","","null","74","","","","","","","","","","","","","","","NaN",""
"","S1","","html-keyboard-response","478","409076","0.0-1.0-677.0","0","0","31968","","null","","","null","75","","","","","","","","","","","","","","","",""
"","ISI","","html-keyboard-response","479","410086","0.0-1.0-678.0","0","0","31968","","null","","","null","75","NaN","","","","","","","","","","","","","","",""
"","S2","","html-keyboard-response","480","410324","0.0-1.0-679.0","0","0","31968","","235","","","75","75","","k","2","75","training","adjacent","GF","7","6","R.jpg","O.jpg","0","0","1","",""
"","feedback","","html-keyboard-response","481","411334","0.0-1.0-681.0-0.0","0","0","31968","","null","","","null","75","","","","","","","","","","","","","","","",""
"","ITI","","html-keyboard-response","482","412342","0.0-1.0-684.0","0","0","31968","","null","","","null","75","","","","","","","","","","","","","","","NaN",""
"","S1","","html-keyboard-response","483","412597","0.0-1.0-686.0","0","0","31968","","null","","","null","76","","","","","","","","","","","","","","","",""
"","ISI","","html-keyboard-response","484","413604","0.0-1.0-687.0","0","0","31968","","null","","","null","76","NaN","","","","","","","","","","","","","","",""
"","S2","","html-keyboard-response","485","413859","0.0-1.0-688.0","0","0","31968","","null","","","null","76","","NaN","","","","","","","","","","","","","",""
"","response","","html-keyboard-response","486","414475","0.0-1.0-689.0-0.0","0","0","31968","","613","","","68","76","","","2","76","training","adjacent","FE","6","5","O.jpg","M.jpg","1","0","0","",""
"","feedback","","html-keyboard-response","487","415483","0.0-1.0-690.0-0.0","0","0","31968","","null","","","null","76","","","","","","","","","","","","","","","",""
"","time_out","","html-keyboard-response","488","417492","0.0-1.0-692.0-0.0","0","0","31968","","null","","","null","76","","","","","","","","","","","","","","","",""
"","ITI","","html-keyboard-response","489","418503","0.0-1.0-693.0","0","0","31968","","null","","","null","76","","","","","","","","","","","","","","","NaN",""
"","S1","","html-keyboard-response","490","418764","0.0-1.0-695.0","0","0","31968","","null","","","null","77","","","","","","","","","","","","","","","",""
"","ISI","","html-keyboard-response","491","419774","0.0-1.0-696.0","0","0","31968","","null","","","null","77","NaN","","","","","","","","","","","","","","",""
"","S2","","html-keyboard-response","492","420035","0.0-1.0-697.0","0","0","31968","","null","","","null","77","","NaN","","","","","","","","","","","","","",""
"","response","","html-keyboard-response","493","420451","0.0-1.0-698.0-0.0","0","0","31968","","414","","","75","77","","","2","77","training","adjacent","ED","5","4","M.jpg","Q.jpg","0","0","1","",""
"","feedback","","html-keyboard-response","494","421463","0.0-1.0-699.0-0.0","0","0","31968","","null","","","null","77","","","","","","","","","","","","","","","",""
"","ITI","","html-keyboard-response","495","422467","0.0-1.0-702.0","0","0","31968","","null","","","null","77","","","","","","","","","","","","","","","NaN",""
"","S1","","html-keyboard-response","496","422723","0.0-1.0-704.0","0","0","31968","","null","","","null","78","","","","","","","","","","","","","","","",""
"","ISI","","html-keyboard-response","497","423733","0.0-1.0-705.0","0","0","31968","","null","","","null","78","NaN","","","","","","","","","","","","","","",""
"","S2","","html-keyboard-response","498","423988","0.0-1.0-706.0","0","0","31968","","null","","","null","78","","NaN","","","","","","","","","","","","","",""
"","response","","html-keyboard-response","499","424275","0.0-1.0-707.0-0.0","0","0","31968","","285","","","68","78","","","2","78","training","adjacent","DC","4","3","Q.jpg","N.jpg","1","0","0","",""
"","feedback","","html-keyboard-response","500","425283","0.0-1.0-708.0-0.0","0","0","31968","","null","","","null","78","","","","","","","","","","","","","","","",""
"","time_out","","html-keyboard-response","501","427291","0.0-1.0-710.0-0.0","0","0","31968","","null","","","null","78","","","","","","","","","","","","","","","",""
"","ITI","","html-keyboard-response","502","428301","0.0-1.0-711.0","0","0","31968","","null","","","null","78","","","","","","","","","","","","","","","NaN",""
"","S1","","html-keyboard-response","503","428557","0.0-1.0-713.0","0","0","31968","","null","","","null","79","","","","","","","","","","","","","","","",""
"","ISI","","html-keyboard-response","504","429564","0.0-1.0-714.0","0","0","31968","","null","","","null","79","NaN","","","","","","","","","","","","","","",""
"","S2","","html-keyboard-response","505","429822","0.0-1.0-715.0","0","0","31968","","null","","","null","79","","NaN","","","","","","","","","","","","","",""
"","response","","html-keyboard-response","506","430419","0.0-1.0-716.0-0.0","0","0","31968","","595","","","75","79","","","2","79","training","adjacent","CB","3","2","N.jpg","L.jpg","0","0","1","",""
"","feedback","","html-keyboard-response","507","431429","0.0-1.0-717.0-0.0","0","0","31968","","null","","","null","79","","","","","","","","","","","","","","","",""
"","ITI","","html-keyboard-response","508","432434","0.0-1.0-720.0","0","0","31968","","null","","","null","79","","","","","","","","","","","","","","","NaN",""
"","S1","","html-keyboard-response","509","432690","0.0-1.0-722.0","0","0","31968","","null","","","null","80","","","","","","","","","","","","","","","",""
"","ISI","","html-keyboard-response","510","433700","0.0-1.0-723.0","0","0","31968","","null","","","null","80","NaN","","","","","","","","","","","","","","",""
"","S2","","html-keyboard-response","511","433955","0.0-1.0-724.0","0","0","31968","","null","","","null","80","","NaN","","","","","","","","","","","","","",""
"","response","","html-keyboard-response","512","434442","0.0-1.0-725.0-0.0","0","0","31968","","486","","","75","80","","","2","80","training","adjacent","FE","6","5","O.jpg","M.jpg","0","0","1","",""
"","feedback","","html-keyboard-response","513","435453","0.0-1.0-726.0-0.0","0","0","31968","","null","","","null","80","","","","","","","","","","","","","","","",""
"","ITI","","html-keyboard-response","514","436459","0.0-1.0-729.0","0","0","31968","","null","","","null","80","","","","","","","","","","","","","","","NaN",""
"","S1","","html-keyboard-response","515","436718","0.0-1.0-731.0","0","0","31968","","null","","","null","81","","","","","","","","","","","","","","","",""
"","ISI","","html-keyboard-response","516","437722","0.0-1.0-732.0","0","0","31968","","null","","","null","81","NaN","","","","","","","","","","","","","","",""
"","S2","","html-keyboard-response","517","437978","0.0-1.0-733.0","0","0","31968","","null","","","null","81","","NaN","","","","","","","","","","","","","",""
"","response","","html-keyboard-response","518","438546","0.0-1.0-734.0-0.0","0","0","31968","","566","","","75","81","","","2","81","training","adjacent","BC","2","3","L.jpg","N.jpg","0","1","0","",""
"","feedback","","html-keyboard-response","519","439557","0.0-1.0-735.0-0.0","0","0","31968","","null","","","null","81","","","","","","","","","","","","","","","",""
"","time_out","","html-keyboard-response","520","441565","0.0-1.0-737.0-0.0","0","0","31968","","null","","","null","81","","","","","","","","","","","","","","","",""
"","ITI","","html-keyboard-response","521","442570","0.0-1.0-738.0","0","0","31968","","null","","","null","81","","","","","","","","","","","","","","","NaN",""
"","S1","","html-keyboard-response","522","442829","0.0-1.0-740.0","0","0","31968","","null","","","null","82","","","","","","","","","","","","","","","",""
"","ISI","","html-keyboard-response","523","443835","0.0-1.0-741.0","0","0","31968","","null","","","null","82","NaN","","","","","","","","","","","","","","",""
"","S2","","html-keyboard-response","524","444091","0.0-1.0-742.0","0","0","31968","","null","","","null","82","","NaN","","","","","","","","","","","","","",""
"","response","","html-keyboard-response","525","444794","0.0-1.0-743.0-0.0","0","0","31968","","702","","","75","82","","","2","82","training","adjacent","DE","4","5","Q.jpg","M.jpg","0","1","0","",""
"","feedback","","html-keyboard-response","526","445802","0.0-1.0-744.0-0.0","0","0","31968","","null","","","null","82","","","","","","","","","","","","","","","",""
"","time_out","","html-keyboard-response","527","447810","0.0-1.0-746.0-0.0","0","0","31968","","null","","","null","82","","","","","","","","","","","","","","","",""
"","ITI","","html-keyboard-response","528","448821","0.0-1.0-747.0","0","0","31968","","null","","","null","82","","","","","","","","","","","","","","","NaN",""
"","S1","","html-keyboard-response","529","449083","0.0-1.0-749.0","0","0","31968","","null","","","null","83","","","","","","","","","","","","","","","",""
"","ISI","","html-keyboard-response","530","450093","0.0-1.0-750.0","0","0","31968","","null","","","null","83","NaN","","","","","","","","","","","","","","",""
"","S2","","html-keyboard-response","531","450354","0.0-1.0-751.0","0","0","31968","","null","","","null","83","","NaN","","","","","","","","","","","","","",""
"","response","","html-keyboard-response","532","450794","0.0-1.0-752.0-0.0","0","0","31968","","438","","","68","83","","","2","83","training","adjacent","AB","1","2","P.jpg","L.jpg","1","1","1","",""
"","feedback","","html-keyboard-response","533","451805","0.0-1.0-753.0-0.0","0","0","31968","","null","","","null","83","","","","","","","","","","","","","","","",""
"","ITI","","html-keyboard-response","534","452810","0.0-1.0-756.0","0","0","31968","","null","","","null","83","","","","","","","","","","","","","","","NaN",""
"","S1","","html-keyboard-response","535","453069","0.0-1.0-758.0","0","0","31968","","null","","","null","84","","","","","","","","","","","","","","","",""
"","ISI","","html-keyboard-response","536","454075","0.0-1.0-759.0","0","0","31968","","null","","","null","84","NaN","","","","","","","","","","","","","","",""
"","S2","","html-keyboard-response","537","454298","0.0-1.0-760.0","0","0","31968","","221","","","75","84","","k","2","84","training","adjacent","GF","7","6","R.jpg","O.jpg","0","0","1","",""
"","feedback","","html-keyboard-response","538","455305","0.0-1.0-762.0-0.0","0","0","31968","","null","","","null","84","","","","","","","","","","","","","","","",""
"","ITI","","html-keyboard-response","539","456315","0.0-1.0-765.0","0","0","31968","","null","","","null","84","","","","","","","","","","","","","","","NaN",""
"","S1","","html-keyboard-response","540","456571","0.0-1.0-767.0","0","0","31968","","null","","","null","85","","","","","","","","","","","","","","","",""
"","ISI","","html-keyboard-response","541","457581","0.0-1.0-768.0","0","0","31968","","null","","","null","85","NaN","","","","","","","","","","","","","","",""
"","S2","","html-keyboard-response","542","457842","0.0-1.0-769.0","0","0","31968","","null","","","null","85","","NaN","","","","","","","","","","","","","",""
"","response","","html-keyboard-response","543","457844","0.0-1.0-770.0-0.0","0","0","31968","","0","","","68","85","","","2","85","training","adjacent","AB","1","2","P.jpg","L.jpg","1","1","1","",""
"","feedback","","html-keyboard-response","544","458852","0.0-1.0-771.0-0.0","0","0","31968","","null","","","null","85","","","","","","","","","","","","","","","",""
"","ITI","","html-keyboard-response","545","459858","0.0-1.0-774.0","0","0","31968","","null","","","null","85","","","","","","","","","","","","","","","NaN",""
"","S1","","html-keyboard-response","546","460117","0.0-1.0-776.0","0","0","31968","","null","","","null","86","","","","","","","","","","","","","","","",""
"","ISI","","html-keyboard-response","547","461122","0.0-1.0-777.0","0","0","31968","","null","","","null","86","NaN","","","","","","","","","","","","","","",""
"","S2","","html-keyboard-response","548","461378","0.0-1.0-778.0","0","0","31968","","null","","","null","86","","NaN","","","","","","","","","","","","","",""
"","response","","html-keyboard-response","549","462139","0.0-1.0-779.0-0.0","0","0","31968","","759","","","75","86","","","2","86","training","adjacent","BC","2","3","L.jpg","N.jpg","0","1","0","",""
"","feedback","","html-keyboard-response","550","463148","0.0-1.0-780.0-0.0","0","0","31968","","null","","","null","86","","","","","","","","","","","","","","","",""
"","time_out","","html-keyboard-response","551","465156","0.0-1.0-782.0-0.0","0","0","31968","","null","","","null","86","","","","","","","","","","","","","","","",""
"","ITI","","html-keyboard-response","552","466164","0.0-1.0-783.0","0","0","31968","","null","","","null","86","","","","","","","","","","","","","","","NaN",""
"","S1","","html-keyboard-response","553","466421","0.0-1.0-785.0","0","0","31968","","null","","","null","87","","","","","","","","","","","","","","","",""
"","ISI","","html-keyboard-response","554","467425","0.0-1.0-786.0","0","0","31968","","null","","","null","87","NaN","","","","","","","","","","","","","","",""
"","S2","","html-keyboard-response","555","467681","0.0-1.0-787.0","0","0","31968","","null","","","null","87","","NaN","","","","","","","","","","","","","",""
"","response","","html-keyboard-response","556","468177","0.0-1.0-788.0-0.0","0","0","31968","","494","","","75","87","","","2","87","training","adjacent","EF","5","6","M.jpg","O.jpg","0","1","0","",""
"","feedback","","html-keyboard-response","557","469185","0.0-1.0-789.0-0.0","0","0","31968","","null","","","null","87","","","","","","","","","","","","","","","",""
"","time_out","","html-keyboard-response","558","471194","0.0-1.0-791.0-0.0","0","0","31968","","null","","","null","87","","","","","","","","","","","","","","","",""
"","ITI","","html-keyboard-response","559","472203","0.0-1.0-792.0","0","0","31968","","null","","","null","87","","","","","","","","","","","","","","","NaN",""
"","S1","","html-keyboard-response","560","472459","0.0-1.0-794.0","0","0","31968","","null","","","null","88","","","","","","","","","","","","","","","",""
"","ISI","","html-keyboard-response","561","473468","0.0-1.0-795.0","0","0","31968","","null","","","null","88","NaN","","","","","","","","","","","","","","",""
"","S2","","html-keyboard-response","562","473724","0.0-1.0-796.0","0","0","31968","","null","","","null","88","","NaN","","","","","","","","","","","","","",""
"","response","","html-keyboard-response","563","474090","0.0-1.0-797.0-0.0","0","0","31968","","363","","","75","88","","","2","88","training","adjacent","ED","5","4","M.jpg","Q.jpg","0","0","1","",""
"","feedback","","html-keyboard-response","564","475100","0.0-1.0-798.0-0.0","0","0","31968","","null","","","null","88","","","","","","","","","","","","","","","",""
"","ITI","","html-keyboard-response","565","476105","0.0-1.0-801.0","0","0","31968","","null","","","null","88","","","","","","","","","","","","","","","NaN",""
"","S1","","html-keyboard-response","566","476361","0.0-1.0-803.0","0","0","31968","","null","","","null","89","","","","","","","","","","","","","","","",""
"","ISI","","html-keyboard-response","567","477370","0.0-1.0-804.0","0","0","31968","","null","","","null","89","NaN","","","","","","","","","","","","","","",""
"","S2","","html-keyboard-response","568","477625","0.0-1.0-805.0","0","0","31968","","null","","","null","89","","NaN","","","","","","","","","","","","","",""
"","response","","html-keyboard-response","569","478209","0.0-1.0-806.0-0.0","0","0","31968","","582","","","68","89","","","2","89","training","adjacent","FE","6","5","O.jpg","M.jpg","1","0","0","",""
"","feedback","","html-keyboard-response","570","479221","0.0-1.0-807.0-0.0","0","0","31968","","null","","","null","89","","","","","","","","","","","","","","","",""
"","time_out","","html-keyboard-response","571","481229","0.0-1.0-809.0-0.0","0","0","31968","","null","","","null","89","","","","","","","","","","","","","","","",""
"","ITI","","html-keyboard-response","572","482234","0.0-1.0-810.0","0","0","31968","","null","","","null","89","","","","","","","","","","","","","","","NaN",""
"","S1","","html-keyboard-response","573","482490","0.0-1.0-812.0","0","0","31968","","null","","","null","90","","","","","","","","","","","","","","","",""
"","ISI","","html-keyboard-response","574","483500","0.0-1.0-813.0","0","0","31968","","null","","","null","90","NaN","","","","","","","","","","","","","","",""
"","S2","","html-keyboard-response","575","483757","0.0-1.0-814.0","0","0","31968","","null","","","null","90","","NaN","","","","","","","","","","","","","",""
"","response","","html-keyboard-response","576","484209","0.0-1.0-815.0-0.0","0","0","31968","","451","","","68","90","","","2","90","training","adjacent","FG","6","7","O.jpg","R.jpg","1","1","1","",""
"","feedback","","html-keyboard-response","577","485218","0.0-1.0-816.0-0.0","0","0","31968","","null","","","null","90","","","","","","","","","","","","","","","",""
"","ITI","","html-keyboard-response","578","486228","0.0-1.0-819.0","0","0","31968","","null","","","null","90","","","","","","","","","","","","","","","NaN",""
"","S1","","html-keyboard-response","579","486483","0.0-1.0-821.0","0","0","31968","","null","","","null","91","","","","","","","","","","","","","","","",""
"","ISI","","html-keyboard-response","580","487491","0.0-1.0-822.0","0","0","31968","","null","","","null","91","NaN","","","","","","","","","","","","","","",""
"","S2","","html-keyboard-response","581","487749","0.0-1.0-823.0","0","0","31968","","null","","","null","91","","NaN","","","","","","","","","","","","","",""
