"success","ttype","start_time","trial_type","trial_index","time_elapsed","internal_node_id","warning","missed_checkup","PID","view_history","rt","responses","repeat_instructions","key_press","index","keypress_isi","keypress_S2","block","trial_num","phase","group_type","pair_type","S1_stim","S2_stim","S1_img","S2_img","S1_chosen","S1_higher","accuracy","keypress_iti","total_bonus_tally"
"true","full_screen","d04062023hr2156","fullscreen","0","105545","0.0-0.0","0","0","67883","","","","","","","","","","","","","","","","","","","","","",""
"","instructions","","instructions","1","167707","0.0-1.0-0.0-0.0","0","0","67883","[{""page_index"":0,""viewing_time"":7471},{""page_index"":1,""viewing_time"":41304},{""page_index"":2,""viewing_time"":7215},{""page_index"":1,""viewing_time"":2312},{""page_index"":2,""viewing_time"":2433},{""page_index"":3,""viewing_time"":1424}]","62160","","","","","","","","","","","","","","","","","","","",""
"","comprehension_check","","survey-multi-choice","2","192084","0.0-1.0-0.0-1.0","0","0","67883","","24369","{""Q0"":""True"",""Q1"":""K"",""Q2"":""Only when the screen 'MAKE A CHOICE' is shown"",""Q3"":""Green mark"",""Q4"":""either D or K""}","1","","","","","","","","","","","","","","","","","",""
"","missed_instruction_checkup","","html-keyboard-response","3","194282","0.0-1.0-0.0-2.0-0.0","0","1","67883","","2148","","","32","","","","","","","","","","","","","","","","",""
"","instructions","","instructions","4","204363","0.0-1.0-0.1-0.1","0","0","67883","[{""page_index"":0,""viewing_time"":2019},{""page_index"":1,""viewing_time"":6705},{""page_index"":2,""viewing_time"":832},{""page_index"":3,""viewing_time"":520}]","10077","","","","","","","","","","","","","","","","","","","",""
"","comprehension_check","","survey-multi-choice","5","218042","0.0-1.0-0.1-1.1","0","0","67883","","13673","{""Q0"":""True"",""Q1"":""K"",""Q2"":""Once the second image appears and while the screen 'MAKE A CHOICE' is shown"",""Q3"":""Green mark"",""Q4"":""either D or K""}","0","","","","","","","","","","","","","","","","","",""
"","start_exp","","html-keyboard-response","6","219673","0.0-1.0-1.0","0","0","67883","","1627","","","32","","","","","","","","","","","","","","","","",""
"","S1","","html-keyboard-response","7","219827","0.0-1.0-2.0","0","0","67883","","null","","","null","0","","","","","","","","","","","","","","","",""
"","ISI","","html-keyboard-response","8","221830","0.0-1.0-3.0","0","0","67883","","null","","","null","0","NaN","","","","","","","","","","","","","","",""
"","S2","","html-keyboard-response","9","221983","0.0-1.0-4.0","0","0","67883","","null","","","null","0","","NaN","","","","","","","","","","","","","",""
"","response","","html-keyboard-response","10","223672","0.0-1.0-5.0-0.0","0","0","67883","","1687","","","75","0","","","1","0","training","adjacent","BA","2","1","O.jpg","N.jpg","1","0","0","",""
"","feedback","","html-keyboard-response","11","224676","0.0-1.0-6.0-0.0","0","0","67883","","null","","","null","0","","","","","","","","","","","","","","","",""
"","time_out","","html-keyboard-response","12","226680","0.0-1.0-8.0-0.0","0","0","67883","","null","","","null","0","","","","","","","","","","","","","","","",""
"","ITI","","html-keyboard-response","13","227684","0.0-1.0-9.0","0","0","67883","","null","","","null","0","","","","","","","","","","","","","","","NaN",""
"","S1","","html-keyboard-response","14","227838","0.0-1.0-11.0","0","0","67883","","null","","","null","1","","","","","","","","","","","","","","","",""
"","ISI","","html-keyboard-response","15","229840","0.0-1.0-12.0","0","0","67883","","null","","","null","1","NaN","","","","","","","","","","","","","","",""
"","S2","","html-keyboard-response","16","229994","0.0-1.0-13.0","0","0","67883","","null","","","null","1","","NaN","","","","","","","","","","","","","",""
"","response","","html-keyboard-response","17","230485","0.0-1.0-14.0-0.0","0","0","67883","","488","","","68","1","","","1","1","training","adjacent","ED","5","4","P.jpg","M.jpg","0","0","1","",""
"","feedback","","html-keyboard-response","18","231488","0.0-1.0-15.0-0.0","0","0","67883","","null","","","null","1","","","","","","","","","","","","","","","",""
"","ITI","","html-keyboard-response","19","232491","0.0-1.0-18.0","0","0","67883","","null","","","null","1","","","","","","","","","","","","","","","NaN",""
"","S1","","html-keyboard-response","20","232644","0.0-1.0-20.0","0","0","67883","","null","","","null","2","","","","","","","","","","","","","","","",""
"","ISI","","html-keyboard-response","21","234648","0.0-1.0-21.0","0","0","67883","","null","","","null","2","NaN","","","","","","","","","","","","","","",""
"","S2","","html-keyboard-response","22","234808","0.0-1.0-22.0","0","0","67883","","null","","","null","2","","NaN","","","","","","","","","","","","","",""
"","response","","html-keyboard-response","23","235401","0.0-1.0-23.0-0.0","0","0","67883","","590","","","75","2","","","1","2","training","adjacent","DE","4","5","M.jpg","P.jpg","1","1","1","",""
"","feedback","","html-keyboard-response","24","236403","0.0-1.0-24.0-0.0","0","0","67883","","null","","","null","2","","","","","","","","","","","","","","","",""
"","ITI","","html-keyboard-response","25","237407","0.0-1.0-27.0","0","0","67883","","null","","","null","2","","","","","","","","","","","","","","","NaN",""
"","S1","","html-keyboard-response","26","237560","0.0-1.0-29.0","0","0","67883","","null","","","null","3","","","","","","","","","","","","","","","",""
"","ISI","","html-keyboard-response","27","239563","0.0-1.0-30.0","0","0","67883","","null","","","null","3","NaN","","","","","","","","","","","","","","",""
"","S2","","html-keyboard-response","28","239718","0.0-1.0-31.0","0","0","67883","","null","","","null","3","","NaN","","","","","","","","","","","","","",""
"","response","","html-keyboard-response","29","240162","0.0-1.0-32.0-0.0","0","0","67883","","441","","","75","3","","","1","3","training","adjacent","AB","1","2","N.jpg","O.jpg","1","1","1","",""
"","feedback","","html-keyboard-response","30","241167","0.0-1.0-33.0-0.0","0","0","67883","","null","","","null","3","","","","","","","","","","","","","","","",""
"","ITI","","html-keyboard-response","31","242171","0.0-1.0-36.0","0","0","67883","","null","","","null","3","","","","","","","","","","","","","","","NaN",""
"","S1","","html-keyboard-response","32","242326","0.0-1.0-38.0","0","0","67883","","null","","","null","4","","","","","","","","","","","","","","","",""
"","ISI","","html-keyboard-response","33","244330","0.0-1.0-39.0","0","0","67883","","null","","","null","4","NaN","","","","","","","","","","","","","","",""
"","S2","","html-keyboard-response","34","244483","0.0-1.0-40.0","0","0","67883","","null","","","null","4","","NaN","","","","","","","","","","","","","",""
"","response","","html-keyboard-response","35","244906","0.0-1.0-41.0-0.0","0","0","67883","","420","","","75","4","","","1","4","training","adjacent","AB","1","2","N.jpg","O.jpg","1","1","1","",""
"","feedback","","html-keyboard-response","36","245955","0.0-1.0-42.0-0.0","0","0","67883","","null","","","null","4","","","","","","","","","","","","","","","",""
"","ITI","","html-keyboard-response","37","246958","0.0-1.0-45.0","0","0","67883","","null","","","null","4","","","","","","","","","","","","","","","NaN",""
"","S1","","html-keyboard-response","38","247112","0.0-1.0-47.0","0","0","67883","","null","","","null","5","","","","","","","","","","","","","","","",""
"","ISI","","html-keyboard-response","39","249115","0.0-1.0-48.0","0","0","67883","","null","","","null","5","NaN","","","","","","","","","","","","","","",""
"","S2","","html-keyboard-response","40","249272","0.0-1.0-49.0","0","0","67883","","null","","","null","5","","NaN","","","","","","","","","","","","","",""
"","response","","html-keyboard-response","41","249818","0.0-1.0-50.0-0.0","0","0","67883","","544","","","68","5","","","1","5","training","adjacent","BC","2","3","O.jpg","Q.jpg","0","1","0","",""
"","feedback","","html-keyboard-response","42","250822","0.0-1.0-51.0-0.0","0","0","67883","","null","","","null","5","","","","","","","","","","","","","","","",""
"","time_out","","html-keyboard-response","43","252825","0.0-1.0-53.0-0.0","0","0","67883","","null","","","null","5","","","","","","","","","","","","","","","",""
"","ITI","","html-keyboard-response","44","253829","0.0-1.0-54.0","0","0","67883","","null","","","null","5","","","","","","","","","","","","","","","NaN",""
"","S1","","html-keyboard-response","45","254020","0.0-1.0-56.0","0","0","67883","","null","","","null","6","","","","","","","","","","","","","","","",""
"","ISI","","html-keyboard-response","46","256023","0.0-1.0-57.0","0","0","67883","","null","","","null","6","NaN","","","","","","","","","","","","","","",""
"","S2","","html-keyboard-response","47","256178","0.0-1.0-58.0","0","0","67883","","null","","","null","6","","NaN","","","","","","","","","","","","","",""
"","response","","html-keyboard-response","48","258032","0.0-1.0-59.0-0.0","0","0","67883","","null","","","null","6","","","1","6","training","adjacent","FE","6","5","R.jpg","P.jpg","NaN","0","0","",""
"","too_slow_prompt","","html-keyboard-response","49","259035","0.0-1.0-61.0-0.0","1","0","67883","","null","","","null","","","","","","","","","","","","","","","","",""
"","time_out","","html-keyboard-response","50","261037","0.0-1.0-62.0-0.0","0","0","67883","","null","","","null","6","","","","","","","","","","","","","","","",""
"","ITI","","html-keyboard-response","51","262041","0.0-1.0-63.0","0","0","67883","","null","","","null","6","","","","","","","","","","","","","","","NaN",""
"","S1","","html-keyboard-response","52","262210","0.0-1.0-65.0","0","0","67883","","null","","","null","7","","","","","","","","","","","","","","","",""
"","ISI","","html-keyboard-response","53","264213","0.0-1.0-66.0","0","0","67883","","null","","","null","7","NaN","","","","","","","","","","","","","","",""
"","S2","","html-keyboard-response","54","264367","0.0-1.0-67.0","0","0","67883","","null","","","null","7","","NaN","","","","","","","","","","","","","",""
"","response","","html-keyboard-response","55","264841","0.0-1.0-68.0-0.0","0","0","67883","","472","","","75","7","","","1","7","training","adjacent","DC","4","3","M.jpg","Q.jpg","1","0","0","",""
"","feedback","","html-keyboard-response","56","265844","0.0-1.0-69.0-0.0","0","0","67883","","null","","","null","7","","","","","","","","","","","","","","","",""
"","time_out","","html-keyboard-response","57","267847","0.0-1.0-71.0-0.0","0","0","67883","","null","","","null","7","","","","","","","","","","","","","","","",""
"","ITI","","html-keyboard-response","58","268850","0.0-1.0-72.0","0","0","67883","","null","","","null","7","","","","","","","","","","","","","","","NaN",""
"","S1","","html-keyboard-response","59","269004","0.0-1.0-74.0","0","0","67883","","null","","","null","8","","","","","","","","","","","","","","","",""
"","ISI","","html-keyboard-response","60","271008","0.0-1.0-75.0","0","0","67883","","null","","","null","8","NaN","","","","","","","","","","","","","","",""
"","S2","","html-keyboard-response","61","271169","0.0-1.0-76.0","0","0","67883","","null","","","null","8","","NaN","","","","","","","","","","","","","",""
"","response","","html-keyboard-response","62","271395","0.0-1.0-77.0-0.0","0","0","67883","","223","","","75","8","","","1","8","training","adjacent","AB","1","2","N.jpg","O.jpg","1","1","1","",""
"","feedback","","html-keyboard-response","63","272398","0.0-1.0-78.0-0.0","0","0","67883","","null","","","null","8","","","","","","","","","","","","","","","",""
"","ITI","","html-keyboard-response","64","273402","0.0-1.0-81.0","0","0","67883","","null","","","null","8","","","","","","","","","","","","","","","NaN",""
"","S1","","html-keyboard-response","65","273559","0.0-1.0-83.0","0","0","67883","","null","","","null","9","","","","","","","","","","","","","","","",""
"","ISI","","html-keyboard-response","66","275561","0.0-1.0-84.0","0","0","67883","","null","","","null","9","NaN","","","","","","","","","","","","","","",""
"","S2","","html-keyboard-response","67","275715","0.0-1.0-85.0","0","0","67883","","null","","","null","9","","NaN","","","","","","","","","","","","","",""
"","response","","html-keyboard-response","68","276085","0.0-1.0-86.0-0.0","0","0","67883","","368","","","68","9","","","1","9","training","adjacent","ED","5","4","P.jpg","M.jpg","0","0","1","",""
"","feedback","","html-keyboard-response","69","277088","0.0-1.0-87.0-0.0","0","0","67883","","null","","","null","9","","","","","","","","","","","","","","","",""
"","ITI","","html-keyboard-response","70","278151","0.0-1.0-90.0","0","0","67883","","null","","","null","9","","","","","","","","","","","","","","","NaN",""
"","S1","","html-keyboard-response","71","278330","0.0-1.0-92.0","0","0","67883","","null","","","null","10","","","","","","","","","","","","","","","",""
"","ISI","","html-keyboard-response","72","280333","0.0-1.0-93.0","0","0","67883","","null","","","null","10","NaN","","","","","","","","","","","","","","",""
"","S2","","html-keyboard-response","73","280486","0.0-1.0-94.0","0","0","67883","","null","","","null","10","","NaN","","","","","","","","","","","","","",""
"","response","","html-keyboard-response","74","280799","0.0-1.0-95.0-0.0","0","0","67883","","311","","","75","10","","","1","10","training","adjacent","DC","4","3","M.jpg","Q.jpg","1","0","0","",""
"","feedback","","html-keyboard-response","75","281802","0.0-1.0-96.0-0.0","0","0","67883","","null","","","null","10","","","","","","","","","","","","","","","",""
"","time_out","","html-keyboard-response","76","283806","0.0-1.0-98.0-0.0","0","0","67883","","null","","","null","10","","","","","","","","","","","","","","","",""
"","ITI","","html-keyboard-response","77","284808","0.0-1.0-99.0","0","0","67883","","null","","","null","10","","","","","","","","","","","","","","","NaN",""
"","S1","","html-keyboard-response","78","284962","0.0-1.0-101.0","0","0","67883","","null","","","null","11","","","","","","","","","","","","","","","",""
"","ISI","","html-keyboard-response","79","286964","0.0-1.0-102.0","0","0","67883","","null","","","null","11","NaN","","","","","","","","","","","","","","",""
"","S2","","html-keyboard-response","80","287144","0.0-1.0-103.0","0","0","67883","","null","","","null","11","","NaN","","","","","","","","","","","","","",""
"","response","","html-keyboard-response","81","287802","0.0-1.0-104.0-0.0","0","0","67883","","656","","","75","11","","","1","11","training","adjacent","FG","6","7","R.jpg","L.jpg","1","1","1","",""
"","feedback","","html-keyboard-response","82","288806","0.0-1.0-105.0-0.0","0","0","67883","","null","","","null","11","","","","","","","","","","","","","","","",""
"","ITI","","html-keyboard-response","83","289809","0.0-1.0-108.0","0","0","67883","","null","","","null","11","","","","","","","","","","","","","","","NaN",""
"","S1","","html-keyboard-response","84","289961","0.0-1.0-110.0","0","0","67883","","null","","","null","12","","","","","","","","","","","","","","","",""
"","ISI","","html-keyboard-response","85","291964","0.0-1.0-111.0","0","0","67883","","null","","","null","12","NaN","","","","","","","","","","","","","","",""
"","S2","","html-keyboard-response","86","292119","0.0-1.0-112.0","0","0","67883","","null","","","null","12","","NaN","","","","","","","","","","","","","",""
"","response","","html-keyboard-response","87","292704","0.0-1.0-113.0-0.0","0","0","67883","","583","","","75","12","","","1","12","training","adjacent","FG","6","7","R.jpg","L.jpg","1","1","1","",""
"","feedback","","html-keyboard-response","88","293707","0.0-1.0-114.0-0.0","0","0","67883","","null","","","null","12","","","","","","","","","","","","","","","",""
"","ITI","","html-keyboard-response","89","294711","0.0-1.0-117.0","0","0","67883","","null","","","null","12","","","","","","","","","","","","","","","NaN",""
"","S1","","html-keyboard-response","90","294865","0.0-1.0-119.0","0","0","67883","","null","","","null","13","","","","","","","","","","","","","","","",""
"","ISI","","html-keyboard-response","91","296868","0.0-1.0-120.0","0","0","67883","","null","","","null","13","NaN","","","","","","","","","","","","","","",""
"","S2","","html-keyboard-response","92","297021","0.0-1.0-121.0","0","0","67883","","null","","","null","13","","NaN","","","","","","","","","","","","","",""
"","response","","html-keyboard-response","93","297380","0.0-1.0-122.0-0.0","0","0","67883","","356","","","68","13","","","1","13","training","adjacent","BC","2","3","O.jpg","Q.jpg","0","1","0","",""
"","feedback","","html-keyboard-response","94","298383","0.0-1.0-123.0-0.0","0","0","67883","","null","","","null","13","","","","","","","","","","","","","","","",""
"","time_out","","html-keyboard-response","95","300386","0.0-1.0-125.0-0.0","0","0","67883","","null","","","null","13","","","","","","","","","","","","","","","",""
"","ITI","","html-keyboard-response","96","301389","0.0-1.0-126.0","0","0","67883","","null","","","null","13","","","","","","","","","","","","","","","NaN",""
"","S1","","html-keyboard-response","97","301543","0.0-1.0-128.0","0","0","67883","","null","","","null","14","","","","","","","","","","","","","","","",""
"","ISI","","html-keyboard-response","98","303545","0.0-1.0-129.0","0","0","67883","","null","","","null","14","NaN","","","","","","","","","","","","","","",""
"","S2","","html-keyboard-response","99","303705","0.0-1.0-130.0","0","0","67883","","null","","","null","14","","NaN","","","","","","","","","","","","","",""
"","response","","html-keyboard-response","100","303973","0.0-1.0-131.0-0.0","0","0","67883","","265","","","75","14","","","1","14","training","adjacent","CB","3","2","Q.jpg","O.jpg","1","0","0","",""
"","feedback","","html-keyboard-response","101","304976","0.0-1.0-132.0-0.0","0","0","67883","","null","","","null","14","","","","","","","","","","","","","","","",""
"","time_out","","html-keyboard-response","102","306982","0.0-1.0-134.0-0.0","0","0","67883","","null","","","null","14","","","","","","","","","","","","","","","",""
"","ITI","","html-keyboard-response","103","307985","0.0-1.0-135.0","0","0","67883","","null","","","null","14","","","","","","","","","","","","","","","NaN",""
"","S1","","html-keyboard-response","104","308141","0.0-1.0-137.0","0","0","67883","","null","","","null","15","","","","","","","","","","","","","","","",""
"","ISI","","html-keyboard-response","105","310150","0.0-1.0-138.0","0","0","67883","","null","","","null","15","NaN","","","","","","","","","","","","","","",""
"","S2","","html-keyboard-response","106","310321","0.0-1.0-139.0","0","0","67883","","null","","","null","15","","NaN","","","","","","","","","","","","","",""
"","response","","html-keyboard-response","107","311066","0.0-1.0-140.0-0.0","0","0","67883","","744","","","68","15","","","1","15","training","adjacent","DC","4","3","M.jpg","Q.jpg","0","0","1","",""
"","feedback","","html-keyboard-response","108","312070","0.0-1.0-141.0-0.0","0","0","67883","","null","","","null","15","","","","","","","","","","","","","","","",""
"","ITI","","html-keyboard-response","109","313073","0.0-1.0-144.0","0","0","67883","","null","","","null","15","","","","","","","","","","","","","","","NaN",""
"","S1","","html-keyboard-response","110","313226","0.0-1.0-146.0","0","0","67883","","null","","","null","16","","","","","","","","","","","","","","","",""
"","ISI","","html-keyboard-response","111","315234","0.0-1.0-147.0","0","0","67883","","null","","","null","16","NaN","","","","","","","","","","","","","","",""
"","S2","","html-keyboard-response","112","315388","0.0-1.0-148.0","0","0","67883","","null","","","null","16","","NaN","","","","","","","","","","","","","",""
"","response","","html-keyboard-response","113","316028","0.0-1.0-149.0-0.0","0","0","67883","","637","","","68","16","","","1","16","training","adjacent","BA","2","1","O.jpg","N.jpg","0","0","1","",""
"","feedback","","html-keyboard-response","114","317032","0.0-1.0-150.0-0.0","0","0","67883","","null","","","null","16","","","","","","","","","","","","","","","",""
"","ITI","","html-keyboard-response","115","318035","0.0-1.0-153.0","0","0","67883","","null","","","null","16","","","","","","","","","","","","","","","NaN",""
"","S1","","html-keyboard-response","116","318189","0.0-1.0-155.0","0","0","67883","","null","","","null","17","","","","","","","","","","","","","","","",""
"","ISI","","html-keyboard-response","117","320194","0.0-1.0-156.0","0","0","67883","","null","","","null","17","NaN","","","","","","","","","","","","","","",""
"","S2","","html-keyboard-response","118","320350","0.0-1.0-157.0","0","0","67883","","null","","","null","17","","NaN","","","","","","","","","","","","","",""
"","response","","html-keyboard-response","119","321348","0.0-1.0-158.0-0.0","0","0","67883","","994","","","68","17","","","1","17","training","adjacent","DC","4","3","M.jpg","Q.jpg","0","0","1","",""
"","feedback","","html-keyboard-response","120","322351","0.0-1.0-159.0-0.0","0","0","67883","","null","","","null","17","","","","","","","","","","","","","","","",""
"","ITI","","html-keyboard-response","121","323362","0.0-1.0-162.0","0","0","67883","","null","","","null","17","","","","","","","","","","","","","","","NaN",""
"","S1","","html-keyboard-response","122","323515","0.0-1.0-164.0","0","0","67883","","null","","","null","18","","","","","","","","","","","","","","","",""
"","ISI","","html-keyboard-response","123","325518","0.0-1.0-165.0","0","0","67883","","null","","","null","18","NaN","","","","","","","","","","","","","","",""
"","S2","","html-keyboard-response","124","325673","0.0-1.0-166.0","0","0","67883","","null","","","null","18","","NaN","","","","","","","","","","","","","",""
"","response","","html-keyboard-response","125","326416","0.0-1.0-167.0-0.0","0","0","67883","","741","","","68","18","","","1","18","training","adjacent","CD","3","4","Q.jpg","M.jpg","0","1","0","",""
"","feedback","","html-keyboard-response","126","327419","0.0-1.0-168.0-0.0","0","0","67883","","null","","","null","18","","","","","","","","","","","","","","","",""
"","time_out","","html-keyboard-response","127","329422","0.0-1.0-170.0-0.0","0","0","67883","","null","","","null","18","","","","","","","","","","","","","","","",""
"","ITI","","html-keyboard-response","128","330425","0.0-1.0-171.0","0","0","67883","","null","","","null","18","","","","","","","","","","","","","","","NaN",""
"","S1","","html-keyboard-response","129","330578","0.0-1.0-173.0","0","0","67883","","null","","","null","19","","","","","","","","","","","","","","","",""
"","ISI","","html-keyboard-response","130","332581","0.0-1.0-174.0","0","0","67883","","null","","","null","19","NaN","","","","","","","","","","","","","","",""
"","S2","","html-keyboard-response","131","332735","0.0-1.0-175.0","0","0","67883","","null","","","null","19","","NaN","","","","","","","","","","","","","",""
"","response","","html-keyboard-response","132","333161","0.0-1.0-176.0-0.0","0","0","67883","","424","","","68","19","","","1","19","training","adjacent","EF","5","6","P.jpg","R.jpg","0","1","0","",""
"","feedback","","html-keyboard-response","133","334166","0.0-1.0-177.0-0.0","0","0","67883","","null","","","null","19","","","","","","","","","","","","","","","",""
"","time_out","","html-keyboard-response","134","336170","0.0-1.0-179.0-0.0","0","0","67883","","null","","","null","19","","","","","","","","","","","","","","","",""
"","ITI","","html-keyboard-response","135","337173","0.0-1.0-180.0","0","0","67883","","null","","","null","19","","","","","","","","","","","","","","","NaN",""
"","S1","","html-keyboard-response","136","337326","0.0-1.0-182.0","0","0","67883","","null","","","null","20","","","","","","","","","","","","","","","",""
"","ISI","","html-keyboard-response","137","339330","0.0-1.0-183.0","0","0","67883","","null","","","null","20","NaN","","","","","","","","","","","","","","",""
"","S2","","html-keyboard-response","138","339484","0.0-1.0-184.0","0","0","67883","","null","","","null","20","","NaN","","","","","","","","","","","","","",""
"","response","","html-keyboard-response","139","340464","0.0-1.0-185.0-0.0","0","0","67883","","978","","","68","20","","","1","20","training","adjacent","ED","5","4","P.jpg","M.jpg","0","0","1","",""
"","feedback","","html-keyboard-response","140","341466","0.0-1.0-186.0-0.0","0","0","67883","","null","","","null","20","","","","","","","","","","","","","","","",""
"","ITI","","html-keyboard-response","141","342469","0.0-1.0-189.0","0","0","67883","","null","","","null","20","","","","","","","","","","","","","","","NaN",""
"","S1","","html-keyboard-response","142","342622","0.0-1.0-191.0","0","0","67883","","null","","","null","21","","","","","","","","","","","","","","","",""
"","ISI","","html-keyboard-response","143","344625","0.0-1.0-192.0","0","0","67883","","null","","","null","21","NaN","","","","","","","","","","","","","","",""
"","S2","","html-keyboard-response","144","344781","0.0-1.0-193.0","0","0","67883","","null","","","null","21","","NaN","","","","","","","","","","","","","",""
"","response","","html-keyboard-response","145","345292","0.0-1.0-194.0-0.0","0","0","67883","","508","","","68","21","","","1","21","training","adjacent","GF","7","6","L.jpg","R.jpg","0","0","1","",""
"","feedback","","html-keyboard-response","146","346296","0.0-1.0-195.0-0.0","0","0","67883","","null","","","null","21","","","","","","","","","","","","","","","",""
"","ITI","","html-keyboard-response","147","347300","0.0-1.0-198.0","0","0","67883","","null","","","null","21","","","","","","","","","","","","","","","NaN",""
"","S1","","html-keyboard-response","148","347454","0.0-1.0-200.0","0","0","67883","","null","","","null","22","","","","","","","","","","","","","","","",""
"","ISI","","html-keyboard-response","149","349457","0.0-1.0-201.0","0","0","67883","","null","","","null","22","NaN","","","","","","","","","","","","","","",""
"","S2","","html-keyboard-response","150","349610","0.0-1.0-202.0","0","0","67883","","null","","","null","22","","NaN","","","","","","","","","","","","","",""
"","response","","html-keyboard-response","151","350391","0.0-1.0-203.0-0.0","0","0","67883","","778","","","68","22","","","1","22","training","adjacent","CB","3","2","Q.jpg","O.jpg","0","0","1","",""
"","feedback","","html-keyboard-response","152","351394","0.0-1.0-204.0-0.0","0","0","67883","","null","","","null","22","","","","","","","","","","","","","","","",""
"","ITI","","html-keyboard-response","153","352398","0.0-1.0-207.0","0","0","67883","","null","","","null","22","","","","","","","","","","","","","","","NaN",""
"","S1","","html-keyboard-response","154","352565","0.0-1.0-209.0","0","0","67883","","null","","","null","23","","","","","","","","","","","","","","","",""
"","ISI","","html-keyboard-response","155","354568","0.0-1.0-210.0","0","0","67883","","null","","","null","23","NaN","","","","","","","","","","","","","","",""
"","S2","","html-keyboard-response","156","354721","0.0-1.0-211.0","0","0","67883","","null","","","null","23","","NaN","","","","","","","","","","","","","",""
"","response","","html-keyboard-response","157","355124","0.0-1.0-212.0-0.0","0","0","67883","","402","","","68","23","","","1","23","training","adjacent","ED","5","4","P.jpg","M.jpg","0","0","1","",""
"","feedback","","html-keyboard-response","158","356132","0.0-1.0-213.0-0.0","0","0","67883","","null","","","null","23","","","","","","","","","","","","","","","",""
"","ITI","","html-keyboard-response","159","357136","0.0-1.0-216.0","0","0","67883","","null","","","null","23","","","","","","","","","","","","","","","NaN",""
"","S1","","html-keyboard-response","160","357291","0.0-1.0-218.0","0","0","67883","","null","","","null","24","","","","","","","","","","","","","","","",""
"","ISI","","html-keyboard-response","161","359294","0.0-1.0-219.0","0","0","67883","","null","","","null","24","NaN","","","","","","","","","","","","","","",""
"","S2","","html-keyboard-response","162","359454","0.0-1.0-220.0","0","0","67883","","null","","","null","24","","NaN","","","","","","","","","","","","","",""
"","response","","html-keyboard-response","163","361122","0.0-1.0-221.0-0.0","0","0","67883","","1665","","","75","24","","","1","24","training","adjacent","CD","3","4","Q.jpg","M.jpg","1","1","1","",""
"","feedback","","html-keyboard-response","164","362125","0.0-1.0-222.0-0.0","0","0","67883","","null","","","null","24","","","","","","","","","","","","","","","",""
"","ITI","","html-keyboard-response","165","363129","0.0-1.0-225.0","0","0","67883","","null","","","null","24","","","","","","","","","","","","","","","NaN",""
"","S1","","html-keyboard-response","166","363284","0.0-1.0-227.0","0","0","67883","","null","","","null","25","","","","","","","","","","","","","","","",""
"","ISI","","html-keyboard-response","167","365288","0.0-1.0-228.0","0","0","67883","","null","","","null","25","NaN","","","","","","","","","","","","","","",""
"","S2","","html-keyboard-response","168","365442","0.0-1.0-229.0","0","0","67883","","null","","","null","25","","NaN","","","","","","","","","","","","","",""
"","response","","html-keyboard-response","169","366055","0.0-1.0-230.0-0.0","0","0","67883","","611","","","75","25","","","1","25","training","adjacent","DE","4","5","M.jpg","P.jpg","1","1","1","",""
"","feedback","","html-keyboard-response","170","367059","0.0-1.0-231.0-0.0","0","0","67883","","null","","","null","25","","","","","","","","","","","","","","","",""
"","ITI","","html-keyboard-response","171","368063","0.0-1.0-234.0","0","0","67883","","null","","","null","25","","","","","","","","","","","","","","","NaN",""
"","S1","","html-keyboard-response","172","368222","0.0-1.0-236.0","0","0","67883","","null","","","null","26","","","","","","","","","","","","","","","",""
"","ISI","","html-keyboard-response","173","370225","0.0-1.0-237.0","0","0","67883","","null","","","null","26","NaN","","","","","","","","","","","","","","",""
"","S2","","html-keyboard-response","174","370380","0.0-1.0-238.0","0","0","67883","","null","","","null","26","","NaN","","","","","","","","","","","","","",""
"","response","","html-keyboard-response","175","370815","0.0-1.0-239.0-0.0","0","0","67883","","434","","","75","26","","","1","26","training","adjacent","BC","2","3","O.jpg","Q.jpg","1","1","1","",""
"","feedback","","html-keyboard-response","176","371819","0.0-1.0-240.0-0.0","0","0","67883","","null","","","null","26","","","","","","","","","","","","","","","",""
"","ITI","","html-keyboard-response","177","372822","0.0-1.0-243.0","0","0","67883","","null","","","null","26","","","","","","","","","","","","","","","NaN",""
"","S1","","html-keyboard-response","178","372976","0.0-1.0-245.0","0","0","67883","","null","","","null","27","","","","","","","","","","","","","","","",""
"","ISI","","html-keyboard-response","179","374978","0.0-1.0-246.0","0","0","67883","","null","","","null","27","NaN","","","","","","","","","","","","","","",""
"","S2","","html-keyboard-response","180","375132","0.0-1.0-247.0","0","0","67883","","null","","","null","27","","NaN","","","","","","","","","","","","","",""
"","response","","html-keyboard-response","181","375511","0.0-1.0-248.0-0.0","0","0","67883","","376","","","68","27","","","1","27","training","adjacent","GF","7","6","L.jpg","R.jpg","0","0","1","",""
"","feedback","","html-keyboard-response","182","376514","0.0-1.0-249.0-0.0","0","0","67883","","null","","","null","27","","","","","","","","","","","","","","","",""
"","ITI","","html-keyboard-response","183","377517","0.0-1.0-252.0","0","0","67883","","null","","","null","27","","","","","","","","","","","","","","","NaN",""
"","S1","","html-keyboard-response","184","377670","0.0-1.0-254.0","0","0","67883","","null","","","null","28","","","","","","","","","","","","","","","",""
"","ISI","","html-keyboard-response","185","379673","0.0-1.0-255.0","0","0","67883","","null","","","null","28","NaN","","","","","","","","","","","","","","",""
"","S2","","html-keyboard-response","186","379827","0.0-1.0-256.0","0","0","67883","","null","","","null","28","","NaN","","","","","","","","","","","","","",""
"","response","","html-keyboard-response","187","380285","0.0-1.0-257.0-0.0","0","0","67883","","457","","","68","28","","","1","28","training","adjacent","EF","5","6","P.jpg","R.jpg","0","1","0","",""
"","feedback","","html-keyboard-response","188","381289","0.0-1.0-258.0-0.0","0","0","67883","","null","","","null","28","","","","","","","","","","","","","","","",""
"","time_out","","html-keyboard-response","189","383294","0.0-1.0-260.0-0.0","0","0","67883","","null","","","null","28","","","","","","","","","","","","","","","",""
"","ITI","","html-keyboard-response","190","384300","0.0-1.0-261.0","0","0","67883","","null","","","null","28","","","","","","","","","","","","","","","NaN",""
"","S1","","html-keyboard-response","191","384453","0.0-1.0-263.0","0","0","67883","","null","","","null","29","","","","","","","","","","","","","","","",""
"","ISI","","html-keyboard-response","192","386463","0.0-1.0-264.0","0","0","67883","","null","","","null","29","NaN","","","","","","","","","","","","","","",""
"","S2","","html-keyboard-response","193","386618","0.0-1.0-265.0","0","0","67883","","null","","","null","29","","NaN","","","","","","","","","","","","","",""
"","response","","html-keyboard-response","194","387097","0.0-1.0-266.0-0.0","0","0","67883","","476","","","68","29","","","1","29","training","adjacent","BA","2","1","O.jpg","N.jpg","0","0","1","",""
"","feedback","","html-keyboard-response","195","388102","0.0-1.0-267.0-0.0","0","0","67883","","null","","","null","29","","","","","","","","","","","","","","","",""
"","ITI","","html-keyboard-response","196","389120","0.0-1.0-270.0","0","0","67883","","null","","","null","29","","","","","","","","","","","","","","","NaN",""
"","S1","","html-keyboard-response","197","389274","0.0-1.0-272.0","0","0","67883","","null","","","null","30","","","","","","","","","","","","","","","",""
"","ISI","","html-keyboard-response","198","391296","0.0-1.0-273.0","0","0","67883","","null","","","null","30","NaN","","","","","","","","","","","","","","",""
"","S2","","html-keyboard-response","199","391460","0.0-1.0-274.0","0","0","67883","","null","","","null","30","","NaN","","","","","","","","","","","","","",""
"","response","","html-keyboard-response","200","392117","0.0-1.0-275.0-0.0","0","0","67883","","655","","","75","30","","","1","30","training","adjacent","DE","4","5","M.jpg","P.jpg","1","1","1","",""
"","feedback","","html-keyboard-response","201","393120","0.0-1.0-276.0-0.0","0","0","67883","","null","","","null","30","","","","","","","","","","","","","","","",""
"","ITI","","html-keyboard-response","202","394137","0.0-1.0-279.0","0","0","67883","","null","","","null","30","","","","","","","","","","","","","","","NaN",""
"","S1","","html-keyboard-response","203","394319","0.0-1.0-281.0","0","0","67883","","null","","","null","31","","","","","","","","","","","","","","","",""
"","ISI","","html-keyboard-response","204","396323","0.0-1.0-282.0","0","0","67883","","null","","","null","31","NaN","","","","","","","","","","","","","","",""
"","S2","","html-keyboard-response","205","396477","0.0-1.0-283.0","0","0","67883","","null","","","null","31","","NaN","","","","","","","","","","","","","",""
"","response","","html-keyboard-response","206","398331","0.0-1.0-284.0-0.0","0","0","67883","","null","","","null","31","","","1","31","training","adjacent","CD","3","4","Q.jpg","M.jpg","NaN","1","0","",""
"","too_slow_prompt","","html-keyboard-response","207","399337","0.0-1.0-286.0-0.0","1","0","67883","","null","","","null","","","","","","","","","","","","","","","","",""
"","time_out","","html-keyboard-response","208","401341","0.0-1.0-287.0-0.0","0","0","67883","","null","","","null","31","","","","","","","","","","","","","","","",""
"","ITI","","html-keyboard-response","209","402345","0.0-1.0-288.0","0","0","67883","","null","","","null","31","","","","","","","","","","","","","","","NaN",""
"","S1","","html-keyboard-response","210","402498","0.0-1.0-290.0","0","0","67883","","null","","","null","32","","","","","","","","","","","","","","","",""
"","ISI","","html-keyboard-response","211","404502","0.0-1.0-291.0","0","0","67883","","null","","","null","32","NaN","","","","","","","","","","","","","","",""
"","S2","","html-keyboard-response","212","404656","0.0-1.0-292.0","0","0","67883","","null","","","null","32","","NaN","","","","","","","","","","","","","",""
"","response","","html-keyboard-response","213","405492","0.0-1.0-293.0-0.0","0","0","67883","","833","","","68","32","","","1","32","training","adjacent","CB","3","2","Q.jpg","O.jpg","0","0","1","",""
"","feedback","","html-keyboard-response","214","406507","0.0-1.0-294.0-0.0","0","0","67883","","null","","","null","32","","","","","","","","","","","","","","","",""
"","ITI","","html-keyboard-response","215","407515","0.0-1.0-297.0","0","0","67883","","null","","","null","32","","","","","","","","","","","","","","","NaN",""
"","S1","","html-keyboard-response","216","407669","0.0-1.0-299.0","0","0","67883","","null","","","null","33","","","","","","","","","","","","","","","",""
"","ISI","","html-keyboard-response","217","409672","0.0-1.0-300.0","0","0","67883","","null","","","null","33","NaN","","","","","","","","","","","","","","",""
"","S2","","html-keyboard-response","218","409826","0.0-1.0-301.0","0","0","67883","","null","","","null","33","","NaN","","","","","","","","","","","","","",""
"","response","","html-keyboard-response","219","410373","0.0-1.0-302.0-0.0","0","0","67883","","544","","","75","33","","","1","33","training","adjacent","FE","6","5","R.jpg","P.jpg","1","0","0","",""
"","feedback","","html-keyboard-response","220","411376","0.0-1.0-303.0-0.0","0","0","67883","","null","","","null","33","","","","","","","","","","","","","","","",""
"","time_out","","html-keyboard-response","221","413390","0.0-1.0-305.0-0.0","0","0","67883","","null","","","null","33","","","","","","","","","","","","","","","",""
"","ITI","","html-keyboard-response","222","414393","0.0-1.0-306.0","0","0","67883","","null","","","null","33","","","","","","","","","","","","","","","NaN",""
"","S1","","html-keyboard-response","223","414545","0.0-1.0-308.0","0","0","67883","","null","","","null","34","","","","","","","","","","","","","","","",""
"","ISI","","html-keyboard-response","224","416548","0.0-1.0-309.0","0","0","67883","","null","","","null","34","NaN","","","","","","","","","","","","","","",""
"","S2","","html-keyboard-response","225","416709","0.0-1.0-310.0","0","0","67883","","null","","","null","34","","NaN","","","","","","","","","","","","","",""
"","response","","html-keyboard-response","226","417048","0.0-1.0-311.0-0.0","0","0","67883","","335","","","68","34","","","1","34","training","adjacent","GF","7","6","L.jpg","R.jpg","0","0","1","",""
"","feedback","","html-keyboard-response","227","418053","0.0-1.0-312.0-0.0","0","0","67883","","null","","","null","34","","","","","","","","","","","","","","","",""
"","ITI","","html-keyboard-response","228","419056","0.0-1.0-315.0","0","0","67883","","null","","","null","34","","","","","","","","","","","","","","","NaN",""
"","S1","","html-keyboard-response","229","419211","0.0-1.0-317.0","0","0","67883","","null","","","null","35","","","","","","","","","","","","","","","",""
"","ISI","","html-keyboard-response","230","421244","0.0-1.0-318.0","0","0","67883","","null","","","null","35","NaN","","","","","","","","","","","","","","",""
"","S2","","html-keyboard-response","231","421426","0.0-1.0-319.0","0","0","67883","","null","","","null","35","","NaN","","","","","","","","","","","","","",""
"","response","","html-keyboard-response","232","422003","0.0-1.0-320.0-0.0","0","0","67883","","574","","","68","35","","","1","35","training","adjacent","BA","2","1","O.jpg","N.jpg","0","0","1","",""
"","feedback","","html-keyboard-response","233","423006","0.0-1.0-321.0-0.0","0","0","67883","","null","","","null","35","","","","","","","","","","","","","","","",""
"","ITI","","html-keyboard-response","234","424009","0.0-1.0-324.0","0","0","67883","","null","","","null","35","","","","","","","","","","","","","","","NaN",""
"","S1","","html-keyboard-response","235","424165","0.0-1.0-326.0","0","0","67883","","null","","","null","36","","","","","","","","","","","","","","","",""
"","ISI","","html-keyboard-response","236","426168","0.0-1.0-327.0","0","0","67883","","null","","","null","36","NaN","","","","","","","","","","","","","","",""
"","S2","","html-keyboard-response","237","426323","0.0-1.0-328.0","0","0","67883","","null","","","null","36","","NaN","","","","","","","","","","","","","",""
"","response","","html-keyboard-response","238","426942","0.0-1.0-329.0-0.0","0","0","67883","","616","","","68","36","","","1","36","training","adjacent","GF","7","6","L.jpg","R.jpg","0","0","1","",""
"","feedback","","html-keyboard-response","239","427946","0.0-1.0-330.0-0.0","0","0","67883","","null","","","null","36","","","","","","","","","","","","","","","",""
"","ITI","","html-keyboard-response","240","428949","0.0-1.0-333.0","0","0","67883","","null","","","null","36","","","","","","","","","","","","","","","NaN",""
"","S1","","html-keyboard-response","241","429103","0.0-1.0-335.0","0","0","67883","","null","","","null","37","","","","","","","","","","","","","","","",""
"","ISI","","html-keyboard-response","242","431107","0.0-1.0-336.0","0","0","67883","","null","","","null","37","NaN","","","","","","","","","","","","","","",""
"","S2","","html-keyboard-response","243","431262","0.0-1.0-337.0","0","0","67883","","null","","","null","37","","NaN","","","","","","","","","","","","","",""
"","response","","html-keyboard-response","244","431692","0.0-1.0-338.0-0.0","0","0","67883","","428","","","75","37","","","1","37","training","adjacent","AB","1","2","N.jpg","O.jpg","1","1","1","",""
"","feedback","","html-keyboard-response","245","432697","0.0-1.0-339.0-0.0","0","0","67883","","null","","","null","37","","","","","","","","","","","","","","","",""
"","ITI","","html-keyboard-response","246","433700","0.0-1.0-342.0","0","0","67883","","null","","","null","37","","","","","","","","","","","","","","","NaN",""
"","S1","","html-keyboard-response","247","433854","0.0-1.0-344.0","0","0","67883","","null","","","null","38","","","","","","","","","","","","","","","",""
"","ISI","","html-keyboard-response","248","435859","0.0-1.0-345.0","0","0","67883","","null","","","null","38","NaN","","","","","","","","","","","","","","",""
"","S2","","html-keyboard-response","249","436013","0.0-1.0-346.0","0","0","67883","","null","","","null","38","","NaN","","","","","","","","","","","","","",""
"","response","","html-keyboard-response","250","436510","0.0-1.0-347.0-0.0","0","0","67883","","494","","","75","38","","","1","38","training","adjacent","FG","6","7","R.jpg","L.jpg","1","1","1","",""
"","feedback","","html-keyboard-response","251","437513","0.0-1.0-348.0-0.0","0","0","67883","","null","","","null","38","","","","","","","","","","","","","","","",""
"","ITI","","html-keyboard-response","252","438516","0.0-1.0-351.0","0","0","67883","","null","","","null","38","","","","","","","","","","","","","","","NaN",""
"","S1","","html-keyboard-response","253","438670","0.0-1.0-353.0","0","0","67883","","null","","","null","39","","","","","","","","","","","","","","","",""
"","ISI","","html-keyboard-response","254","440673","0.0-1.0-354.0","0","0","67883","","null","","","null","39","NaN","","","","","","","","","","","","","","",""
"","S2","","html-keyboard-response","255","440826","0.0-1.0-355.0","0","0","67883","","null","","","null","39","","NaN","","","","","","","","","","","","","",""
"","response","","html-keyboard-response","256","441474","0.0-1.0-356.0-0.0","0","0","67883","","645","","","68","39","","","1","39","training","adjacent","EF","5","6","P.jpg","R.jpg","0","1","0","",""
"","feedback","","html-keyboard-response","257","442477","0.0-1.0-357.0-0.0","0","0","67883","","null","","","null","39","","","","","","","","","","","","","","","",""
"","time_out","","html-keyboard-response","258","444480","0.0-1.0-359.0-0.0","0","0","67883","","null","","","null","39","","","","","","","","","","","","","","","",""
"","ITI","","html-keyboard-response","259","445488","0.0-1.0-360.0","0","0","67883","","null","","","null","39","","","","","","","","","","","","","","","NaN",""
"","S1","","html-keyboard-response","260","445648","0.0-1.0-362.0","0","0","67883","","null","","","null","40","","","","","","","","","","","","","","","",""
"","ISI","","html-keyboard-response","261","447654","0.0-1.0-363.0","0","0","67883","","null","","","null","40","NaN","","","","","","","","","","","","","","",""
"","S2","","html-keyboard-response","262","447807","0.0-1.0-364.0","0","0","67883","","null","","","null","40","","NaN","","","","","","","","","","","","","",""
"","response","","html-keyboard-response","263","448859","0.0-1.0-365.0-0.0","0","0","67883","","1050","","","68","40","","","1","40","training","adjacent","CB","3","2","Q.jpg","O.jpg","0","0","1","",""
"","feedback","","html-keyboard-response","264","449863","0.0-1.0-366.0-0.0","0","0","67883","","null","","","null","40","","","","","","","","","","","","","","","",""
"","ITI","","html-keyboard-response","265","450866","0.0-1.0-369.0","0","0","67883","","null","","","null","40","","","","","","","","","","","","","","","NaN",""
"","S1","","html-keyboard-response","266","451018","0.0-1.0-371.0","0","0","67883","","null","","","null","41","","","","","","","","","","","","","","","",""
"","ISI","","html-keyboard-response","267","453021","0.0-1.0-372.0","0","0","67883","","null","","","null","41","NaN","","","","","","","","","","","","","","",""
"","S2","","html-keyboard-response","268","453176","0.0-1.0-373.0","0","0","67883","","null","","","null","41","","NaN","","","","","","","","","","","","","",""
"","response","","html-keyboard-response","269","453593","0.0-1.0-374.0-0.0","0","0","67883","","415","","","68","41","","","1","41","training","adjacent","EF","5","6","P.jpg","R.jpg","0","1","0","",""
"","feedback","","html-keyboard-response","270","454596","0.0-1.0-375.0-0.0","0","0","67883","","null","","","null","41","","","","","","","","","","","","","","","",""
"","time_out","","html-keyboard-response","271","456599","0.0-1.0-377.0-0.0","0","0","67883","","null","","","null","41","","","","","","","","","","","","","","","",""
"","ITI","","html-keyboard-response","272","457602","0.0-1.0-378.0","0","0","67883","","null","","","null","41","","","","","","","","","","","","","","","NaN",""
"","S1","","html-keyboard-response","273","457755","0.0-1.0-380.0","0","0","67883","","null","","","null","42","","","","","","","","","","","","","","","",""
"","ISI","","html-keyboard-response","274","459758","0.0-1.0-381.0","0","0","67883","","null","","","null","42","NaN","","","","","","","","","","","","","","",""
"","S2","","html-keyboard-response","275","459911","0.0-1.0-382.0","0","0","67883","","null","","","null","42","","NaN","","","","","","","","","","","","","",""
"","response","","html-keyboard-response","276","461056","0.0-1.0-383.0-0.0","0","0","67883","","1143","","","75","42","","","1","42","training","adjacent","BC","2","3","O.jpg","Q.jpg","1","1","1","",""
"","feedback","","html-keyboard-response","277","462063","0.0-1.0-384.0-0.0","0","0","67883","","null","","","null","42","","","","","","","","","","","","","","","",""
"","ITI","","html-keyboard-response","278","463067","0.0-1.0-387.0","0","0","67883","","null","","","null","42","","","","","","","","","","","","","","","NaN",""
"","S1","","html-keyboard-response","279","463220","0.0-1.0-389.0","0","0","67883","","null","","","null","43","","","","","","","","","","","","","","","",""
"","ISI","","html-keyboard-response","280","465223","0.0-1.0-390.0","0","0","67883","","null","","","null","43","NaN","","","","","","","","","","","","","","",""
"","S2","","html-keyboard-response","281","465377","0.0-1.0-391.0","0","0","67883","","null","","","null","43","","NaN","","","","","","","","","","","","","",""
"","response","","html-keyboard-response","282","465806","0.0-1.0-392.0-0.0","0","0","67883","","426","","","75","43","","","1","43","training","adjacent","FG","6","7","R.jpg","L.jpg","1","1","1","",""
"","feedback","","html-keyboard-response","283","466809","0.0-1.0-393.0-0.0","0","0","67883","","null","","","null","43","","","","","","","","","","","","","","","",""
"","ITI","","html-keyboard-response","284","467812","0.0-1.0-396.0","0","0","67883","","null","","","null","43","","","","","","","","","","","","","","","NaN",""
"","S1","","html-keyboard-response","285","467966","0.0-1.0-398.0","0","0","67883","","null","","","null","44","","","","","","","","","","","","","","","",""
"","ISI","","html-keyboard-response","286","469968","0.0-1.0-399.0","0","0","67883","","null","","","null","44","NaN","","","","","","","","","","","","","","",""
"","S2","","html-keyboard-response","287","470122","0.0-1.0-400.0","0","0","67883","","null","","","null","44","","NaN","","","","","","","","","","","","","",""
"","response","","html-keyboard-response","288","471515","0.0-1.0-401.0-0.0","0","0","67883","","1390","","","75","44","","","1","44","training","adjacent","FE","6","5","R.jpg","P.jpg","1","0","0","",""
"","feedback","","html-keyboard-response","289","472519","0.0-1.0-402.0-0.0","0","0","67883","","null","","","null","44","","","","","","","","","","","","","","","",""
"","time_out","","html-keyboard-response","290","474521","0.0-1.0-404.0-0.0","0","0","67883","","null","","","null","44","","","","","","","","","","","","","","","",""
"","ITI","","html-keyboard-response","291","475524","0.0-1.0-405.0","0","0","67883","","null","","","null","44","","","","","","","","","","","","","","","NaN",""
"","S1","","html-keyboard-response","292","475677","0.0-1.0-407.0","0","0","67883","","null","","","null","45","","","","","","","","","","","","","","","",""
"","ISI","","html-keyboard-response","293","477680","0.0-1.0-408.0","0","0","67883","","null","","","null","45","NaN","","","","","","","","","","","","","","",""
"","S2","","html-keyboard-response","294","477834","0.0-1.0-409.0","0","0","67883","","null","","","null","45","","NaN","","","","","","","","","","","","","",""
"","response","","html-keyboard-response","295","479189","0.0-1.0-410.0-0.0","0","0","67883","","1352","","","75","45","","","1","45","training","adjacent","CD","3","4","Q.jpg","M.jpg","1","1","1","",""
"","feedback","","html-keyboard-response","296","480194","0.0-1.0-411.0-0.0","0","0","67883","","null","","","null","45","","","","","","","","","","","","","","","",""
"","ITI","","html-keyboard-response","297","481198","0.0-1.0-414.0","0","0","67883","","null","","","null","45","","","","","","","","","","","","","","","NaN",""
"","S1","","html-keyboard-response","298","481352","0.0-1.0-416.0","0","0","67883","","null","","","null","46","","","","","","","","","","","","","","","",""
"","ISI","","html-keyboard-response","299","483356","0.0-1.0-417.0","0","0","67883","","null","","","null","46","NaN","","","","","","","","","","","","","","",""
"","S2","","html-keyboard-response","300","483512","0.0-1.0-418.0","0","0","67883","","null","","","null","46","","NaN","","","","","","","","","","","","","",""
"","response","","html-keyboard-response","301","484271","0.0-1.0-419.0-0.0","0","0","67883","","755","","","68","46","","","1","46","training","adjacent","FE","6","5","R.jpg","P.jpg","0","0","1","",""
"","feedback","","html-keyboard-response","302","485277","0.0-1.0-420.0-0.0","0","0","67883","","null","","","null","46","","","","","","","","","","","","","","","",""
"","ITI","","html-keyboard-response","303","486287","0.0-1.0-423.0","0","0","67883","","null","","","null","46","","","","","","","","","","","","","","","NaN",""
"","S1","","html-keyboard-response","304","486440","0.0-1.0-425.0","0","0","67883","","null","","","null","47","","","","","","","","","","","","","","","",""
"","ISI","","html-keyboard-response","305","488443","0.0-1.0-426.0","0","0","67883","","null","","","null","47","NaN","","","","","","","","","","","","","","",""
"","S2","","html-keyboard-response","306","488596","0.0-1.0-427.0","0","0","67883","","null","","","null","47","","NaN","","","","","","","","","","","","","",""
"","response","","html-keyboard-response","307","489168","0.0-1.0-428.0-0.0","0","0","67883","","570","","","75","47","","","1","47","training","adjacent","DE","4","5","M.jpg","P.jpg","1","1","1","",""
"","feedback","","html-keyboard-response","308","490172","0.0-1.0-429.0-0.0","0","0","67883","","null","","","null","47","","","","","","","","","","","","","","","",""
"","ITI","","html-keyboard-response","309","491175","0.0-1.0-432.0","0","0","67883","","null","","","null","47","","","","","","","","","","","","","","","NaN",""
"","block_over","","html-keyboard-response","310","577475","0.0-1.0-433.0-0.0","0","0","67883","","86296","","","32","47","","","","","","","","","","","","","","","",""
"","S1","","html-keyboard-response","311","577628","0.0-1.0-434.0","0","0","67883","","null","","","null","48","","","","","","","","","","","","","","","",""
"","ISI","","html-keyboard-response","312","579631","0.0-1.0-435.0","0","0","67883","","null","","","null","48","NaN","","","","","","","","","","","","","","",""
"","S2","","html-keyboard-response","313","579784","0.0-1.0-436.0","0","0","67883","","null","","","null","48","","NaN","","","","","","","","","","","","","",""
"","response","","html-keyboard-response","314","580320","0.0-1.0-437.0-0.0","0","0","67883","","532","","","75","48","","","2","48","training","adjacent","CB","3","2","Q.jpg","O.jpg","1","0","0","",""
"","feedback","","html-keyboard-response","315","581345","0.0-1.0-438.0-0.0","0","0","67883","","null","","","null","48","","","","","","","","","","","","","","","",""
"","time_out","","html-keyboard-response","316","583348","0.0-1.0-440.0-0.0","0","0","67883","","null","","","null","48","","","","","","","","","","","","","","","",""
"","ITI","","html-keyboard-response","317","584356","0.0-1.0-441.0","0","0","67883","","null","","","null","48","","","","","","","","","","","","","","","NaN",""
"","S1","","html-keyboard-response","318","584511","0.0-1.0-443.0","0","0","67883","","null","","","null","49","","","","","","","","","","","","","","","",""
"","ISI","","html-keyboard-response","319","586514","0.0-1.0-444.0","0","0","67883","","null","","","null","49","NaN","","","","","","","","","","","","","","",""
"","S2","","html-keyboard-response","320","586667","0.0-1.0-445.0","0","0","67883","","null","","","null","49","","NaN","","","","","","","","","","","","","",""
"","response","","html-keyboard-response","321","587104","0.0-1.0-446.0-0.0","0","0","67883","","434","","","68","49","","","2","49","training","adjacent","CB","3","2","Q.jpg","O.jpg","0","0","1","",""
"","feedback","","html-keyboard-response","322","588112","0.0-1.0-447.0-0.0","0","0","67883","","null","","","null","49","","","","","","","","","","","","","","","",""
"","ITI","","html-keyboard-response","323","589116","0.0-1.0-450.0","0","0","67883","","null","","","null","49","","","","","","","","","","","","","","","NaN",""
"","S1","","html-keyboard-response","324","589269","0.0-1.0-452.0","0","0","67883","","null","","","null","50","","","","","","","","","","","","","","","",""
"","ISI","","html-keyboard-response","325","591274","0.0-1.0-453.0","0","0","67883","","null","","","null","50","NaN","","","","","","","","","","","","","","",""
"","S2","","html-keyboard-response","326","591428","0.0-1.0-454.0","0","0","67883","","null","","","null","50","","NaN","","","","","","","","","","","","","",""
"","response","","html-keyboard-response","327","591825","0.0-1.0-455.0-0.0","0","0","67883","","393","","","75","50","","","2","50","training","adjacent","BC","2","3","O.jpg","Q.jpg","1","1","1","",""
"","feedback","","html-keyboard-response","328","592829","0.0-1.0-456.0-0.0","0","0","67883","","null","","","null","50","","","","","","","","","","","","","","","",""
"","ITI","","html-keyboard-response","329","593832","0.0-1.0-459.0","0","0","67883","","null","","","null","50","","","","","","","","","","","","","","","NaN",""
"","S1","","html-keyboard-response","330","593985","0.0-1.0-461.0","0","0","67883","","null","","","null","51","","","","","","","","","","","","","","","",""
"","ISI","","html-keyboard-response","331","595988","0.0-1.0-462.0","0","0","67883","","null","","","null","51","NaN","","","","","","","","","","","","","","",""
"","S2","","html-keyboard-response","332","596142","0.0-1.0-463.0","0","0","67883","","null","","","null","51","","NaN","","","","","","","","","","","","","",""
"","response","","html-keyboard-response","333","596847","0.0-1.0-464.0-0.0","0","0","67883","","701","","","68","51","","","2","51","training","adjacent","DE","4","5","M.jpg","P.jpg","0","1","0","",""
"","feedback","","html-keyboard-response","334","597852","0.0-1.0-465.0-0.0","0","0","67883","","null","","","null","51","","","","","","","","","","","","","","","",""
"","time_out","","html-keyboard-response","335","599855","0.0-1.0-467.0-0.0","0","0","67883","","null","","","null","51","","","","","","","","","","","","","","","",""
"","ITI","","html-keyboard-response","336","600857","0.0-1.0-468.0","0","0","67883","","null","","","null","51","","","","","","","","","","","","","","","NaN",""
"","S1","","html-keyboard-response","337","601011","0.0-1.0-470.0","0","0","67883","","null","","","null","52","","","","","","","","","","","","","","","",""
"","ISI","","html-keyboard-response","338","603015","0.0-1.0-471.0","0","0","67883","","null","","","null","52","NaN","","","","","","","","","","","","","","",""
"","S2","","html-keyboard-response","339","603194","0.0-1.0-472.0","0","0","67883","","null","","","null","52","","NaN","","","","","","","","","","","","","",""
"","response","","html-keyboard-response","340","604141","0.0-1.0-473.0-0.0","0","0","67883","","944","","","68","52","","","2","52","training","adjacent","CD","3","4","Q.jpg","M.jpg","0","1","0","",""
"","feedback","","html-keyboard-response","341","605146","0.0-1.0-474.0-0.0","0","0","67883","","null","","","null","52","","","","","","","","","","","","","","","",""
"","time_out","","html-keyboard-response","342","607158","0.0-1.0-476.0-0.0","0","0","67883","","null","","","null","52","","","","","","","","","","","","","","","",""
"","ITI","","html-keyboard-response","343","608163","0.0-1.0-477.0","0","0","67883","","813","","","32","52","","","","","","","","","","","","","","","space",""
"","S1","","html-keyboard-response","344","608317","0.0-1.0-479.0","0","0","67883","","null","","","null","53","","","","","","","","","","","","","","","",""
"","ISI","","html-keyboard-response","345","610320","0.0-1.0-480.0","0","0","67883","","null","","","null","53","NaN","","","","","","","","","","","","","","",""
"","S2","","html-keyboard-response","346","610474","0.0-1.0-481.0","0","0","67883","","null","","","null","53","","NaN","","","","","","","","","","","","","",""
"","response","","html-keyboard-response","347","611076","0.0-1.0-482.0-0.0","0","0","67883","","599","","","68","53","","","2","53","training","adjacent","CB","3","2","Q.jpg","O.jpg","0","0","1","",""
"","feedback","","html-keyboard-response","348","612080","0.0-1.0-483.0-0.0","0","0","67883","","null","","","null","53","","","","","","","","","","","","","","","",""
"","ITI","","html-keyboard-response","349","613084","0.0-1.0-486.0","0","0","67883","","null","","","null","53","","","","","","","","","","","","","","","NaN",""
"","S1","","html-keyboard-response","350","613238","0.0-1.0-488.0","0","0","67883","","null","","","null","54","","","","","","","","","","","","","","","",""
"","ISI","","html-keyboard-response","351","615241","0.0-1.0-489.0","0","0","67883","","null","","","null","54","NaN","","","","","","","","","","","","","","",""
"","S2","","html-keyboard-response","352","615394","0.0-1.0-490.0","0","0","67883","","null","","","null","54","","NaN","","","","","","","","","","","","","",""
"","response","","html-keyboard-response","353","616285","0.0-1.0-491.0-0.0","0","0","67883","","886","","","75","54","","","2","54","training","adjacent","FG","6","7","R.jpg","L.jpg","1","1","1","",""
"","feedback","","html-keyboard-response","354","617290","0.0-1.0-492.0-0.0","0","0","67883","","null","","","null","54","","","","","","","","","","","","","","","",""
"","ITI","","html-keyboard-response","355","618294","0.0-1.0-495.0","0","0","67883","","null","","","null","54","","","","","","","","","","","","","","","NaN",""
"","S1","","html-keyboard-response","356","618448","0.0-1.0-497.0","0","0","67883","","null","","","null","55","","","","","","","","","","","","","","","",""
"","ISI","","html-keyboard-response","357","620454","0.0-1.0-498.0","0","0","67883","","null","","","null","55","NaN","","","","","","","","","","","","","","",""
"","S2","","html-keyboard-response","358","620608","0.0-1.0-499.0","0","0","67883","","null","","","null","55","","NaN","","","","","","","","","","","","","",""
"","response","","html-keyboard-response","359","620964","0.0-1.0-500.0-0.0","0","0","67883","","355","","","68","55","","","2","55","training","adjacent","GF","7","6","L.jpg","R.jpg","0","0","1","",""
"","feedback","","html-keyboard-response","360","621968","0.0-1.0-501.0-0.0","0","0","67883","","null","","","null","55","","","","","","","","","","","","","","","",""
"","ITI","","html-keyboard-response","361","622972","0.0-1.0-504.0","0","0","67883","","null","","","null","55","","","","","","","","","","","","","","","NaN",""
"","S1","","html-keyboard-response","362","623126","0.0-1.0-506.0","0","0","67883","","null","","","null","56","","","","","","","","","","","","","","","",""
"","ISI","","html-keyboard-response","363","625129","0.0-1.0-507.0","0","0","67883","","null","","","null","56","NaN","","","","","","","","","","","","","","",""
"","S2","","html-keyboard-response","364","625311","0.0-1.0-508.0","0","0","67883","","null","","","null","56","","NaN","","","","","","","","","","","","","",""
"","response","","html-keyboard-response","365","626081","0.0-1.0-509.0-0.0","0","0","67883","","768","","","68","56","","","2","56","training","adjacent","EF","5","6","P.jpg","R.jpg","0","1","0","",""
"","feedback","","html-keyboard-response","366","627084","0.0-1.0-510.0-0.0","0","0","67883","","null","","","null","56","","","","","","","","","","","","","","","",""
"","time_out","","html-keyboard-response","367","629088","0.0-1.0-512.0-0.0","0","0","67883","","null","","","null","56","","","","","","","","","","","","","","","",""
"","ITI","","html-keyboard-response","368","630090","0.0-1.0-513.0","0","0","67883","","null","","","null","56","","","","","","","","","","","","","","","NaN",""
"","S1","","html-keyboard-response","369","630289","0.0-1.0-515.0","0","0","67883","","null","","","null","57","","","","","","","","","","","","","","","",""
"","ISI","","html-keyboard-response","370","632296","0.0-1.0-516.0","0","0","67883","","null","","","null","57","NaN","","","","","","","","","","","","","","",""
"","S2","","html-keyboard-response","371","632449","0.0-1.0-517.0","0","0","67883","","null","","","null","57","","NaN","","","","","","","","","","","","","",""
"","response","","html-keyboard-response","372","633179","0.0-1.0-518.0-0.0","0","0","67883","","727","","","68","57","","","2","57","training","adjacent","BA","2","1","O.jpg","N.jpg","0","0","1","",""
"","feedback","","html-keyboard-response","373","634184","0.0-1.0-519.0-0.0","0","0","67883","","null","","","null","57","","","","","","","","","","","","","","","",""
"","ITI","","html-keyboard-response","374","635188","0.0-1.0-522.0","0","0","67883","","null","","","null","57","","","","","","","","","","","","","","","NaN",""
"","S1","","html-keyboard-response","375","635342","0.0-1.0-524.0","0","0","67883","","null","","","null","58","","","","","","","","","","","","","","","",""
"","ISI","","html-keyboard-response","376","637345","0.0-1.0-525.0","0","0","67883","","null","","","null","58","NaN","","","","","","","","","","","","","","",""
"","S2","","html-keyboard-response","377","637498","0.0-1.0-526.0","0","0","67883","","null","","","null","58","","NaN","","","","","","","","","","","","","",""
"","response","","html-keyboard-response","378","638916","0.0-1.0-527.0-0.0","0","0","67883","","1417","","","68","58","","","2","58","training","adjacent","DC","4","3","M.jpg","Q.jpg","0","0","1","",""
"","feedback","","html-keyboard-response","379","639919","0.0-1.0-528.0-0.0","0","0","67883","","null","","","null","58","","","","","","","","","","","","","","","",""
"","ITI","","html-keyboard-response","380","640923","0.0-1.0-531.0","0","0","67883","","null","","","null","58","","","","","","","","","","","","","","","NaN",""
"","S1","","html-keyboard-response","381","641076","0.0-1.0-533.0","0","0","67883","","null","","","null","59","","","","","","","","","","","","","","","",""
"","ISI","","html-keyboard-response","382","643118","0.0-1.0-534.0","0","0","67883","","null","","","null","59","NaN","","","","","","","","","","","","","","",""
"","S2","","html-keyboard-response","383","643283","0.0-1.0-535.0","0","0","67883","","null","","","null","59","","NaN","","","","","","","","","","","","","",""
"","response","","html-keyboard-response","384","643782","0.0-1.0-536.0-0.0","0","0","67883","","497","","","75","59","","","2","59","training","adjacent","ED","5","4","P.jpg","M.jpg","1","0","0","",""
"","feedback","","html-keyboard-response","385","644792","0.0-1.0-537.0-0.0","0","0","67883","","null","","","null","59","","","","","","","","","","","","","","","",""
"","time_out","","html-keyboard-response","386","646795","0.0-1.0-539.0-0.0","0","0","67883","","null","","","null","59","","","","","","","","","","","","","","","",""
"","ITI","","html-keyboard-response","387","647798","0.0-1.0-540.0","0","0","67883","","null","","","null","59","","","","","","","","","","","","","","","NaN",""
"","S1","","html-keyboard-response","388","647955","0.0-1.0-542.0","0","0","67883","","null","","","null","60","","","","","","","","","","","","","","","",""
"","ISI","","html-keyboard-response","389","649958","0.0-1.0-543.0","0","0","67883","","null","","","null","60","NaN","","","","","","","","","","","","","","",""
"","S2","","html-keyboard-response","390","650117","0.0-1.0-544.0","0","0","67883","","null","","","null","60","","NaN","","","","","","","","","","","","","",""
"","response","","html-keyboard-response","391","651457","0.0-1.0-545.0-0.0","0","0","67883","","1337","","","68","60","","","2","60","training","adjacent","DC","4","3","M.jpg","Q.jpg","0","0","1","",""
"","feedback","","html-keyboard-response","392","652461","0.0-1.0-546.0-0.0","0","0","67883","","null","","","null","60","","","","","","","","","","","","","","","",""
"","ITI","","html-keyboard-response","393","653464","0.0-1.0-549.0","0","0","67883","","null","","","null","60","","","","","","","","","","","","","","","NaN",""
"","S1","","html-keyboard-response","394","653619","0.0-1.0-551.0","0","0","67883","","null","","","null","61","","","","","","","","","","","","","","","",""
"","ISI","","html-keyboard-response","395","655623","0.0-1.0-552.0","0","0","67883","","null","","","null","61","NaN","","","","","","","","","","","","","","",""
"","S2","","html-keyboard-response","396","655776","0.0-1.0-553.0","0","0","67883","","null","","","null","61","","NaN","","","","","","","","","","","","","",""
"","response","","html-keyboard-response","397","656530","0.0-1.0-554.0-0.0","0","0","67883","","752","","","75","61","","","2","61","training","adjacent","FE","6","5","R.jpg","P.jpg","1","0","0","",""
"","feedback","","html-keyboard-response","398","657533","0.0-1.0-555.0-0.0","0","0","67883","","null","","","null","61","","","","","","","","","","","","","","","",""
"","time_out","","html-keyboard-response","399","659537","0.0-1.0-557.0-0.0","0","0","67883","","null","","","null","61","","","","","","","","","","","","","","","",""
"","ITI","","html-keyboard-response","400","660539","0.0-1.0-558.0","0","0","67883","","null","","","null","61","","","","","","","","","","","","","","","NaN",""
"","S1","","html-keyboard-response","401","660692","0.0-1.0-560.0","0","0","67883","","null","","","null","62","","","","","","","","","","","","","","","",""
"","ISI","","html-keyboard-response","402","662696","0.0-1.0-561.0","0","0","67883","","null","","","null","62","NaN","","","","","","","","","","","","","","",""
"","S2","","html-keyboard-response","403","662849","0.0-1.0-562.0","0","0","67883","","null","","","null","62","","NaN","","","","","","","","","","","","","",""
"","response","","html-keyboard-response","404","664057","0.0-1.0-563.0-0.0","0","0","67883","","1206","","","75","62","","","2","62","training","adjacent","DE","4","5","M.jpg","P.jpg","1","1","1","",""
"","feedback","","html-keyboard-response","405","665061","0.0-1.0-564.0-0.0","0","0","67883","","null","","","null","62","","","","","","","","","","","","","","","",""
"","ITI","","html-keyboard-response","406","666069","0.0-1.0-567.0","0","0","67883","","null","","","null","62","","","","","","","","","","","","","","","NaN",""
"","S1","","html-keyboard-response","407","666224","0.0-1.0-569.0","0","0","67883","","null","","","null","63","","","","","","","","","","","","","","","",""
"","ISI","","html-keyboard-response","408","668227","0.0-1.0-570.0","0","0","67883","","null","","","null","63","NaN","","","","","","","","","","","","","","",""
"","S2","","html-keyboard-response","409","668407","0.0-1.0-571.0","0","0","67883","","null","","","null","63","","NaN","","","","","","","","","","","","","",""
"","response","","html-keyboard-response","410","669649","0.0-1.0-572.0-0.0","0","0","67883","","1239","","","75","63","","","2","63","training","adjacent","CD","3","4","Q.jpg","M.jpg","1","1","1","",""
"","feedback","","html-keyboard-response","411","670653","0.0-1.0-573.0-0.0","0","0","67883","","null","","","null","63","","","","","","","","","","","","","","","",""
"","ITI","","html-keyboard-response","412","671656","0.0-1.0-576.0","0","0","67883","","null","","","null","63","","","","","","","","","","","","","","","NaN",""
"","S1","","html-keyboard-response","413","671810","0.0-1.0-578.0","0","0","67883","","null","","","null","64","","","","","","","","","","","","","","","",""
"","ISI","","html-keyboard-response","414","673814","0.0-1.0-579.0","0","0","67883","","null","","","null","64","NaN","","","","","","","","","","","","","","",""
"","S2","","html-keyboard-response","415","673968","0.0-1.0-580.0","0","0","67883","","null","","","null","64","","NaN","","","","","","","","","","","","","",""
"","response","","html-keyboard-response","416","675022","0.0-1.0-581.0-0.0","0","0","67883","","1052","","","68","64","","","2","64","training","adjacent","BC","2","3","O.jpg","Q.jpg","0","1","0","",""
"","feedback","","html-keyboard-response","417","676026","0.0-1.0-582.0-0.0","0","0","67883","","null","","","null","64","","","","","","","","","","","","","","","",""
"","time_out","","html-keyboard-response","418","678029","0.0-1.0-584.0-0.0","0","0","67883","","null","","","null","64","","","","","","","","","","","","","","","",""
"","ITI","","html-keyboard-response","419","679033","0.0-1.0-585.0","0","0","67883","","null","","","null","64","","","","","","","","","","","","","","","NaN",""
"","S1","","html-keyboard-response","420","679190","0.0-1.0-587.0","0","0","67883","","null","","","null","65","","","","","","","","","","","","","","","",""
"","ISI","","html-keyboard-response","421","681194","0.0-1.0-588.0","0","0","67883","","null","","","null","65","NaN","","","","","","","","","","","","","","",""
"","S2","","html-keyboard-response","422","681348","0.0-1.0-589.0","0","0","67883","","null","","","null","65","","NaN","","","","","","","","","","","","","",""
"","response","","html-keyboard-response","423","682589","0.0-1.0-590.0-0.0","0","0","67883","","1239","","","68","65","","","2","65","training","adjacent","BA","2","1","O.jpg","N.jpg","0","0","1","",""
"","feedback","","html-keyboard-response","424","683592","0.0-1.0-591.0-0.0","0","0","67883","","null","","","null","65","","","","","","","","","","","","","","","",""
"","ITI","","html-keyboard-response","425","684595","0.0-1.0-594.0","0","0","67883","","null","","","null","65","","","","","","","","","","","","","","","NaN",""
"","S1","","html-keyboard-response","426","684748","0.0-1.0-596.0","0","0","67883","","null","","","null","66","","","","","","","","","","","","","","","",""
"","ISI","","html-keyboard-response","427","686753","0.0-1.0-597.0","0","0","67883","","null","","","null","66","NaN","","","","","","","","","","","","","","",""
"","S2","","html-keyboard-response","428","686908","0.0-1.0-598.0","0","0","67883","","null","","","null","66","","NaN","","","","","","","","","","","","","",""
"","response","","html-keyboard-response","429","688626","0.0-1.0-599.0-0.0","0","0","67883","","1715","","","68","66","","","2","66","training","adjacent","DC","4","3","M.jpg","Q.jpg","0","0","1","",""
"","feedback","","html-keyboard-response","430","689631","0.0-1.0-600.0-0.0","0","0","67883","","null","","","null","66","","","","","","","","","","","","","","","",""
"","ITI","","html-keyboard-response","431","690635","0.0-1.0-603.0","0","0","67883","","null","","","null","66","","","","","","","","","","","","","","","NaN",""
"","S1","","html-keyboard-response","432","690788","0.0-1.0-605.0","0","0","67883","","null","","","null","67","","","","","","","","","","","","","","","",""
"","ISI","","html-keyboard-response","433","692790","0.0-1.0-606.0","0","0","67883","","null","","","null","67","NaN","","","","","","","","","","","","","","",""
"","S2","","html-keyboard-response","434","692943","0.0-1.0-607.0","0","0","67883","","null","","","null","67","","NaN","","","","","","","","","","","","","",""
"","response","","html-keyboard-response","435","693502","0.0-1.0-608.0-0.0","0","0","67883","","556","","","75","67","","","2","67","training","adjacent","FE","6","5","R.jpg","P.jpg","1","0","0","",""
"","feedback","","html-keyboard-response","436","694505","0.0-1.0-609.0-0.0","0","0","67883","","null","","","null","67","","","","","","","","","","","","","","","",""
"","time_out","","html-keyboard-response","437","696508","0.0-1.0-611.0-0.0","0","0","67883","","null","","","null","67","","","","","","","","","","","","","","","",""
"","ITI","","html-keyboard-response","438","697510","0.0-1.0-612.0","0","0","67883","","null","","","null","67","","","","","","","","","","","","","","","NaN",""
"","S1","","html-keyboard-response","439","697663","0.0-1.0-614.0","0","0","67883","","null","","","null","68","","","","","","","","","","","","","","","",""
"","ISI","","html-keyboard-response","440","699666","0.0-1.0-615.0","0","0","67883","","null","","","null","68","NaN","","","","","","","","","","","","","","",""
"","S2","","html-keyboard-response","441","699819","0.0-1.0-616.0","0","0","67883","","null","","","null","68","","NaN","","","","","","","","","","","","","",""
"","response","","html-keyboard-response","442","700274","0.0-1.0-617.0-0.0","0","0","67883","","451","","","75","68","","","2","68","training","adjacent","AB","1","2","N.jpg","O.jpg","1","1","1","",""
"","feedback","","html-keyboard-response","443","701291","0.0-1.0-618.0-0.0","0","0","67883","","null","","","null","68","","","","","","","","","","","","","","","",""
"","ITI","","html-keyboard-response","444","702294","0.0-1.0-621.0","0","0","67883","","null","","","null","68","","","","","","","","","","","","","","","NaN",""
"","S1","","html-keyboard-response","445","702448","0.0-1.0-623.0","0","0","67883","","null","","","null","69","","","","","","","","","","","","","","","",""
"","ISI","","html-keyboard-response","446","704450","0.0-1.0-624.0","0","0","67883","","null","","","null","69","NaN","","","","","","","","","","","","","","",""
"","S2","","html-keyboard-response","447","704603","0.0-1.0-625.0","0","0","67883","","null","","","null","69","","NaN","","","","","","","","","","","","","",""
"","response","","html-keyboard-response","448","705898","0.0-1.0-626.0-0.0","0","0","67883","","1293","","","68","69","","","2","69","training","adjacent","ED","5","4","P.jpg","M.jpg","0","0","1","",""
"","feedback","","html-keyboard-response","449","706902","0.0-1.0-627.0-0.0","0","0","67883","","null","","","null","69","","","","","","","","","","","","","","","",""
"","ITI","","html-keyboard-response","450","707904","0.0-1.0-630.0","0","0","67883","","null","","","null","69","","","","","","","","","","","","","","","NaN",""
"","S1","","html-keyboard-response","451","708058","0.0-1.0-632.0","0","0","67883","","null","","","null","70","","","","","","","","","","","","","","","",""
"","ISI","","html-keyboard-response","452","710061","0.0-1.0-633.0","0","0","67883","","null","","","null","70","NaN","","","","","","","","","","","","","","",""
"","S2","","html-keyboard-response","453","710215","0.0-1.0-634.0","0","0","67883","","null","","","null","70","","NaN","","","","","","","","","","","","","",""
"","response","","html-keyboard-response","454","711329","0.0-1.0-635.0-0.0","0","0","67883","","1111","","","75","70","","","2","70","training","adjacent","CD","3","4","Q.jpg","M.jpg","1","1","1","",""
"","feedback","","html-keyboard-response","455","712334","0.0-1.0-636.0-0.0","0","0","67883","","null","","","null","70","","","","","","","","","","","","","","","",""
"","ITI","","html-keyboard-response","456","713339","0.0-1.0-639.0","0","0","67883","","null","","","null","70","","","","","","","","","","","","","","","NaN",""
"","S1","","html-keyboard-response","457","713493","0.0-1.0-641.0","0","0","67883","","null","","","null","71","","","","","","","","","","","","","","","",""
"","ISI","","html-keyboard-response","458","715496","0.0-1.0-642.0","0","0","67883","","null","","","null","71","NaN","","","","","","","","","","","","","","",""
"","S2","","html-keyboard-response","459","715649","0.0-1.0-643.0","0","0","67883","","null","","","null","71","","NaN","","","","","","","","","","","","","",""
"","response","","html-keyboard-response","460","716901","0.0-1.0-644.0-0.0","0","0","67883","","1250","","","75","71","","","2","71","training","adjacent","CB","3","2","Q.jpg","O.jpg","1","0","0","",""
"","feedback","","html-keyboard-response","461","717905","0.0-1.0-645.0-0.0","0","0","67883","","null","","","null","71","","","","","","","","","","","","","","","",""
"","time_out","","html-keyboard-response","462","719908","0.0-1.0-647.0-0.0","0","0","67883","","null","","","null","71","","","","","","","","","","","","","","","",""
"","ITI","","html-keyboard-response","463","720911","0.0-1.0-648.0","0","0","67883","","null","","","null","71","","","","","","","","","","","","","","","NaN",""
"","S1","","html-keyboard-response","464","721066","0.0-1.0-650.0","0","0","67883","","null","","","null","72","","","","","","","","","","","","","","","",""
"","ISI","","html-keyboard-response","465","723069","0.0-1.0-651.0","0","0","67883","","null","","","null","72","NaN","","","","","","","","","","","","","","",""
"","S2","","html-keyboard-response","466","723225","0.0-1.0-652.0","0","0","67883","","null","","","null","72","","NaN","","","","","","","","","","","","","",""
"","response","","html-keyboard-response","467","723835","0.0-1.0-653.0-0.0","0","0","67883","","607","","","68","72","","","2","72","training","adjacent","BA","2","1","O.jpg","N.jpg","0","0","1","",""
"","feedback","","html-keyboard-response","468","724838","0.0-1.0-654.0-0.0","0","0","67883","","null","","","null","72","","","","","","","","","","","","","","","",""
"","ITI","","html-keyboard-response","469","725841","0.0-1.0-657.0","0","0","67883","","null","","","null","72","","","","","","","","","","","","","","","NaN",""
"","S1","","html-keyboard-response","470","725994","0.0-1.0-659.0","0","0","67883","","null","","","null","73","","","","","","","","","","","","","","","",""
"","ISI","","html-keyboard-response","471","727996","0.0-1.0-660.0","0","0","67883","","null","","","null","73","NaN","","","","","","","","","","","","","","",""
"","S2","","html-keyboard-response","472","728151","0.0-1.0-661.0","0","0","67883","","null","","","null","73","","NaN","","","","","","","","","","","","","",""
"","response","","html-keyboard-response","473","729234","0.0-1.0-662.0-0.0","0","0","67883","","1080","","","75","73","","","2","73","training","adjacent","CD","3","4","Q.jpg","M.jpg","1","1","1","",""
"","feedback","","html-keyboard-response","474","730240","0.0-1.0-663.0-0.0","0","0","67883","","null","","","null","73","","","","","","","","","","","","","","","",""
"","ITI","","html-keyboard-response","475","731250","0.0-1.0-666.0","0","0","67883","","null","","","null","73","","","","","","","","","","","","","","","NaN",""
"","S1","","html-keyboard-response","476","731404","0.0-1.0-668.0","0","0","67883","","null","","","null","74","","","","","","","","","","","","","","","",""
"","ISI","","html-keyboard-response","477","733406","0.0-1.0-669.0","0","0","67883","","null","","","null","74","NaN","","","","","","","","","","","","","","",""
"","S2","","html-keyboard-response","478","733560","0.0-1.0-670.0","0","0","67883","","null","","","null","74","","NaN","","","","","","","","","","","","","",""
"","response","","html-keyboard-response","479","733926","0.0-1.0-671.0-0.0","0","0","67883","","364","","","75","74","","","2","74","training","adjacent","EF","5","6","P.jpg","R.jpg","1","1","1","",""
"","feedback","","html-keyboard-response","480","734930","0.0-1.0-672.0-0.0","0","0","67883","","null","","","null","74","","","","","","","","","","","","","","","",""
"","ITI","","html-keyboard-response","481","735935","0.0-1.0-675.0","0","0","67883","","null","","","null","74","","","","","","","","","","","","","","","NaN",""
"","S1","","html-keyboard-response","482","736095","0.0-1.0-677.0","0","0","67883","","null","","","null","75","","","","","","","","","","","","","","","",""
"","ISI","","html-keyboard-response","483","738099","0.0-1.0-678.0","0","0","67883","","null","","","null","75","NaN","","","","","","","","","","","","","","",""
"","S2","","html-keyboard-response","484","738252","0.0-1.0-679.0","0","0","67883","","null","","","null","75","","NaN","","","","","","","","","","","","","",""
"","response","","html-keyboard-response","485","738838","0.0-1.0-680.0-0.0","0","0","67883","","576","","","68","75","","","2","75","training","adjacent","BA","2","1","O.jpg","N.jpg","0","0","1","",""
"","feedback","","html-keyboard-response","486","739841","0.0-1.0-681.0-0.0","0","0","67883","","null","","","null","75","","","","","","","","","","","","","","","",""
"","ITI","","html-keyboard-response","487","740845","0.0-1.0-684.0","0","0","67883","","null","","","null","75","","","","","","","","","","","","","","","NaN",""
"","S1","","html-keyboard-response","488","740998","0.0-1.0-686.0","0","0","67883","","null","","","null","76","","","","","","","","","","","","","","","",""
"","ISI","","html-keyboard-response","489","743000","0.0-1.0-687.0","0","0","67883","","null","","","null","76","NaN","","","","","","","","","","","","","","",""
"","S2","","html-keyboard-response","490","743158","0.0-1.0-688.0","0","0","67883","","null","","","null","76","","NaN","","","","","","","","","","","","","",""
"","response","","html-keyboard-response","491","744544","0.0-1.0-689.0-0.0","0","0","67883","","1384","","","75","76","","","2","76","training","adjacent","FG","6","7","R.jpg","L.jpg","1","1","1","",""
"","feedback","","html-keyboard-response","492","745547","0.0-1.0-690.0-0.0","0","0","67883","","null","","","null","76","","","","","","","","","","","","","","","",""
"","ITI","","html-keyboard-response","493","746551","0.0-1.0-693.0","0","0","67883","","null","","","null","76","","","","","","","","","","","","","","","NaN",""
"","S1","","html-keyboard-response","494","746704","0.0-1.0-695.0","0","0","67883","","null","","","null","77","","","","","","","","","","","","","","","",""
"","ISI","","html-keyboard-response","495","748707","0.0-1.0-696.0","0","0","67883","","null","","","null","77","NaN","","","","","","","","","","","","","","",""
"","S2","","html-keyboard-response","496","748861","0.0-1.0-697.0","0","0","67883","","null","","","null","77","","NaN","","","","","","","","","","","","","",""
"","response","","html-keyboard-response","497","750421","0.0-1.0-698.0-0.0","0","0","67883","","1558","","","68","77","","","2","77","training","adjacent","ED","5","4","P.jpg","M.jpg","0","0","1","",""
"","feedback","","html-keyboard-response","498","751425","0.0-1.0-699.0-0.0","0","0","67883","","null","","","null","77","","","","","","","","","","","","","","","",""
"","ITI","","html-keyboard-response","499","752428","0.0-1.0-702.0","0","0","67883","","null","","","null","77","","","","","","","","","","","","","","","NaN",""
"","S1","","html-keyboard-response","500","752591","0.0-1.0-704.0","0","0","67883","","null","","","null","78","","","","","","","","","","","","","","","",""
"","ISI","","html-keyboard-response","501","754594","0.0-1.0-705.0","0","0","67883","","null","","","null","78","NaN","","","","","","","","","","","","","","",""
"","S2","","html-keyboard-response","502","754753","0.0-1.0-706.0","0","0","67883","","null","","","null","78","","NaN","","","","","","","","","","","","","",""
"","response","","html-keyboard-response","503","756226","0.0-1.0-707.0-0.0","0","0","67883","","1470","","","68","78","","","2","78","training","adjacent","BC","2","3","O.jpg","Q.jpg","0","1","0","",""
"","feedback","","html-keyboard-response","504","757230","0.0-1.0-708.0-0.0","0","0","67883","","null","","","null","78","","","","","","","","","","","","","","","",""
"","time_out","","html-keyboard-response","505","759259","0.0-1.0-710.0-0.0","0","0","67883","","null","","","null","78","","","","","","","","","","","","","","","",""
"","ITI","","html-keyboard-response","506","760267","0.0-1.0-711.0","0","0","67883","","null","","","null","78","","","","","","","","","","","","","","","NaN",""
"","S1","","html-keyboard-response","507","760419","0.0-1.0-713.0","0","0","67883","","null","","","null","79","","","","","","","","","","","","","","","",""
"","ISI","","html-keyboard-response","508","762423","0.0-1.0-714.0","0","0","67883","","null","","","null","79","NaN","","","","","","","","","","","","","","",""
"","S2","","html-keyboard-response","509","762577","0.0-1.0-715.0","0","0","67883","","null","","","null","79","","NaN","","","","","","","","","","","","","",""
"","response","","html-keyboard-response","510","763365","0.0-1.0-716.0-0.0","0","0","67883","","785","","","75","79","","","2","79","training","adjacent","FE","6","5","R.jpg","P.jpg","1","0","0","",""
"","feedback","","html-keyboard-response","511","764369","0.0-1.0-717.0-0.0","0","0","67883","","null","","","null","79","","","","","","","","","","","","","","","",""
"","time_out","","html-keyboard-response","512","766374","0.0-1.0-719.0-0.0","0","0","67883","","null","","","null","79","","","","","","","","","","","","","","","",""
"","ITI","","html-keyboard-response","513","767380","0.0-1.0-720.0","0","0","67883","","null","","","null","79","","","","","","","","","","","","","","","NaN",""
"","S1","","html-keyboard-response","514","767532","0.0-1.0-722.0","0","0","67883","","null","","","null","80","","","","","","","","","","","","","","","",""
"","ISI","","html-keyboard-response","515","769535","0.0-1.0-723.0","0","0","67883","","null","","","null","80","NaN","","","","","","","","","","","","","","",""
"","S2","","html-keyboard-response","516","769688","0.0-1.0-724.0","0","0","67883","","null","","","null","80","","NaN","","","","","","","","","","","","","",""
"","response","","html-keyboard-response","517","770622","0.0-1.0-725.0-0.0","0","0","67883","","932","","","75","80","","","2","80","training","adjacent","GF","7","6","L.jpg","R.jpg","1","0","0","",""
"","feedback","","html-keyboard-response","518","771625","0.0-1.0-726.0-0.0","0","0","67883","","null","","","null","80","","","","","","","","","","","","","","","",""
"","time_out","","html-keyboard-response","519","773629","0.0-1.0-728.0-0.0","0","0","67883","","null","","","null","80","","","","","","","","","","","","","","","",""
"","ITI","","html-keyboard-response","520","774633","0.0-1.0-729.0","0","0","67883","","null","","","null","80","","","","","","","","","","","","","","","NaN",""
"","S1","","html-keyboard-response","521","774786","0.0-1.0-731.0","0","0","67883","","null","","","null","81","","","","","","","","","","","","","","","",""
"","ISI","","html-keyboard-response","522","776789","0.0-1.0-732.0","0","0","67883","","null","","","null","81","NaN","","","","","","","","","","","","","","",""
"","S2","","html-keyboard-response","523","776952","0.0-1.0-733.0","0","0","67883","","null","","","null","81","","NaN","","","","","","","","","","","","","",""
"","response","","html-keyboard-response","524","777300","0.0-1.0-734.0-0.0","0","0","67883","","345","","","68","81","","","2","81","training","adjacent","GF","7","6","L.jpg","R.jpg","0","0","1","",""
"","feedback","","html-keyboard-response","525","778305","0.0-1.0-735.0-0.0","0","0","67883","","null","","","null","81","","","","","","","","","","","","","","","",""
"","ITI","","html-keyboard-response","526","779311","0.0-1.0-738.0","0","0","67883","","null","","","null","81","","","","","","","","","","","","","","","NaN",""
"","S1","","html-keyboard-response","527","779464","0.0-1.0-740.0","0","0","67883","","null","","","null","82","","","","","","","","","","","","","","","",""
"","ISI","","html-keyboard-response","528","781468","0.0-1.0-741.0","0","0","67883","","null","","","null","82","NaN","","","","","","","","","","","","","","",""
"","S2","","html-keyboard-response","529","781622","0.0-1.0-742.0","0","0","67883","","null","","","null","82","","NaN","","","","","","","","","","","","","",""
"","response","","html-keyboard-response","530","782840","0.0-1.0-743.0-0.0","0","0","67883","","1216","","","75","82","","","2","82","training","adjacent","AB","1","2","N.jpg","O.jpg","1","1","1","",""
"","feedback","","html-keyboard-response","531","783845","0.0-1.0-744.0-0.0","0","0","67883","","null","","","null","82","","","","","","","","","","","","","","","",""
"","ITI","","html-keyboard-response","532","784849","0.0-1.0-747.0","0","0","67883","","null","","","null","82","","","","","","","","","","","","","","","NaN",""
"","S1","","html-keyboard-response","533","785003","0.0-1.0-749.0","0","0","67883","","null","","","null","83","","","","","","","","","","","","","","","",""
"","ISI","","html-keyboard-response","534","787018","0.0-1.0-750.0","0","0","67883","","null","","","null","83","NaN","","","","","","","","","","","","","","",""
"","S2","","html-keyboard-response","535","787172","0.0-1.0-751.0","0","0","67883","","null","","","null","83","","NaN","","","","","","","","","","","","","",""
"","response","","html-keyboard-response","536","787787","0.0-1.0-752.0-0.0","0","0","67883","","613","","","75","83","","","2","83","training","adjacent","EF","5","6","P.jpg","R.jpg","1","1","1","",""
"","feedback","","html-keyboard-response","537","788791","0.0-1.0-753.0-0.0","0","0","67883","","null","","","null","83","","","","","","","","","","","","","","","",""
"","ITI","","html-keyboard-response","538","789794","0.0-1.0-756.0","0","0","67883","","null","","","null","83","","","","","","","","","","","","","","","NaN",""
"","S1","","html-keyboard-response","539","789948","0.0-1.0-758.0","0","0","67883","","null","","","null","84","","","","","","","","","","","","","","","",""
"","ISI","","html-keyboard-response","540","791950","0.0-1.0-759.0","0","0","67883","","null","","","null","84","NaN","","","","","","","","","","","","","","",""
"","S2","","html-keyboard-response","541","792105","0.0-1.0-760.0","0","0","67883","","null","","","null","84","","NaN","","","","","","","","","","","","","",""
"","response","","html-keyboard-response","542","793270","0.0-1.0-761.0-0.0","0","0","67883","","1159","","","68","84","","","2","84","training","adjacent","FE","6","5","R.jpg","P.jpg","0","0","1","",""
"","feedback","","html-keyboard-response","543","794299","0.0-1.0-762.0-0.0","0","0","67883","","null","","","null","84","","","","","","","","","","","","","","","",""
"","ITI","","html-keyboard-response","544","795306","0.0-1.0-765.0","0","0","67883","","null","","","null","84","","","","","","","","","","","","","","","NaN",""
"","S1","","html-keyboard-response","545","795459","0.0-1.0-767.0","0","0","67883","","null","","","null","85","","","","","","","","","","","","","","","",""
"","ISI","","html-keyboard-response","546","797462","0.0-1.0-768.0","0","0","67883","","null","","","null","85","NaN","","","","","","","","","","","","","","",""
"","S2","","html-keyboard-response","547","797616","0.0-1.0-769.0","0","0","67883","","null","","","null","85","","NaN","","","","","","","","","","","","","",""
"","response","","html-keyboard-response","548","798575","0.0-1.0-770.0-0.0","0","0","67883","","956","","","68","85","","","2","85","training","adjacent","BC","2","3","O.jpg","Q.jpg","0","1","0","",""
"","feedback","","html-keyboard-response","549","799578","0.0-1.0-771.0-0.0","0","0","67883","","null","","","null","85","","","","","","","","","","","","","","","",""
"","time_out","","html-keyboard-response","550","801582","0.0-1.0-773.0-0.0","0","0","67883","","null","","","null","85","","","","","","","","","","","","","","","",""
"","ITI","","html-keyboard-response","551","802585","0.0-1.0-774.0","0","0","67883","","null","","","null","85","","","","","","","","","","","","","","","NaN",""
"","S1","","html-keyboard-response","552","802738","0.0-1.0-776.0","0","0","67883","","null","","","null","86","","","","","","","","","","","","","","","",""
"","ISI","","html-keyboard-response","553","804741","0.0-1.0-777.0","0","0","67883","","null","","","null","86","NaN","","","","","","","","","","","","","","",""
"","S2","","html-keyboard-response","554","804894","0.0-1.0-778.0","0","0","67883","","null","","","null","86","","NaN","","","","","","","","","","","","","",""
"","response","","html-keyboard-response","555","805984","0.0-1.0-779.0-0.0","0","0","67883","","1088","","","75","86","","","2","86","training","adjacent","DE","4","5","M.jpg","P.jpg","1","1","1","",""
"","feedback","","html-keyboard-response","556","806989","0.0-1.0-780.0-0.0","0","0","67883","","null","","","null","86","","","","","","","","","","","","","","","",""
"","ITI","","html-keyboard-response","557","807993","0.0-1.0-783.0","0","0","67883","","null","","","null","86","","","","","","","","","","","","","","","NaN",""
"","S1","","html-keyboard-response","558","808146","0.0-1.0-785.0","0","0","67883","","null","","","null","87","","","","","","","","","","","","","","","",""
"","ISI","","html-keyboard-response","559","810150","0.0-1.0-786.0","0","0","67883","","null","","","null","87","NaN","","","","","","","","","","","","","","",""
"","S2","","html-keyboard-response","560","810305","0.0-1.0-787.0","0","0","67883","","null","","","null","87","","NaN","","","","","","","","","","","","","",""
"","response","","html-keyboard-response","561","811705","0.0-1.0-788.0-0.0","0","0","67883","","1397","","","68","87","","","2","87","training","adjacent","AB","1","2","N.jpg","O.jpg","0","1","0","",""
"","feedback","","html-keyboard-response","562","812709","0.0-1.0-789.0-0.0","0","0","67883","","null","","","null","87","","","","","","","","","","","","","","","",""
"","time_out","","html-keyboard-response","563","814712","0.0-1.0-791.0-0.0","0","0","67883","","null","","","null","87","","","","","","","","","","","","","","","",""
"","ITI","","html-keyboard-response","564","815716","0.0-1.0-792.0","0","0","67883","","null","","","null","87","","","","","","","","","","","","","","","NaN",""
"","S1","","html-keyboard-response","565","815870","0.0-1.0-794.0","0","0","67883","","null","","","null","88","","","","","","","","","","","","","","","",""
"","ISI","","html-keyboard-response","566","817873","0.0-1.0-795.0","0","0","67883","","null","","","null","88","NaN","","","","","","","","","","","","","","",""
"","S2","","html-keyboard-response","567","818028","0.0-1.0-796.0","0","0","67883","","null","","","null","88","","NaN","","","","","","","","","","","","","",""
"","response","","html-keyboard-response","568","819559","0.0-1.0-797.0-0.0","0","0","67883","","1528","","","75","88","","","2","88","training","adjacent","DE","4","5","M.jpg","P.jpg","1","1","1","",""
"","feedback","","html-keyboard-response","569","820562","0.0-1.0-798.0-0.0","0","0","67883","","null","","","null","88","","","","","","","","","","","","","","","",""
"","ITI","","html-keyboard-response","570","821565","0.0-1.0-801.0","0","0","67883","","null","","","null","88","","","","","","","","","","","","","","","NaN",""
"","S1","","html-keyboard-response","571","821718","0.0-1.0-803.0","0","0","67883","","null","","","null","89","","","","","","","","","","","","","","","",""
"","ISI","","html-keyboard-response","572","823722","0.0-1.0-804.0","0","0","67883","","99","","","68","89","d","","","","","","","","","","","","","","",""
"","S2","","html-keyboard-response","573","823875","0.0-1.0-805.0","0","0","67883","","null","","","null","89","","NaN","","","","","","","","","","","","","",""
"","response","","html-keyboard-response","574","825728","0.0-1.0-806.0-0.0","0","0","67883","","null","","","null","89","","","2","89","training","adjacent","FG","6","7","R.jpg","L.jpg","NaN","1","0","",""
"","too_slow_prompt","","html-keyboard-response","575","826732","0.0-1.0-808.0-0.0","1","0","67883","","null","","","null","","","","","","","","","","","","","","","","",""
"","time_out","","html-keyboard-response","576","828735","0.0-1.0-809.0-0.0","0","0","67883","","null","","","null","89","","","","","","","","","","","","","","","",""
"","ITI","","html-keyboard-response","577","829737","0.0-1.0-810.0","0","0","67883","","null","","","null","89","","","","","","","","","","","","","","","NaN",""
"","S1","","html-keyboard-response","578","829891","0.0-1.0-812.0","0","0","67883","","null","","","null","90","","","","","","","","","","","","","","","",""
"","ISI","","html-keyboard-response","579","831893","0.0-1.0-813.0","0","0","67883","","null","","","null","90","NaN","","","","","","","","","","","","","","",""
"","S2","","html-keyboard-response","580","832047","0.0-1.0-814.0","0","0","67883","","null","","","null","90","","NaN","","","","","","","","","","","","","",""
