"success","ttype","start_time","trial_type","trial_index","time_elapsed","internal_node_id","warning","missed_checkup","PID","view_history","rt","responses","repeat_instructions","key_press","index","keypress_isi","keypress_S2","block","trial_num","phase","group_type","pair_type","S1_stim","S2_stim","S1_img","S2_img","S1_chosen","S1_higher","accuracy","keypress_iti","total_bonus_tally"
"true","full_screen","d04132023hr1702","fullscreen","0","21109","0.0-0.0","0","0","87035","","","","","","","","","","","","","","","","","","","","","",""
"","instructions","","instructions","1","329130","0.0-1.0-0.0-0.0","0","0","87035","[{""page_index"":0,""viewing_time"":5152},{""page_index"":1,""viewing_time"":288155},{""page_index"":2,""viewing_time"":13236},{""page_index"":3,""viewing_time"":1476}]","308019","","","","","","","","","","","","","","","","","","","",""
"","comprehension_check","","survey-multi-choice","2","359900","0.0-1.0-0.0-1.0","0","0","87035","","30764","{""Q0"":""True"",""Q1"":""K"",""Q2"":""Once the second image appears and while the screen 'MAKE A CHOICE' is shown"",""Q3"":""Green mark"",""Q4"":""either D or K""}","0","","","","","","","","","","","","","","","","","",""
"","start_exp","","html-keyboard-response","3","367005","0.0-1.0-1.0","0","0","87035","","7103","","","32","","","","","","","","","","","","","","","","",""
"","S1","","html-keyboard-response","4","367267","0.0-1.0-2.0","0","0","87035","","null","","","null","0","","","","","","","","","","","","","","","",""
"","ISI","","html-keyboard-response","5","368277","0.0-1.0-3.0","0","0","87035","","null","","","null","0","NaN","","","","","","","","","","","","","","",""
"","S2","","html-keyboard-response","6","368539","0.0-1.0-4.0","0","0","87035","","null","","","null","0","","NaN","","","","","","","","","","","","","",""
"","response","","html-keyboard-response","7","369226","0.0-1.0-5.0-0.0","0","0","87035","","686","","","68","0","","","1","0","training","adjacent","AB","1","2","Q.jpg","P.jpg","0","1","0","",""
"","feedback","","html-keyboard-response","8","370233","0.0-1.0-6.0-0.0","0","0","87035","","null","","","null","0","","","","","","","","","","","","","","","",""
"","time_out","","html-keyboard-response","9","372242","0.0-1.0-8.0-0.0","0","0","87035","","null","","","null","0","","","","","","","","","","","","","","","",""
"","ITI","","html-keyboard-response","10","373252","0.0-1.0-9.0","0","0","87035","","null","","","null","0","","","","","","","","","","","","","","","NaN",""
"","S1","","html-keyboard-response","11","373508","0.0-1.0-11.0","0","0","87035","","null","","","null","1","","","","","","","","","","","","","","","",""
"","ISI","","html-keyboard-response","12","374515","0.0-1.0-12.0","0","0","87035","","null","","","null","1","NaN","","","","","","","","","","","","","","",""
"","S2","","html-keyboard-response","13","374773","0.0-1.0-13.0","0","0","87035","","null","","","null","1","","NaN","","","","","","","","","","","","","",""
"","response","","html-keyboard-response","14","375307","0.0-1.0-14.0-0.0","0","0","87035","","532","","","75","1","","","1","1","training","adjacent","DE","4","5","M.jpg","N.jpg","1","1","1","",""
"","feedback","","html-keyboard-response","15","376315","0.0-1.0-15.0-0.0","0","0","87035","","null","","","null","1","","","","","","","","","","","","","","","",""
"","ITI","","html-keyboard-response","16","377321","0.0-1.0-18.0","0","0","87035","","null","","","null","1","","","","","","","","","","","","","","","NaN",""
"","S1","","html-keyboard-response","17","377577","0.0-1.0-20.0","0","0","87035","","null","","","null","2","","","","","","","","","","","","","","","",""
"","ISI","","html-keyboard-response","18","378585","0.0-1.0-21.0","0","0","87035","","null","","","null","2","NaN","","","","","","","","","","","","","","",""
"","S2","","html-keyboard-response","19","378842","0.0-1.0-22.0","0","0","87035","","null","","","null","2","","NaN","","","","","","","","","","","","","",""
"","response","","html-keyboard-response","20","379473","0.0-1.0-23.0-0.0","0","0","87035","","629","","","68","2","","","1","2","training","adjacent","GF","7","6","L.jpg","O.jpg","0","0","1","",""
"","feedback","","html-keyboard-response","21","380485","0.0-1.0-24.0-0.0","0","0","87035","","null","","","null","2","","","","","","","","","","","","","","","",""
"","ITI","","html-keyboard-response","22","381494","0.0-1.0-27.0","0","0","87035","","null","","","null","2","","","","","","","","","","","","","","","NaN",""
"","S1","","html-keyboard-response","23","381757","0.0-1.0-29.0","0","0","87035","","null","","","null","3","","","","","","","","","","","","","","","",""
"","ISI","","html-keyboard-response","24","382767","0.0-1.0-30.0","0","0","87035","","null","","","null","3","NaN","","","","","","","","","","","","","","",""
"","S2","","html-keyboard-response","25","383028","0.0-1.0-31.0","0","0","87035","","null","","","null","3","","NaN","","","","","","","","","","","","","",""
"","response","","html-keyboard-response","26","383625","0.0-1.0-32.0-0.0","0","0","87035","","595","","","68","3","","","1","3","training","adjacent","BA","2","1","P.jpg","Q.jpg","0","0","1","",""
"","feedback","","html-keyboard-response","27","384634","0.0-1.0-33.0-0.0","0","0","87035","","null","","","null","3","","","","","","","","","","","","","","","",""
"","ITI","","html-keyboard-response","28","385646","0.0-1.0-36.0","0","0","87035","","null","","","null","3","","","","","","","","","","","","","","","NaN",""
"","S1","","html-keyboard-response","29","385907","0.0-1.0-38.0","0","0","87035","","null","","","null","4","","","","","","","","","","","","","","","",""
"","ISI","","html-keyboard-response","30","386915","0.0-1.0-39.0","0","0","87035","","null","","","null","4","NaN","","","","","","","","","","","","","","",""
"","S2","","html-keyboard-response","31","387173","0.0-1.0-40.0","0","0","87035","","null","","","null","4","","NaN","","","","","","","","","","","","","",""
"","response","","html-keyboard-response","32","387492","0.0-1.0-41.0-0.0","0","0","87035","","318","","","75","4","","","1","4","training","adjacent","AB","1","2","Q.jpg","P.jpg","1","1","1","",""
"","feedback","","html-keyboard-response","33","388502","0.0-1.0-42.0-0.0","0","0","87035","","null","","","null","4","","","","","","","","","","","","","","","",""
"","ITI","","html-keyboard-response","34","389506","0.0-1.0-45.0","0","0","87035","","null","","","null","4","","","","","","","","","","","","","","","NaN",""
"","S1","","html-keyboard-response","35","389762","0.0-1.0-47.0","0","0","87035","","null","","","null","5","","","","","","","","","","","","","","","",""
"","ISI","","html-keyboard-response","36","390771","0.0-1.0-48.0","0","0","87035","","null","","","null","5","NaN","","","","","","","","","","","","","","",""
"","S2","","html-keyboard-response","37","391027","0.0-1.0-49.0","0","0","87035","","null","","","null","5","","NaN","","","","","","","","","","","","","",""
"","response","","html-keyboard-response","38","391764","0.0-1.0-50.0-0.0","0","0","87035","","735","","","75","5","","","1","5","training","adjacent","EF","5","6","N.jpg","O.jpg","1","1","1","",""
"","feedback","","html-keyboard-response","39","392775","0.0-1.0-51.0-0.0","0","0","87035","","null","","","null","5","","","","","","","","","","","","","","","",""
"","ITI","","html-keyboard-response","40","393779","0.0-1.0-54.0","0","0","87035","","null","","","null","5","","","","","","","","","","","","","","","NaN",""
"","S1","","html-keyboard-response","41","394035","0.0-1.0-56.0","0","0","87035","","null","","","null","6","","","","","","","","","","","","","","","",""
"","ISI","","html-keyboard-response","42","395045","0.0-1.0-57.0","0","0","87035","","null","","","null","6","NaN","","","","","","","","","","","","","","",""
"","S2","","html-keyboard-response","43","395300","0.0-1.0-58.0","0","0","87035","","null","","","null","6","","NaN","","","","","","","","","","","","","",""
"","response","","html-keyboard-response","44","395689","0.0-1.0-59.0-0.0","0","0","87035","","388","","","68","6","","","1","6","training","adjacent","DC","4","3","M.jpg","R.jpg","0","0","1","",""
"","feedback","","html-keyboard-response","45","396699","0.0-1.0-60.0-0.0","0","0","87035","","null","","","null","6","","","","","","","","","","","","","","","",""
"","ITI","","html-keyboard-response","46","397709","0.0-1.0-63.0","0","0","87035","","null","","","null","6","","","","","","","","","","","","","","","NaN",""
"","S1","","html-keyboard-response","47","397964","0.0-1.0-65.0","0","0","87035","","null","","","null","7","","","","","","","","","","","","","","","",""
"","ISI","","html-keyboard-response","48","398975","0.0-1.0-66.0","0","0","87035","","null","","","null","7","NaN","","","","","","","","","","","","","","",""
"","S2","","html-keyboard-response","49","399234","0.0-1.0-67.0","0","0","87035","","null","","","null","7","","NaN","","","","","","","","","","","","","",""
"","response","","html-keyboard-response","50","399753","0.0-1.0-68.0-0.0","0","0","87035","","516","","","75","7","","","1","7","training","adjacent","ED","5","4","N.jpg","M.jpg","1","0","0","",""
"","feedback","","html-keyboard-response","51","400763","0.0-1.0-69.0-0.0","0","0","87035","","null","","","null","7","","","","","","","","","","","","","","","",""
"","time_out","","html-keyboard-response","52","402771","0.0-1.0-71.0-0.0","0","0","87035","","null","","","null","7","","","","","","","","","","","","","","","",""
"","ITI","","html-keyboard-response","53","403780","0.0-1.0-72.0","0","0","87035","","385","","","68","7","","","","","","","","","","","","","","","d",""
"","S1","","html-keyboard-response","54","404037","0.0-1.0-74.0","0","0","87035","","null","","","null","8","","","","","","","","","","","","","","","",""
"","ISI","","html-keyboard-response","55","405046","0.0-1.0-75.0","0","0","87035","","null","","","null","8","NaN","","","","","","","","","","","","","","",""
"","S2","","html-keyboard-response","56","405308","0.0-1.0-76.0","0","0","87035","","null","","","null","8","","NaN","","","","","","","","","","","","","",""
"","response","","html-keyboard-response","57","405952","0.0-1.0-77.0-0.0","0","0","87035","","643","","","75","8","","","1","8","training","adjacent","CB","3","2","R.jpg","P.jpg","1","0","0","",""
"","feedback","","html-keyboard-response","58","406962","0.0-1.0-78.0-0.0","0","0","87035","","null","","","null","8","","","","","","","","","","","","","","","",""
"","time_out","","html-keyboard-response","59","408971","0.0-1.0-80.0-0.0","0","0","87035","","null","","","null","8","","","","","","","","","","","","","","","",""
"","ITI","","html-keyboard-response","60","409981","0.0-1.0-81.0","0","0","87035","","589","","","68","8","","","","","","","","","","","","","","","d",""
"","S1","","html-keyboard-response","61","410236","0.0-1.0-83.0","0","0","87035","","null","","","null","9","","","","","","","","","","","","","","","",""
"","ISI","","html-keyboard-response","62","411246","0.0-1.0-84.0","0","0","87035","","null","","","null","9","NaN","","","","","","","","","","","","","","",""
"","S2","","html-keyboard-response","63","411507","0.0-1.0-85.0","0","0","87035","","null","","","null","9","","NaN","","","","","","","","","","","","","",""
"","response","","html-keyboard-response","64","412207","0.0-1.0-86.0-0.0","0","0","87035","","698","","","68","9","","","1","9","training","adjacent","CD","3","4","R.jpg","M.jpg","0","1","0","",""
"","feedback","","html-keyboard-response","65","413212","0.0-1.0-87.0-0.0","0","0","87035","","null","","","null","9","","","","","","","","","","","","","","","",""
"","time_out","","html-keyboard-response","66","415221","0.0-1.0-89.0-0.0","0","0","87035","","null","","","null","9","","","","","","","","","","","","","","","",""
"","ITI","","html-keyboard-response","67","416227","0.0-1.0-90.0","0","0","87035","","816","","","75","9","","","","","","","","","","","","","","","k",""
"","S1","","html-keyboard-response","68","416482","0.0-1.0-92.0","0","0","87035","","null","","","null","10","","","","","","","","","","","","","","","",""
"","ISI","","html-keyboard-response","69","417493","0.0-1.0-93.0","0","0","87035","","null","","","null","10","NaN","","","","","","","","","","","","","","",""
"","S2","","html-keyboard-response","70","417747","0.0-1.0-94.0","0","0","87035","","null","","","null","10","","NaN","","","","","","","","","","","","","",""
"","response","","html-keyboard-response","71","418764","0.0-1.0-95.0-0.0","0","0","87035","","1015","","","75","10","","","1","10","training","adjacent","BC","2","3","P.jpg","R.jpg","1","1","1","",""
"","feedback","","html-keyboard-response","72","419774","0.0-1.0-96.0-0.0","0","0","87035","","null","","","null","10","","","","","","","","","","","","","","","",""
"","ITI","","html-keyboard-response","73","420778","0.0-1.0-99.0","0","0","87035","","null","","","null","10","","","","","","","","","","","","","","","NaN",""
"","S1","","html-keyboard-response","74","421039","0.0-1.0-101.0","0","0","87035","","null","","","null","11","","","","","","","","","","","","","","","",""
"","ISI","","html-keyboard-response","75","422044","0.0-1.0-102.0","0","0","87035","","null","","","null","11","NaN","","","","","","","","","","","","","","",""
"","S2","","html-keyboard-response","76","422299","0.0-1.0-103.0","0","0","87035","","null","","","null","11","","NaN","","","","","","","","","","","","","",""
"","response","","html-keyboard-response","77","422997","0.0-1.0-104.0-0.0","0","0","87035","","696","","","68","11","","","1","11","training","adjacent","DE","4","5","M.jpg","N.jpg","0","1","0","",""
"","feedback","","html-keyboard-response","78","424006","0.0-1.0-105.0-0.0","0","0","87035","","null","","","null","11","","","","","","","","","","","","","","","",""
"","time_out","","html-keyboard-response","79","426012","0.0-1.0-107.0-0.0","0","0","87035","","null","","","null","11","","","","","","","","","","","","","","","",""
"","ITI","","html-keyboard-response","80","427018","0.0-1.0-108.0","0","0","87035","","307","","","75","11","","","","","","","","","","","","","","","k",""
"","S1","","html-keyboard-response","81","427274","0.0-1.0-110.0","0","0","87035","","null","","","null","12","","","","","","","","","","","","","","","",""
"","ISI","","html-keyboard-response","82","428284","0.0-1.0-111.0","0","0","87035","","null","","","null","12","NaN","","","","","","","","","","","","","","",""
"","S2","","html-keyboard-response","83","428540","0.0-1.0-112.0","0","0","87035","","null","","","null","12","","NaN","","","","","","","","","","","","","",""
"","response","","html-keyboard-response","84","429558","0.0-1.0-113.0-0.0","0","0","87035","","1016","","","68","12","","","1","12","training","adjacent","CB","3","2","R.jpg","P.jpg","0","0","1","",""
"","feedback","","html-keyboard-response","85","430566","0.0-1.0-114.0-0.0","0","0","87035","","null","","","null","12","","","","","","","","","","","","","","","",""
"","ITI","","html-keyboard-response","86","431570","0.0-1.0-117.0","0","0","87035","","null","","","null","12","","","","","","","","","","","","","","","NaN",""
"","S1","","html-keyboard-response","87","431831","0.0-1.0-119.0","0","0","87035","","null","","","null","13","","","","","","","","","","","","","","","",""
"","ISI","","html-keyboard-response","88","432836","0.0-1.0-120.0","0","0","87035","","null","","","null","13","NaN","","","","","","","","","","","","","","",""
"","S2","","html-keyboard-response","89","433091","0.0-1.0-121.0","0","0","87035","","null","","","null","13","","NaN","","","","","","","","","","","","","",""
"","response","","html-keyboard-response","90","433518","0.0-1.0-122.0-0.0","0","0","87035","","425","","","75","13","","","1","13","training","adjacent","EF","5","6","N.jpg","O.jpg","1","1","1","",""
"","feedback","","html-keyboard-response","91","434525","0.0-1.0-123.0-0.0","0","0","87035","","null","","","null","13","","","","","","","","","","","","","","","",""
"","ITI","","html-keyboard-response","92","435535","0.0-1.0-126.0","0","0","87035","","null","","","null","13","","","","","","","","","","","","","","","NaN",""
"","S1","","html-keyboard-response","93","435794","0.0-1.0-128.0","0","0","87035","","null","","","null","14","","","","","","","","","","","","","","","",""
"","ISI","","html-keyboard-response","94","436806","0.0-1.0-129.0","0","0","87035","","null","","","null","14","NaN","","","","","","","","","","","","","","",""
"","S2","","html-keyboard-response","95","437067","0.0-1.0-130.0","0","0","87035","","null","","","null","14","","NaN","","","","","","","","","","","","","",""
"","response","","html-keyboard-response","96","437675","0.0-1.0-131.0-0.0","0","0","87035","","606","","","75","14","","","1","14","training","adjacent","CD","3","4","R.jpg","M.jpg","1","1","1","",""
"","feedback","","html-keyboard-response","97","438687","0.0-1.0-132.0-0.0","0","0","87035","","null","","","null","14","","","","","","","","","","","","","","","",""
"","ITI","","html-keyboard-response","98","439691","0.0-1.0-135.0","0","0","87035","","null","","","null","14","","","","","","","","","","","","","","","NaN",""
"","S1","","html-keyboard-response","99","439947","0.0-1.0-137.0","0","0","87035","","null","","","null","15","","","","","","","","","","","","","","","",""
"","ISI","","html-keyboard-response","100","440957","0.0-1.0-138.0","0","0","87035","","null","","","null","15","NaN","","","","","","","","","","","","","","",""
"","S2","","html-keyboard-response","101","441212","0.0-1.0-139.0","0","0","87035","","null","","","null","15","","NaN","","","","","","","","","","","","","",""
"","response","","html-keyboard-response","102","441654","0.0-1.0-140.0-0.0","0","0","87035","","440","","","68","15","","","1","15","training","adjacent","DE","4","5","M.jpg","N.jpg","0","1","0","",""
"","feedback","","html-keyboard-response","103","442664","0.0-1.0-141.0-0.0","0","0","87035","","null","","","null","15","","","","","","","","","","","","","","","",""
"","time_out","","html-keyboard-response","104","444672","0.0-1.0-143.0-0.0","0","0","87035","","null","","","null","15","","","","","","","","","","","","","","","",""
"","ITI","","html-keyboard-response","105","445676","0.0-1.0-144.0","0","0","87035","","467","","","68","15","","","","","","","","","","","","","","","d",""
"","S1","","html-keyboard-response","106","445932","0.0-1.0-146.0","0","0","87035","","null","","","null","16","","","","","","","","","","","","","","","",""
"","ISI","","html-keyboard-response","107","446942","0.0-1.0-147.0","0","0","87035","","null","","","null","16","NaN","","","","","","","","","","","","","","",""
"","S2","","html-keyboard-response","108","447203","0.0-1.0-148.0","0","0","87035","","null","","","null","16","","NaN","","","","","","","","","","","","","",""
"","response","","html-keyboard-response","109","447650","0.0-1.0-149.0-0.0","0","0","87035","","444","","","75","16","","","1","16","training","adjacent","DE","4","5","M.jpg","N.jpg","1","1","1","",""
"","feedback","","html-keyboard-response","110","448660","0.0-1.0-150.0-0.0","0","0","87035","","null","","","null","16","","","","","","","","","","","","","","","",""
"","ITI","","html-keyboard-response","111","449670","0.0-1.0-153.0","0","0","87035","","null","","","null","16","","","","","","","","","","","","","","","NaN",""
"","S1","","html-keyboard-response","112","449931","0.0-1.0-155.0","0","0","87035","","null","","","null","17","","","","","","","","","","","","","","","",""
"","ISI","","html-keyboard-response","113","450942","0.0-1.0-156.0","0","0","87035","","null","","","null","17","NaN","","","","","","","","","","","","","","",""
"","S2","","html-keyboard-response","114","451197","0.0-1.0-157.0","0","0","87035","","null","","","null","17","","NaN","","","","","","","","","","","","","",""
"","response","","html-keyboard-response","115","451650","0.0-1.0-158.0-0.0","0","0","87035","","450","","","68","17","","","1","17","training","adjacent","FE","6","5","O.jpg","N.jpg","0","0","1","",""
"","feedback","","html-keyboard-response","116","452660","0.0-1.0-159.0-0.0","0","0","87035","","null","","","null","17","","","","","","","","","","","","","","","",""
"","ITI","","html-keyboard-response","117","453670","0.0-1.0-162.0","0","0","87035","","null","","","null","17","","","","","","","","","","","","","","","NaN",""
"","S1","","html-keyboard-response","118","453925","0.0-1.0-164.0","0","0","87035","","null","","","null","18","","","","","","","","","","","","","","","",""
"","ISI","","html-keyboard-response","119","454936","0.0-1.0-165.0","0","0","87035","","null","","","null","18","NaN","","","","","","","","","","","","","","",""
"","S2","","html-keyboard-response","120","455197","0.0-1.0-166.0","0","0","87035","","null","","","null","18","","NaN","","","","","","","","","","","","","",""
"","response","","html-keyboard-response","121","455822","0.0-1.0-167.0-0.0","0","0","87035","","624","","","68","18","","","1","18","training","adjacent","DC","4","3","M.jpg","R.jpg","0","0","1","",""
"","feedback","","html-keyboard-response","122","456828","0.0-1.0-168.0-0.0","0","0","87035","","null","","","null","18","","","","","","","","","","","","","","","",""
"","ITI","","html-keyboard-response","123","457838","0.0-1.0-171.0","0","0","87035","","null","","","null","18","","","","","","","","","","","","","","","NaN",""
"","S1","","html-keyboard-response","124","458093","0.0-1.0-173.0","0","0","87035","","null","","","null","19","","","","","","","","","","","","","","","",""
"","ISI","","html-keyboard-response","125","459103","0.0-1.0-174.0","0","0","87035","","null","","","null","19","NaN","","","","","","","","","","","","","","",""
"","S2","","html-keyboard-response","126","459365","0.0-1.0-175.0","0","0","87035","","null","","","null","19","","NaN","","","","","","","","","","","","","",""
"","response","","html-keyboard-response","127","459773","0.0-1.0-176.0-0.0","0","0","87035","","407","","","68","19","","","1","19","training","adjacent","CB","3","2","R.jpg","P.jpg","0","0","1","",""
"","feedback","","html-keyboard-response","128","460782","0.0-1.0-177.0-0.0","0","0","87035","","null","","","null","19","","","","","","","","","","","","","","","",""
"","ITI","","html-keyboard-response","129","461790","0.0-1.0-180.0","0","0","87035","","null","","","null","19","","","","","","","","","","","","","","","NaN",""
"","S1","","html-keyboard-response","130","462046","0.0-1.0-182.0","0","0","87035","","null","","","null","20","","","","","","","","","","","","","","","",""
"","ISI","","html-keyboard-response","131","463051","0.0-1.0-183.0","0","0","87035","","null","","","null","20","NaN","","","","","","","","","","","","","","",""
"","S2","","html-keyboard-response","132","463307","0.0-1.0-184.0","0","0","87035","","null","","","null","20","","NaN","","","","","","","","","","","","","",""
"","response","","html-keyboard-response","133","464129","0.0-1.0-185.0-0.0","0","0","87035","","821","","","68","20","","","1","20","training","adjacent","AB","1","2","Q.jpg","P.jpg","0","1","0","",""
"","feedback","","html-keyboard-response","134","465140","0.0-1.0-186.0-0.0","0","0","87035","","null","","","null","20","","","","","","","","","","","","","","","",""
"","time_out","","html-keyboard-response","135","467149","0.0-1.0-188.0-0.0","0","0","87035","","null","","","null","20","","","","","","","","","","","","","","","",""
"","ITI","","html-keyboard-response","136","468159","0.0-1.0-189.0","0","0","87035","","86","","","75","20","","","","","","","","","","","","","","","k",""
"","S1","","html-keyboard-response","137","468413","0.0-1.0-191.0","0","0","87035","","null","","","null","21","","","","","","","","","","","","","","","",""
"","ISI","","html-keyboard-response","138","469419","0.0-1.0-192.0","0","0","87035","","null","","","null","21","NaN","","","","","","","","","","","","","","",""
"","S2","","html-keyboard-response","139","469680","0.0-1.0-193.0","0","0","87035","","null","","","null","21","","NaN","","","","","","","","","","","","","",""
"","response","","html-keyboard-response","140","470071","0.0-1.0-194.0-0.0","0","0","87035","","389","","","75","21","","","1","21","training","adjacent","EF","5","6","N.jpg","O.jpg","1","1","1","",""
"","feedback","","html-keyboard-response","141","471079","0.0-1.0-195.0-0.0","0","0","87035","","null","","","null","21","","","","","","","","","","","","","","","",""
"","ITI","","html-keyboard-response","142","472084","0.0-1.0-198.0","0","0","87035","","null","","","null","21","","","","","","","","","","","","","","","NaN",""
"","S1","","html-keyboard-response","143","472339","0.0-1.0-200.0","0","0","87035","","null","","","null","22","","","","","","","","","","","","","","","",""
"","ISI","","html-keyboard-response","144","473349","0.0-1.0-201.0","0","0","87035","","null","","","null","22","NaN","","","","","","","","","","","","","","",""
"","S2","","html-keyboard-response","145","473605","0.0-1.0-202.0","0","0","87035","","null","","","null","22","","NaN","","","","","","","","","","","","","",""
"","response","","html-keyboard-response","146","473830","0.0-1.0-203.0-0.0","0","0","87035","","224","","","68","22","","","1","22","training","adjacent","GF","7","6","L.jpg","O.jpg","0","0","1","",""
"","feedback","","html-keyboard-response","147","474836","0.0-1.0-204.0-0.0","0","0","87035","","null","","","null","22","","","","","","","","","","","","","","","",""
"","ITI","","html-keyboard-response","148","475845","0.0-1.0-207.0","0","0","87035","","null","","","null","22","","","","","","","","","","","","","","","NaN",""
"","S1","","html-keyboard-response","149","476101","0.0-1.0-209.0","0","0","87035","","null","","","null","23","","","","","","","","","","","","","","","",""
"","ISI","","html-keyboard-response","150","477110","0.0-1.0-210.0","0","0","87035","","null","","","null","23","NaN","","","","","","","","","","","","","","",""
"","S2","","html-keyboard-response","151","477367","0.0-1.0-211.0","0","0","87035","","null","","","null","23","","NaN","","","","","","","","","","","","","",""
"","response","","html-keyboard-response","152","478235","0.0-1.0-212.0-0.0","0","0","87035","","866","","","75","23","","","1","23","training","adjacent","AB","1","2","Q.jpg","P.jpg","1","1","1","",""
"","feedback","","html-keyboard-response","153","479245","0.0-1.0-213.0-0.0","0","0","87035","","null","","","null","23","","","","","","","","","","","","","","","",""
"","ITI","","html-keyboard-response","154","480253","0.0-1.0-216.0","0","0","87035","","null","","","null","23","","","","","","","","","","","","","","","NaN",""
"","S1","","html-keyboard-response","155","480508","0.0-1.0-218.0","0","0","87035","","null","","","null","24","","","","","","","","","","","","","","","",""
"","ISI","","html-keyboard-response","156","481511","0.0-1.0-219.0","0","0","87035","","null","","","null","24","NaN","","","","","","","","","","","","","","",""
"","S2","","html-keyboard-response","157","481773","0.0-1.0-220.0","0","0","87035","","null","","","null","24","","NaN","","","","","","","","","","","","","",""
"","response","","html-keyboard-response","158","482164","0.0-1.0-221.0-0.0","0","0","87035","","390","","","75","24","","","1","24","training","adjacent","FE","6","5","O.jpg","N.jpg","1","0","0","",""
"","feedback","","html-keyboard-response","159","483172","0.0-1.0-222.0-0.0","0","0","87035","","null","","","null","24","","","","","","","","","","","","","","","",""
"","time_out","","html-keyboard-response","160","485180","0.0-1.0-224.0-0.0","0","0","87035","","null","","","null","24","","","","","","","","","","","","","","","",""
"","ITI","","html-keyboard-response","161","486190","0.0-1.0-225.0","0","0","87035","","null","","","null","24","","","","","","","","","","","","","","","NaN",""
"","S1","","html-keyboard-response","162","486445","0.0-1.0-227.0","0","0","87035","","null","","","null","25","","","","","","","","","","","","","","","",""
"","ISI","","html-keyboard-response","163","487456","0.0-1.0-228.0","0","0","87035","","null","","","null","25","NaN","","","","","","","","","","","","","","",""
"","S2","","html-keyboard-response","164","487711","0.0-1.0-229.0","0","0","87035","","null","","","null","25","","NaN","","","","","","","","","","","","","",""
"","response","","html-keyboard-response","165","488158","0.0-1.0-230.0-0.0","0","0","87035","","445","","","68","25","","","1","25","training","adjacent","FE","6","5","O.jpg","N.jpg","0","0","1","",""
"","feedback","","html-keyboard-response","166","489169","0.0-1.0-231.0-0.0","0","0","87035","","null","","","null","25","","","","","","","","","","","","","","","",""
"","ITI","","html-keyboard-response","167","490172","0.0-1.0-234.0","0","0","87035","","null","","","null","25","","","","","","","","","","","","","","","NaN",""
"","S1","","html-keyboard-response","168","490428","0.0-1.0-236.0","0","0","87035","","null","","","null","26","","","","","","","","","","","","","","","",""
"","ISI","","html-keyboard-response","169","491438","0.0-1.0-237.0","0","0","87035","","null","","","null","26","NaN","","","","","","","","","","","","","","",""
"","S2","","html-keyboard-response","170","491694","0.0-1.0-238.0","0","0","87035","","null","","","null","26","","NaN","","","","","","","","","","","","","",""
"","response","","html-keyboard-response","171","492552","0.0-1.0-239.0-0.0","0","0","87035","","856","","","75","26","","","1","26","training","adjacent","GF","7","6","L.jpg","O.jpg","1","0","0","",""
"","feedback","","html-keyboard-response","172","493556","0.0-1.0-240.0-0.0","0","0","87035","","null","","","null","26","","","","","","","","","","","","","","","",""
"","time_out","","html-keyboard-response","173","495560","0.0-1.0-242.0-0.0","0","0","87035","","null","","","null","26","","","","","","","","","","","","","","","",""
"","ITI","","html-keyboard-response","174","496564","0.0-1.0-243.0","0","0","87035","","79","","","68","26","","","","","","","","","","","","","","","d",""
"","S1","","html-keyboard-response","175","496820","0.0-1.0-245.0","0","0","87035","","null","","","null","27","","","","","","","","","","","","","","","",""
"","ISI","","html-keyboard-response","176","497829","0.0-1.0-246.0","0","0","87035","","null","","","null","27","NaN","","","","","","","","","","","","","","",""
"","S2","","html-keyboard-response","177","498085","0.0-1.0-247.0","0","0","87035","","null","","","null","27","","NaN","","","","","","","","","","","","","",""
"","response","","html-keyboard-response","178","498528","0.0-1.0-248.0-0.0","0","0","87035","","441","","","68","27","","","1","27","training","adjacent","DC","4","3","M.jpg","R.jpg","0","0","1","",""
"","feedback","","html-keyboard-response","179","499536","0.0-1.0-249.0-0.0","0","0","87035","","null","","","null","27","","","","","","","","","","","","","","","",""
"","ITI","","html-keyboard-response","180","500541","0.0-1.0-252.0","0","0","87035","","null","","","null","27","","","","","","","","","","","","","","","NaN",""
"","S1","","html-keyboard-response","181","500796","0.0-1.0-254.0","0","0","87035","","null","","","null","28","","","","","","","","","","","","","","","",""
"","ISI","","html-keyboard-response","182","501806","0.0-1.0-255.0","0","0","87035","","null","","","null","28","NaN","","","","","","","","","","","","","","",""
"","S2","","html-keyboard-response","183","502064","0.0-1.0-256.0","0","0","87035","","null","","","null","28","","NaN","","","","","","","","","","","","","",""
"","response","","html-keyboard-response","184","502472","0.0-1.0-257.0-0.0","0","0","87035","","405","","","68","28","","","1","28","training","adjacent","CB","3","2","R.jpg","P.jpg","0","0","1","",""
"","feedback","","html-keyboard-response","185","503478","0.0-1.0-258.0-0.0","0","0","87035","","null","","","null","28","","","","","","","","","","","","","","","",""
"","ITI","","html-keyboard-response","186","504488","0.0-1.0-261.0","0","0","87035","","null","","","null","28","","","","","","","","","","","","","","","NaN",""
"","S1","","html-keyboard-response","187","504749","0.0-1.0-263.0","0","0","87035","","null","","","null","29","","","","","","","","","","","","","","","",""
"","ISI","","html-keyboard-response","188","505759","0.0-1.0-264.0","0","0","87035","","null","","","null","29","NaN","","","","","","","","","","","","","","",""
"","S2","","html-keyboard-response","189","506020","0.0-1.0-265.0","0","0","87035","","null","","","null","29","","NaN","","","","","","","","","","","","","",""
"","response","","html-keyboard-response","190","506291","0.0-1.0-266.0-0.0","0","0","87035","","269","","","75","29","","","1","29","training","adjacent","ED","5","4","N.jpg","M.jpg","1","0","0","",""
"","feedback","","html-keyboard-response","191","507303","0.0-1.0-267.0-0.0","0","0","87035","","null","","","null","29","","","","","","","","","","","","","","","",""
"","time_out","","html-keyboard-response","192","509311","0.0-1.0-269.0-0.0","0","0","87035","","null","","","null","29","","","","","","","","","","","","","","","",""
"","ITI","","html-keyboard-response","193","510316","0.0-1.0-270.0","0","0","87035","","573","","","75","29","","","","","","","","","","","","","","","k",""
"","S1","","html-keyboard-response","194","510572","0.0-1.0-272.0","0","0","87035","","null","","","null","30","","","","","","","","","","","","","","","",""
"","ISI","","html-keyboard-response","195","511581","0.0-1.0-273.0","0","0","87035","","null","","","null","30","NaN","","","","","","","","","","","","","","",""
"","S2","","html-keyboard-response","196","511837","0.0-1.0-274.0","0","0","87035","","null","","","null","30","","NaN","","","","","","","","","","","","","",""
"","response","","html-keyboard-response","197","512381","0.0-1.0-275.0-0.0","0","0","87035","","541","","","68","30","","","1","30","training","adjacent","FE","6","5","O.jpg","N.jpg","0","0","1","",""
"","feedback","","html-keyboard-response","198","513393","0.0-1.0-276.0-0.0","0","0","87035","","null","","","null","30","","","","","","","","","","","","","","","",""
"","ITI","","html-keyboard-response","199","514397","0.0-1.0-279.0","0","0","87035","","null","","","null","30","","","","","","","","","","","","","","","NaN",""
"","S1","","html-keyboard-response","200","514653","0.0-1.0-281.0","0","0","87035","","null","","","null","31","","","","","","","","","","","","","","","",""
"","ISI","","html-keyboard-response","201","515663","0.0-1.0-282.0","0","0","87035","","null","","","null","31","NaN","","","","","","","","","","","","","","",""
"","S2","","html-keyboard-response","202","515917","0.0-1.0-283.0","0","0","87035","","null","","","null","31","","NaN","","","","","","","","","","","","","",""
"","response","","html-keyboard-response","203","516478","0.0-1.0-284.0-0.0","0","0","87035","","559","","","75","31","","","1","31","training","adjacent","FG","6","7","O.jpg","L.jpg","1","1","1","",""
"","feedback","","html-keyboard-response","204","517485","0.0-1.0-285.0-0.0","0","0","87035","","null","","","null","31","","","","","","","","","","","","","","","",""
"","ITI","","html-keyboard-response","205","518494","0.0-1.0-288.0","0","0","87035","","null","","","null","31","","","","","","","","","","","","","","","NaN",""
"","S1","","html-keyboard-response","206","518751","0.0-1.0-290.0","0","0","87035","","null","","","null","32","","","","","","","","","","","","","","","",""
"","ISI","","html-keyboard-response","207","519761","0.0-1.0-291.0","0","0","87035","","null","","","null","32","NaN","","","","","","","","","","","","","","",""
"","S2","","html-keyboard-response","208","520021","0.0-1.0-292.0","0","0","87035","","null","","","null","32","","NaN","","","","","","","","","","","","","",""
"","response","","html-keyboard-response","209","520119","0.0-1.0-293.0-0.0","0","0","87035","","96","","","75","32","","","1","32","training","adjacent","BC","2","3","P.jpg","R.jpg","1","1","1","",""
"","feedback","","html-keyboard-response","210","521126","0.0-1.0-294.0-0.0","0","0","87035","","null","","","null","32","","","","","","","","","","","","","","","",""
"","ITI","","html-keyboard-response","211","522135","0.0-1.0-297.0","0","0","87035","","null","","","null","32","","","","","","","","","","","","","","","NaN",""
"","S1","","html-keyboard-response","212","522391","0.0-1.0-299.0","0","0","87035","","null","","","null","33","","","","","","","","","","","","","","","",""
"","ISI","","html-keyboard-response","213","523400","0.0-1.0-300.0","0","0","87035","","null","","","null","33","NaN","","","","","","","","","","","","","","",""
"","S2","","html-keyboard-response","214","523656","0.0-1.0-301.0","0","0","87035","","null","","","null","33","","NaN","","","","","","","","","","","","","",""
"","response","","html-keyboard-response","215","523721","0.0-1.0-302.0-0.0","0","0","87035","","63","","","68","33","","","1","33","training","adjacent","GF","7","6","L.jpg","O.jpg","0","0","1","",""
"","feedback","","html-keyboard-response","216","524724","0.0-1.0-303.0-0.0","0","0","87035","","null","","","null","33","","","","","","","","","","","","","","","",""
"","ITI","","html-keyboard-response","217","525734","0.0-1.0-306.0","0","0","87035","","null","","","null","33","","","","","","","","","","","","","","","NaN",""
"","S1","","html-keyboard-response","218","525989","0.0-1.0-308.0","0","0","87035","","null","","","null","34","","","","","","","","","","","","","","","",""
"","ISI","","html-keyboard-response","219","527000","0.0-1.0-309.0","0","0","87035","","null","","","null","34","NaN","","","","","","","","","","","","","","",""
"","S2","","html-keyboard-response","220","527261","0.0-1.0-310.0","0","0","87035","","null","","","null","34","","NaN","","","","","","","","","","","","","",""
"","response","","html-keyboard-response","221","527786","0.0-1.0-311.0-0.0","0","0","87035","","523","","","75","34","","","1","34","training","adjacent","BC","2","3","P.jpg","R.jpg","1","1","1","",""
"","feedback","","html-keyboard-response","222","528800","0.0-1.0-312.0-0.0","0","0","87035","","null","","","null","34","","","","","","","","","","","","","","","",""
"","ITI","","html-keyboard-response","223","529809","0.0-1.0-315.0","0","0","87035","","null","","","null","34","","","","","","","","","","","","","","","NaN",""
"","S1","","html-keyboard-response","224","530071","0.0-1.0-317.0","0","0","87035","","null","","","null","35","","","","","","","","","","","","","","","",""
"","ISI","","html-keyboard-response","225","531082","0.0-1.0-318.0","0","0","87035","","null","","","null","35","NaN","","","","","","","","","","","","","","",""
"","S2","","html-keyboard-response","226","531342","0.0-1.0-319.0","0","0","87035","","null","","","null","35","","NaN","","","","","","","","","","","","","",""
"","response","","html-keyboard-response","227","531424","0.0-1.0-320.0-0.0","0","0","87035","","80","","","68","35","","","1","35","training","adjacent","CD","3","4","R.jpg","M.jpg","0","1","0","",""
"","feedback","","html-keyboard-response","228","532434","0.0-1.0-321.0-0.0","0","0","87035","","null","","","null","35","","","","","","","","","","","","","","","",""
"","time_out","","html-keyboard-response","229","534436","0.0-1.0-323.0-0.0","0","0","87035","","null","","","null","35","","","","","","","","","","","","","","","",""
"","ITI","","html-keyboard-response","230","535446","0.0-1.0-324.0","0","0","87035","","305","","","75","35","","","","","","","","","","","","","","","k",""
"","S1","","html-keyboard-response","231","535702","0.0-1.0-326.0","0","0","87035","","null","","","null","36","","","","","","","","","","","","","","","",""
"","ISI","","html-keyboard-response","232","536712","0.0-1.0-327.0","0","0","87035","","null","","","null","36","NaN","","","","","","","","","","","","","","",""
"","S2","","html-keyboard-response","233","536978","0.0-1.0-328.0","0","0","87035","","null","","","null","36","","NaN","","","","","","","","","","","","","",""
"","response","","html-keyboard-response","234","537324","0.0-1.0-329.0-0.0","0","0","87035","","344","","","75","36","","","1","36","training","adjacent","BA","2","1","P.jpg","Q.jpg","1","0","0","",""
"","feedback","","html-keyboard-response","235","538337","0.0-1.0-330.0-0.0","0","0","87035","","null","","","null","36","","","","","","","","","","","","","","","",""
"","time_out","","html-keyboard-response","236","540346","0.0-1.0-332.0-0.0","0","0","87035","","null","","","null","36","","","","","","","","","","","","","","","",""
"","ITI","","html-keyboard-response","237","541350","0.0-1.0-333.0","0","0","87035","","93","","","68","36","","","","","","","","","","","","","","","d",""
"","S1","","html-keyboard-response","238","541606","0.0-1.0-335.0","0","0","87035","","null","","","null","37","","","","","","","","","","","","","","","",""
"","ISI","","html-keyboard-response","239","542615","0.0-1.0-336.0","0","0","87035","","null","","","null","37","NaN","","","","","","","","","","","","","","",""
"","S2","","html-keyboard-response","240","542871","0.0-1.0-337.0","0","0","87035","","null","","","null","37","","NaN","","","","","","","","","","","","","",""
"","response","","html-keyboard-response","241","543461","0.0-1.0-338.0-0.0","0","0","87035","","587","","","75","37","","","1","37","training","adjacent","FG","6","7","O.jpg","L.jpg","1","1","1","",""
"","feedback","","html-keyboard-response","242","544474","0.0-1.0-339.0-0.0","0","0","87035","","null","","","null","37","","","","","","","","","","","","","","","",""
"","ITI","","html-keyboard-response","243","545478","0.0-1.0-342.0","0","0","87035","","null","","","null","37","","","","","","","","","","","","","","","NaN",""
"","S1","","html-keyboard-response","244","545733","0.0-1.0-344.0","0","0","87035","","null","","","null","38","","","","","","","","","","","","","","","",""
"","ISI","","html-keyboard-response","245","546743","0.0-1.0-345.0","0","0","87035","","null","","","null","38","NaN","","","","","","","","","","","","","","",""
"","S2","","html-keyboard-response","246","546999","0.0-1.0-346.0","0","0","87035","","null","","","null","38","","NaN","","","","","","","","","","","","","",""
"","response","","html-keyboard-response","247","547448","0.0-1.0-347.0-0.0","0","0","87035","","448","","","68","38","","","1","38","training","adjacent","DC","4","3","M.jpg","R.jpg","0","0","1","",""
"","feedback","","html-keyboard-response","248","548456","0.0-1.0-348.0-0.0","0","0","87035","","null","","","null","38","","","","","","","","","","","","","","","",""
"","ITI","","html-keyboard-response","249","549464","0.0-1.0-351.0","0","0","87035","","null","","","null","38","","","","","","","","","","","","","","","NaN",""
"","S1","","html-keyboard-response","250","549718","0.0-1.0-353.0","0","0","87035","","null","","","null","39","","","","","","","","","","","","","","","",""
"","ISI","","html-keyboard-response","251","550725","0.0-1.0-354.0","0","0","87035","","null","","","null","39","NaN","","","","","","","","","","","","","","",""
"","S2","","html-keyboard-response","252","550982","0.0-1.0-355.0","0","0","87035","","null","","","null","39","","NaN","","","","","","","","","","","","","",""
"","response","","html-keyboard-response","253","551267","0.0-1.0-356.0-0.0","0","0","87035","","284","","","68","39","","","1","39","training","adjacent","EF","5","6","N.jpg","O.jpg","0","1","0","",""
"","feedback","","html-keyboard-response","254","552280","0.0-1.0-357.0-0.0","0","0","87035","","null","","","null","39","","","","","","","","","","","","","","","",""
"","time_out","","html-keyboard-response","255","554286","0.0-1.0-359.0-0.0","0","0","87035","","null","","","null","39","","","","","","","","","","","","","","","",""
"","ITI","","html-keyboard-response","256","555297","0.0-1.0-360.0","0","0","87035","","183","","","75","39","","","","","","","","","","","","","","","k",""
"","S1","","html-keyboard-response","257","555561","0.0-1.0-362.0","0","0","87035","","null","","","null","40","","","","","","","","","","","","","","","",""
"","ISI","","html-keyboard-response","258","556565","0.0-1.0-363.0","0","0","87035","","null","","","null","40","NaN","","","","","","","","","","","","","","",""
"","S2","","html-keyboard-response","259","556820","0.0-1.0-364.0","0","0","87035","","null","","","null","40","","NaN","","","","","","","","","","","","","",""
"","response","","html-keyboard-response","260","557054","0.0-1.0-365.0-0.0","0","0","87035","","232","","","75","40","","","1","40","training","adjacent","FG","6","7","O.jpg","L.jpg","1","1","1","",""
"","feedback","","html-keyboard-response","261","558063","0.0-1.0-366.0-0.0","0","0","87035","","null","","","null","40","","","","","","","","","","","","","","","",""
"","ITI","","html-keyboard-response","262","559073","0.0-1.0-369.0","0","0","87035","","null","","","null","40","","","","","","","","","","","","","","","NaN",""
"","S1","","html-keyboard-response","263","559334","0.0-1.0-371.0","0","0","87035","","null","","","null","41","","","","","","","","","","","","","","","",""
"","ISI","","html-keyboard-response","264","560344","0.0-1.0-372.0","0","0","87035","","null","","","null","41","NaN","","","","","","","","","","","","","","",""
"","S2","","html-keyboard-response","265","560606","0.0-1.0-373.0","0","0","87035","","null","","","null","41","","NaN","","","","","","","","","","","","","",""
"","response","","html-keyboard-response","266","560744","0.0-1.0-374.0-0.0","0","0","87035","","137","","","68","41","","","1","41","training","adjacent","ED","5","4","N.jpg","M.jpg","0","0","1","",""
"","feedback","","html-keyboard-response","267","561749","0.0-1.0-375.0-0.0","0","0","87035","","null","","","null","41","","","","","","","","","","","","","","","",""
"","ITI","","html-keyboard-response","268","562758","0.0-1.0-378.0","0","0","87035","","null","","","null","41","","","","","","","","","","","","","","","NaN",""
"","S1","","html-keyboard-response","269","563014","0.0-1.0-380.0","0","0","87035","","null","","","null","42","","","","","","","","","","","","","","","",""
"","ISI","","html-keyboard-response","270","564024","0.0-1.0-381.0","0","0","87035","","null","","","null","42","NaN","","","","","","","","","","","","","","",""
"","S2","","html-keyboard-response","271","564286","0.0-1.0-382.0","0","0","87035","","null","","","null","42","","NaN","","","","","","","","","","","","","",""
"","response","","html-keyboard-response","272","564862","0.0-1.0-383.0-0.0","0","0","87035","","574","","","75","42","","","1","42","training","adjacent","BA","2","1","P.jpg","Q.jpg","1","0","0","",""
"","feedback","","html-keyboard-response","273","565871","0.0-1.0-384.0-0.0","0","0","87035","","null","","","null","42","","","","","","","","","","","","","","","",""
"","time_out","","html-keyboard-response","274","567874","0.0-1.0-386.0-0.0","0","0","87035","","null","","","null","42","","","","","","","","","","","","","","","",""
"","ITI","","html-keyboard-response","275","568878","0.0-1.0-387.0","0","0","87035","","906","","","75","42","","","","","","","","","","","","","","","k",""
"","S1","","html-keyboard-response","276","569134","0.0-1.0-389.0","0","0","87035","","null","","","null","43","","","","","","","","","","","","","","","",""
"","ISI","","html-keyboard-response","277","570144","0.0-1.0-390.0","0","0","87035","","null","","","null","43","NaN","","","","","","","","","","","","","","",""
"","S2","","html-keyboard-response","278","570399","0.0-1.0-391.0","0","0","87035","","null","","","null","43","","NaN","","","","","","","","","","","","","",""
"","response","","html-keyboard-response","279","571256","0.0-1.0-392.0-0.0","0","0","87035","","855","","","68","43","","","1","43","training","adjacent","CD","3","4","R.jpg","M.jpg","0","1","0","",""
"","feedback","","html-keyboard-response","280","572262","0.0-1.0-393.0-0.0","0","0","87035","","null","","","null","43","","","","","","","","","","","","","","","",""
"","time_out","","html-keyboard-response","281","574271","0.0-1.0-395.0-0.0","0","0","87035","","null","","","null","43","","","","","","","","","","","","","","","",""
"","ITI","","html-keyboard-response","282","575281","0.0-1.0-396.0","0","0","87035","","8","","","68","43","","","","","","","","","","","","","","","d",""
"","S1","","html-keyboard-response","283","575543","0.0-1.0-398.0","0","0","87035","","null","","","null","44","","","","","","","","","","","","","","","",""
"","ISI","","html-keyboard-response","284","576552","0.0-1.0-399.0","0","0","87035","","null","","","null","44","NaN","","","","","","","","","","","","","","",""
"","S2","","html-keyboard-response","285","576808","0.0-1.0-400.0","0","0","87035","","null","","","null","44","","NaN","","","","","","","","","","","","","",""
"","response","","html-keyboard-response","286","577114","0.0-1.0-401.0-0.0","0","0","87035","","303","","","68","44","","","1","44","training","adjacent","ED","5","4","N.jpg","M.jpg","0","0","1","",""
"","feedback","","html-keyboard-response","287","578118","0.0-1.0-402.0-0.0","0","0","87035","","null","","","null","44","","","","","","","","","","","","","","","",""
"","ITI","","html-keyboard-response","288","579129","0.0-1.0-405.0","0","0","87035","","null","","","null","44","","","","","","","","","","","","","","","NaN",""
"","S1","","html-keyboard-response","289","579384","0.0-1.0-407.0","0","0","87035","","null","","","null","45","","","","","","","","","","","","","","","",""
"","ISI","","html-keyboard-response","290","580390","0.0-1.0-408.0","0","0","87035","","null","","","null","45","NaN","","","","","","","","","","","","","","",""
"","S2","","html-keyboard-response","291","580646","0.0-1.0-409.0","0","0","87035","","null","","","null","45","","NaN","","","","","","","","","","","","","",""
"","response","","html-keyboard-response","292","581113","0.0-1.0-410.0-0.0","0","0","87035","","465","","","75","45","","","1","45","training","adjacent","FG","6","7","O.jpg","L.jpg","1","1","1","",""
"","feedback","","html-keyboard-response","293","582118","0.0-1.0-411.0-0.0","0","0","87035","","null","","","null","45","","","","","","","","","","","","","","","",""
"","ITI","","html-keyboard-response","294","583129","0.0-1.0-414.0","0","0","87035","","null","","","null","45","","","","","","","","","","","","","","","NaN",""
"","S1","","html-keyboard-response","295","583390","0.0-1.0-416.0","0","0","87035","","null","","","null","46","","","","","","","","","","","","","","","",""
"","ISI","","html-keyboard-response","296","584401","0.0-1.0-417.0","0","0","87035","","null","","","null","46","NaN","","","","","","","","","","","","","","",""
"","S2","","html-keyboard-response","297","584664","0.0-1.0-418.0","0","0","87035","","null","","","null","46","","NaN","","","","","","","","","","","","","",""
"","response","","html-keyboard-response","298","585168","0.0-1.0-419.0-0.0","0","0","87035","","502","","","68","46","","","1","46","training","adjacent","BC","2","3","P.jpg","R.jpg","0","1","0","",""
"","feedback","","html-keyboard-response","299","586177","0.0-1.0-420.0-0.0","0","0","87035","","null","","","null","46","","","","","","","","","","","","","","","",""
"","time_out","","html-keyboard-response","300","588186","0.0-1.0-422.0-0.0","0","0","87035","","null","","","null","46","","","","","","","","","","","","","","","",""
"","ITI","","html-keyboard-response","301","589190","0.0-1.0-423.0","0","0","87035","","436","","","75","46","","","","","","","","","","","","","","","k",""
"","S1","","html-keyboard-response","302","589445","0.0-1.0-425.0","0","0","87035","","null","","","null","47","","","","","","","","","","","","","","","",""
"","ISI","","html-keyboard-response","303","590456","0.0-1.0-426.0","0","0","87035","","null","","","null","47","NaN","","","","","","","","","","","","","","",""
"","S2","","html-keyboard-response","304","590711","0.0-1.0-427.0","0","0","87035","","null","","","null","47","","NaN","","","","","","","","","","","","","",""
"","response","","html-keyboard-response","305","591374","0.0-1.0-428.0-0.0","0","0","87035","","661","","","68","47","","","1","47","training","adjacent","BA","2","1","P.jpg","Q.jpg","0","0","1","",""
"","feedback","","html-keyboard-response","306","592382","0.0-1.0-429.0-0.0","0","0","87035","","null","","","null","47","","","","","","","","","","","","","","","",""
"","ITI","","html-keyboard-response","307","593393","0.0-1.0-432.0","0","0","87035","","null","","","null","47","","","","","","","","","","","","","","","NaN",""
"","block_over","","html-keyboard-response","308","604635","0.0-1.0-433.0-0.0","0","0","87035","","11239","","","32","47","","","","","","","","","","","","","","","",""
"","S1","","html-keyboard-response","309","604899","0.0-1.0-434.0","0","0","87035","","null","","","null","48","","","","","","","","","","","","","","","",""
"","ISI","","html-keyboard-response","310","605903","0.0-1.0-435.0","0","0","87035","","null","","","null","48","NaN","","","","","","","","","","","","","","",""
"","S2","","html-keyboard-response","311","606158","0.0-1.0-436.0","0","0","87035","","null","","","null","48","","NaN","","","","","","","","","","","","","",""
"","response","","html-keyboard-response","312","606797","0.0-1.0-437.0-0.0","0","0","87035","","636","","","75","48","","","2","48","training","adjacent","BA","2","1","P.jpg","Q.jpg","1","0","0","",""
"","feedback","","html-keyboard-response","313","607807","0.0-1.0-438.0-0.0","0","0","87035","","null","","","null","48","","","","","","","","","","","","","","","",""
"","time_out","","html-keyboard-response","314","609810","0.0-1.0-440.0-0.0","0","0","87035","","null","","","null","48","","","","","","","","","","","","","","","",""
"","ITI","","html-keyboard-response","315","610814","0.0-1.0-441.0","0","0","87035","","null","","","null","48","","","","","","","","","","","","","","","NaN",""
"","S1","","html-keyboard-response","316","611073","0.0-1.0-443.0","0","0","87035","","null","","","null","49","","","","","","","","","","","","","","","",""
"","ISI","","html-keyboard-response","317","612080","0.0-1.0-444.0","0","0","87035","","null","","","null","49","NaN","","","","","","","","","","","","","","",""
"","S2","","html-keyboard-response","318","612335","0.0-1.0-445.0","0","0","87035","","null","","","null","49","","NaN","","","","","","","","","","","","","",""
"","response","","html-keyboard-response","319","612985","0.0-1.0-446.0-0.0","0","0","87035","","648","","","68","49","","","2","49","training","adjacent","ED","5","4","N.jpg","M.jpg","0","0","1","",""
"","feedback","","html-keyboard-response","320","613991","0.0-1.0-447.0-0.0","0","0","87035","","null","","","null","49","","","","","","","","","","","","","","","",""
"","ITI","","html-keyboard-response","321","614999","0.0-1.0-450.0","0","0","87035","","null","","","null","49","","","","","","","","","","","","","","","NaN",""
"","S1","","html-keyboard-response","322","615255","0.0-1.0-452.0","0","0","87035","","null","","","null","50","","","","","","","","","","","","","","","",""
"","ISI","","html-keyboard-response","323","616264","0.0-1.0-453.0","0","0","87035","","null","","","null","50","NaN","","","","","","","","","","","","","","",""
"","S2","","html-keyboard-response","324","616518","0.0-1.0-454.0","0","0","87035","","null","","","null","50","","NaN","","","","","","","","","","","","","",""
"","response","","html-keyboard-response","325","616958","0.0-1.0-455.0-0.0","0","0","87035","","437","","","75","50","","","2","50","training","adjacent","EF","5","6","N.jpg","O.jpg","1","1","1","",""
"","feedback","","html-keyboard-response","326","617966","0.0-1.0-456.0-0.0","0","0","87035","","null","","","null","50","","","","","","","","","","","","","","","",""
"","ITI","","html-keyboard-response","327","618976","0.0-1.0-459.0","0","0","87035","","null","","","null","50","","","","","","","","","","","","","","","NaN",""
"","S1","","html-keyboard-response","328","619232","0.0-1.0-461.0","0","0","87035","","null","","","null","51","","","","","","","","","","","","","","","",""
"","ISI","","html-keyboard-response","329","620241","0.0-1.0-462.0","0","0","87035","","null","","","null","51","NaN","","","","","","","","","","","","","","",""
"","S2","","html-keyboard-response","330","620503","0.0-1.0-463.0","0","0","87035","","null","","","null","51","","NaN","","","","","","","","","","","","","",""
"","response","","html-keyboard-response","331","621755","0.0-1.0-464.0-0.0","0","0","87035","","1250","","","75","51","","","2","51","training","adjacent","BC","2","3","P.jpg","R.jpg","1","1","1","",""
"","feedback","","html-keyboard-response","332","622760","0.0-1.0-465.0-0.0","0","0","87035","","null","","","null","51","","","","","","","","","","","","","","","",""
"","ITI","","html-keyboard-response","333","623771","0.0-1.0-468.0","0","0","87035","","null","","","null","51","","","","","","","","","","","","","","","NaN",""
"","S1","","html-keyboard-response","334","624032","0.0-1.0-470.0","0","0","87035","","null","","","null","52","","","","","","","","","","","","","","","",""
"","ISI","","html-keyboard-response","335","625043","0.0-1.0-471.0","0","0","87035","","null","","","null","52","NaN","","","","","","","","","","","","","","",""
"","S2","","html-keyboard-response","336","625303","0.0-1.0-472.0","0","0","87035","","null","","","null","52","","NaN","","","","","","","","","","","","","",""
"","response","","html-keyboard-response","337","625795","0.0-1.0-473.0-0.0","0","0","87035","","491","","","68","52","","","2","52","training","adjacent","ED","5","4","N.jpg","M.jpg","0","0","1","",""
"","feedback","","html-keyboard-response","338","626801","0.0-1.0-474.0-0.0","0","0","87035","","null","","","null","52","","","","","","","","","","","","","","","",""
"","ITI","","html-keyboard-response","339","627807","0.0-1.0-477.0","0","0","87035","","null","","","null","52","","","","","","","","","","","","","","","NaN",""
"","S1","","html-keyboard-response","340","628068","0.0-1.0-479.0","0","0","87035","","null","","","null","53","","","","","","","","","","","","","","","",""
"","ISI","","html-keyboard-response","341","629082","0.0-1.0-480.0","0","0","87035","","null","","","null","53","NaN","","","","","","","","","","","","","","",""
"","S2","","html-keyboard-response","342","629344","0.0-1.0-481.0","0","0","87035","","null","","","null","53","","NaN","","","","","","","","","","","","","",""
"","response","","html-keyboard-response","343","629822","0.0-1.0-482.0-0.0","0","0","87035","","476","","","68","53","","","2","53","training","adjacent","BA","2","1","P.jpg","Q.jpg","0","0","1","",""
"","feedback","","html-keyboard-response","344","630830","0.0-1.0-483.0-0.0","0","0","87035","","null","","","null","53","","","","","","","","","","","","","","","",""
"","ITI","","html-keyboard-response","345","631840","0.0-1.0-486.0","0","0","87035","","null","","","null","53","","","","","","","","","","","","","","","NaN",""
"","S1","","html-keyboard-response","346","632099","0.0-1.0-488.0","0","0","87035","","null","","","null","54","","","","","","","","","","","","","","","",""
"","ISI","","html-keyboard-response","347","633105","0.0-1.0-489.0","0","0","87035","","null","","","null","54","NaN","","","","","","","","","","","","","","",""
"","S2","","html-keyboard-response","348","633360","0.0-1.0-490.0","0","0","87035","","null","","","null","54","","NaN","","","","","","","","","","","","","",""
"","response","","html-keyboard-response","349","633802","0.0-1.0-491.0-0.0","0","0","87035","","439","","","75","54","","","2","54","training","adjacent","EF","5","6","N.jpg","O.jpg","1","1","1","",""
"","feedback","","html-keyboard-response","350","634806","0.0-1.0-492.0-0.0","0","0","87035","","null","","","null","54","","","","","","","","","","","","","","","",""
"","ITI","","html-keyboard-response","351","635811","0.0-1.0-495.0","0","0","87035","","null","","","null","54","","","","","","","","","","","","","","","NaN",""
"","S1","","html-keyboard-response","352","636072","0.0-1.0-497.0","0","0","87035","","null","","","null","55","","","","","","","","","","","","","","","",""
"","ISI","","html-keyboard-response","353","637082","0.0-1.0-498.0","0","0","87035","","null","","","null","55","NaN","","","","","","","","","","","","","","",""
"","S2","","html-keyboard-response","354","637344","0.0-1.0-499.0","0","0","87035","","null","","","null","55","","NaN","","","","","","","","","","","","","",""
"","response","","html-keyboard-response","355","638086","0.0-1.0-500.0-0.0","0","0","87035","","741","","","68","55","","","2","55","training","adjacent","DC","4","3","M.jpg","R.jpg","0","0","1","",""
"","feedback","","html-keyboard-response","356","639096","0.0-1.0-501.0-0.0","0","0","87035","","null","","","null","55","","","","","","","","","","","","","","","",""
"","ITI","","html-keyboard-response","357","640107","0.0-1.0-504.0","0","0","87035","","null","","","null","55","","","","","","","","","","","","","","","NaN",""
"","S1","","html-keyboard-response","358","640368","0.0-1.0-506.0","0","0","87035","","null","","","null","56","","","","","","","","","","","","","","","",""
"","ISI","","html-keyboard-response","359","641378","0.0-1.0-507.0","0","0","87035","","null","","","null","56","NaN","","","","","","","","","","","","","","",""
"","S2","","html-keyboard-response","360","641639","0.0-1.0-508.0","0","0","87035","","null","","","null","56","","NaN","","","","","","","","","","","","","",""
"","response","","html-keyboard-response","361","642535","0.0-1.0-509.0-0.0","0","0","87035","","894","","","75","56","","","2","56","training","adjacent","CD","3","4","R.jpg","M.jpg","1","1","1","",""
"","feedback","","html-keyboard-response","362","643543","0.0-1.0-510.0-0.0","0","0","87035","","null","","","null","56","","","","","","","","","","","","","","","",""
"","ITI","","html-keyboard-response","363","644553","0.0-1.0-513.0","0","0","87035","","null","","","null","56","","","","","","","","","","","","","","","NaN",""
"","S1","","html-keyboard-response","364","644809","0.0-1.0-515.0","0","0","87035","","null","","","null","57","","","","","","","","","","","","","","","",""
"","ISI","","html-keyboard-response","365","645814","0.0-1.0-516.0","0","0","87035","","null","","","null","57","NaN","","","","","","","","","","","","","","",""
"","S2","","html-keyboard-response","366","646074","0.0-1.0-517.0","0","0","87035","","null","","","null","57","","NaN","","","","","","","","","","","","","",""
"","response","","html-keyboard-response","367","646689","0.0-1.0-518.0-0.0","0","0","87035","","614","","","75","57","","","2","57","training","adjacent","CB","3","2","R.jpg","P.jpg","1","0","0","",""
"","feedback","","html-keyboard-response","368","647693","0.0-1.0-519.0-0.0","0","0","87035","","null","","","null","57","","","","","","","","","","","","","","","",""
"","time_out","","html-keyboard-response","369","649707","0.0-1.0-521.0-0.0","0","0","87035","","null","","","null","57","","","","","","","","","","","","","","","",""
"","ITI","","html-keyboard-response","370","650713","0.0-1.0-522.0","0","0","87035","","null","","","null","57","","","","","","","","","","","","","","","NaN",""
"","S1","","html-keyboard-response","371","650968","0.0-1.0-524.0","0","0","87035","","null","","","null","58","","","","","","","","","","","","","","","",""
"","ISI","","html-keyboard-response","372","651978","0.0-1.0-525.0","0","0","87035","","null","","","null","58","NaN","","","","","","","","","","","","","","",""
"","S2","","html-keyboard-response","373","652240","0.0-1.0-526.0","0","0","87035","","null","","","null","58","","NaN","","","","","","","","","","","","","",""
"","response","","html-keyboard-response","374","652621","0.0-1.0-527.0-0.0","0","0","87035","","380","","","75","58","","","2","58","training","adjacent","GF","7","6","L.jpg","O.jpg","1","0","0","",""
"","feedback","","html-keyboard-response","375","653632","0.0-1.0-528.0-0.0","0","0","87035","","null","","","null","58","","","","","","","","","","","","","","","",""
"","time_out","","html-keyboard-response","376","655641","0.0-1.0-530.0-0.0","0","0","87035","","null","","","null","58","","","","","","","","","","","","","","","",""
"","ITI","","html-keyboard-response","377","656651","0.0-1.0-531.0","0","0","87035","","642","","","68","58","","","","","","","","","","","","","","","d",""
"","S1","","html-keyboard-response","378","656911","0.0-1.0-533.0","0","0","87035","","null","","","null","59","","","","","","","","","","","","","","","",""
"","ISI","","html-keyboard-response","379","657919","0.0-1.0-534.0","0","0","87035","","null","","","null","59","NaN","","","","","","","","","","","","","","",""
"","S2","","html-keyboard-response","380","658178","0.0-1.0-535.0","0","0","87035","","null","","","null","59","","NaN","","","","","","","","","","","","","",""
"","response","","html-keyboard-response","381","658558","0.0-1.0-536.0-0.0","0","0","87035","","378","","","68","59","","","2","59","training","adjacent","ED","5","4","N.jpg","M.jpg","0","0","1","",""
"","feedback","","html-keyboard-response","382","659571","0.0-1.0-537.0-0.0","0","0","87035","","null","","","null","59","","","","","","","","","","","","","","","",""
"","ITI","","html-keyboard-response","383","660576","0.0-1.0-540.0","0","0","87035","","null","","","null","59","","","","","","","","","","","","","","","NaN",""
"","S1","","html-keyboard-response","384","660831","0.0-1.0-542.0","0","0","87035","","null","","","null","60","","","","","","","","","","","","","","","",""
"","ISI","","html-keyboard-response","385","661840","0.0-1.0-543.0","0","0","87035","","null","","","null","60","NaN","","","","","","","","","","","","","","",""
"","S2","","html-keyboard-response","386","662096","0.0-1.0-544.0","0","0","87035","","null","","","null","60","","NaN","","","","","","","","","","","","","",""
"","response","","html-keyboard-response","387","662392","0.0-1.0-545.0-0.0","0","0","87035","","294","","","68","60","","","2","60","training","adjacent","DC","4","3","M.jpg","R.jpg","0","0","1","",""
"","feedback","","html-keyboard-response","388","663402","0.0-1.0-546.0-0.0","0","0","87035","","null","","","null","60","","","","","","","","","","","","","","","",""
"","ITI","","html-keyboard-response","389","664407","0.0-1.0-549.0","0","0","87035","","null","","","null","60","","","","","","","","","","","","","","","NaN",""
"","S1","","html-keyboard-response","390","664668","0.0-1.0-551.0","0","0","87035","","null","","","null","61","","","","","","","","","","","","","","","",""
"","ISI","","html-keyboard-response","391","665671","0.0-1.0-552.0","0","0","87035","","null","","","null","61","NaN","","","","","","","","","","","","","","",""
"","S2","","html-keyboard-response","392","665928","0.0-1.0-553.0","0","0","87035","","null","","","null","61","","NaN","","","","","","","","","","","","","",""
"","response","","html-keyboard-response","393","666748","0.0-1.0-554.0-0.0","0","0","87035","","819","","","75","61","","","2","61","training","adjacent","ED","5","4","N.jpg","M.jpg","1","0","0","",""
"","feedback","","html-keyboard-response","394","667753","0.0-1.0-555.0-0.0","0","0","87035","","null","","","null","61","","","","","","","","","","","","","","","",""
"","time_out","","html-keyboard-response","395","669759","0.0-1.0-557.0-0.0","0","0","87035","","null","","","null","61","","","","","","","","","","","","","","","",""
"","ITI","","html-keyboard-response","396","670769","0.0-1.0-558.0","0","0","87035","","null","","","null","61","","","","","","","","","","","","","","","NaN",""
"","S1","","html-keyboard-response","397","671025","0.0-1.0-560.0","0","0","87035","","null","","","null","62","","","","","","","","","","","","","","","",""
"","ISI","","html-keyboard-response","398","672035","0.0-1.0-561.0","0","0","87035","","null","","","null","62","NaN","","","","","","","","","","","","","","",""
"","S2","","html-keyboard-response","399","672296","0.0-1.0-562.0","0","0","87035","","null","","","null","62","","NaN","","","","","","","","","","","","","",""
"","response","","html-keyboard-response","400","672649","0.0-1.0-563.0-0.0","0","0","87035","","350","","","68","62","","","2","62","training","adjacent","BC","2","3","P.jpg","R.jpg","0","1","0","",""
"","feedback","","html-keyboard-response","401","673655","0.0-1.0-564.0-0.0","0","0","87035","","null","","","null","62","","","","","","","","","","","","","","","",""
"","time_out","","html-keyboard-response","402","675663","0.0-1.0-566.0-0.0","0","0","87035","","null","","","null","62","","","","","","","","","","","","","","","",""
"","ITI","","html-keyboard-response","403","676673","0.0-1.0-567.0","0","0","87035","","null","","","null","62","","","","","","","","","","","","","","","NaN",""
"","S1","","html-keyboard-response","404","676928","0.0-1.0-569.0","0","0","87035","","null","","","null","63","","","","","","","","","","","","","","","",""
"","ISI","","html-keyboard-response","405","677937","0.0-1.0-570.0","0","0","87035","","null","","","null","63","NaN","","","","","","","","","","","","","","",""
"","S2","","html-keyboard-response","406","678194","0.0-1.0-571.0","0","0","87035","","null","","","null","63","","NaN","","","","","","","","","","","","","",""
"","response","","html-keyboard-response","407","678641","0.0-1.0-572.0-0.0","0","0","87035","","445","","","68","63","","","2","63","training","adjacent","FE","6","5","O.jpg","N.jpg","0","0","1","",""
"","feedback","","html-keyboard-response","408","679651","0.0-1.0-573.0-0.0","0","0","87035","","null","","","null","63","","","","","","","","","","","","","","","",""
"","ITI","","html-keyboard-response","409","680655","0.0-1.0-576.0","0","0","87035","","null","","","null","63","","","","","","","","","","","","","","","NaN",""
"","S1","","html-keyboard-response","410","680916","0.0-1.0-578.0","0","0","87035","","null","","","null","64","","","","","","","","","","","","","","","",""
"","ISI","","html-keyboard-response","411","681920","0.0-1.0-579.0","0","0","87035","","null","","","null","64","NaN","","","","","","","","","","","","","","",""
"","S2","","html-keyboard-response","412","682176","0.0-1.0-580.0","0","0","87035","","null","","","null","64","","NaN","","","","","","","","","","","","","",""
"","response","","html-keyboard-response","413","683075","0.0-1.0-581.0-0.0","0","0","87035","","896","","","68","64","","","2","64","training","adjacent","FG","6","7","O.jpg","L.jpg","0","1","0","",""
"","feedback","","html-keyboard-response","414","684081","0.0-1.0-582.0-0.0","0","0","87035","","null","","","null","64","","","","","","","","","","","","","","","",""
"","time_out","","html-keyboard-response","415","686089","0.0-1.0-584.0-0.0","0","0","87035","","null","","","null","64","","","","","","","","","","","","","","","",""
"","ITI","","html-keyboard-response","416","687099","0.0-1.0-585.0","0","0","87035","","null","","","null","64","","","","","","","","","","","","","","","NaN",""
"","S1","","html-keyboard-response","417","687360","0.0-1.0-587.0","0","0","87035","","null","","","null","65","","","","","","","","","","","","","","","",""
"","ISI","","html-keyboard-response","418","688370","0.0-1.0-588.0","0","0","87035","","null","","","null","65","NaN","","","","","","","","","","","","","","",""
"","S2","","html-keyboard-response","419","688626","0.0-1.0-589.0","0","0","87035","","null","","","null","65","","NaN","","","","","","","","","","","","","",""
"","response","","html-keyboard-response","420","689803","0.0-1.0-590.0-0.0","0","0","87035","","1176","","","68","65","","","2","65","training","adjacent","AB","1","2","Q.jpg","P.jpg","0","1","0","",""
"","feedback","","html-keyboard-response","421","690808","0.0-1.0-591.0-0.0","0","0","87035","","null","","","null","65","","","","","","","","","","","","","","","",""
"","time_out","","html-keyboard-response","422","692811","0.0-1.0-593.0-0.0","0","0","87035","","null","","","null","65","","","","","","","","","","","","","","","",""
"","ITI","","html-keyboard-response","423","693815","0.0-1.0-594.0","0","0","87035","","null","","","null","65","","","","","","","","","","","","","","","NaN",""
"","S1","","html-keyboard-response","424","694077","0.0-1.0-596.0","0","0","87035","","null","","","null","66","","","","","","","","","","","","","","","",""
"","ISI","","html-keyboard-response","425","695081","0.0-1.0-597.0","0","0","87035","","null","","","null","66","NaN","","","","","","","","","","","","","","",""
"","S2","","html-keyboard-response","426","695336","0.0-1.0-598.0","0","0","87035","","null","","","null","66","","NaN","","","","","","","","","","","","","",""
"","response","","html-keyboard-response","427","695772","0.0-1.0-599.0-0.0","0","0","87035","","434","","","75","66","","","2","66","training","adjacent","CD","3","4","R.jpg","M.jpg","1","1","1","",""
"","feedback","","html-keyboard-response","428","696776","0.0-1.0-600.0-0.0","0","0","87035","","null","","","null","66","","","","","","","","","","","","","","","",""
"","ITI","","html-keyboard-response","429","697786","0.0-1.0-603.0","0","0","87035","","null","","","null","66","","","","","","","","","","","","","","","NaN",""
"","S1","","html-keyboard-response","430","698041","0.0-1.0-605.0","0","0","87035","","null","","","null","67","","","","","","","","","","","","","","","",""
"","ISI","","html-keyboard-response","431","699052","0.0-1.0-606.0","0","0","87035","","null","","","null","67","NaN","","","","","","","","","","","","","","",""
"","S2","","html-keyboard-response","432","699313","0.0-1.0-607.0","0","0","87035","","null","","","null","67","","NaN","","","","","","","","","","","","","",""
"","response","","html-keyboard-response","433","699824","0.0-1.0-608.0-0.0","0","0","87035","","509","","","68","67","","","2","67","training","adjacent","CB","3","2","R.jpg","P.jpg","0","0","1","",""
"","feedback","","html-keyboard-response","434","700834","0.0-1.0-609.0-0.0","0","0","87035","","null","","","null","67","","","","","","","","","","","","","","","",""
"","ITI","","html-keyboard-response","435","701844","0.0-1.0-612.0","0","0","87035","","null","","","null","67","","","","","","","","","","","","","","","NaN",""
"","S1","","html-keyboard-response","436","702105","0.0-1.0-614.0","0","0","87035","","null","","","null","68","","","","","","","","","","","","","","","",""
"","ISI","","html-keyboard-response","437","703115","0.0-1.0-615.0","0","0","87035","","null","","","null","68","NaN","","","","","","","","","","","","","","",""
"","S2","","html-keyboard-response","438","703376","0.0-1.0-616.0","0","0","87035","","null","","","null","68","","NaN","","","","","","","","","","","","","",""
"","response","","html-keyboard-response","439","703822","0.0-1.0-617.0-0.0","0","0","87035","","443","","","75","68","","","2","68","training","adjacent","CB","3","2","R.jpg","P.jpg","1","0","0","",""
"","feedback","","html-keyboard-response","440","704834","0.0-1.0-618.0-0.0","0","0","87035","","null","","","null","68","","","","","","","","","","","","","","","",""
"","time_out","","html-keyboard-response","441","706842","0.0-1.0-620.0-0.0","0","0","87035","","null","","","null","68","","","","","","","","","","","","","","","",""
"","ITI","","html-keyboard-response","442","707852","0.0-1.0-621.0","0","0","87035","","null","","","null","68","","","","","","","","","","","","","","","NaN",""
"","S1","","html-keyboard-response","443","708114","0.0-1.0-623.0","0","0","87035","","null","","","null","69","","","","","","","","","","","","","","","",""
"","ISI","","html-keyboard-response","444","709122","0.0-1.0-624.0","0","0","87035","","null","","","null","69","NaN","","","","","","","","","","","","","","",""
"","S2","","html-keyboard-response","445","709378","0.0-1.0-625.0","0","0","87035","","null","","","null","69","","NaN","","","","","","","","","","","","","",""
"","response","","html-keyboard-response","446","709714","0.0-1.0-626.0-0.0","0","0","87035","","334","","","75","69","","","2","69","training","adjacent","BC","2","3","P.jpg","R.jpg","1","1","1","",""
"","feedback","","html-keyboard-response","447","710720","0.0-1.0-627.0-0.0","0","0","87035","","null","","","null","69","","","","","","","","","","","","","","","",""
"","ITI","","html-keyboard-response","448","711729","0.0-1.0-630.0","0","0","87035","","null","","","null","69","","","","","","","","","","","","","","","NaN",""
"","S1","","html-keyboard-response","449","711986","0.0-1.0-632.0","0","0","87035","","null","","","null","70","","","","","","","","","","","","","","","",""
"","ISI","","html-keyboard-response","450","712996","0.0-1.0-633.0","0","0","87035","","null","","","null","70","NaN","","","","","","","","","","","","","","",""
"","S2","","html-keyboard-response","451","713257","0.0-1.0-634.0","0","0","87035","","null","","","null","70","","NaN","","","","","","","","","","","","","",""
"","response","","html-keyboard-response","452","713713","0.0-1.0-635.0-0.0","0","0","87035","","454","","","68","70","","","2","70","training","adjacent","DE","4","5","M.jpg","N.jpg","0","1","0","",""
"","feedback","","html-keyboard-response","453","714720","0.0-1.0-636.0-0.0","0","0","87035","","null","","","null","70","","","","","","","","","","","","","","","",""
"","time_out","","html-keyboard-response","454","716728","0.0-1.0-638.0-0.0","0","0","87035","","null","","","null","70","","","","","","","","","","","","","","","",""
"","ITI","","html-keyboard-response","455","717738","0.0-1.0-639.0","0","0","87035","","null","","","null","70","","","","","","","","","","","","","","","NaN",""
"","S1","","html-keyboard-response","456","717994","0.0-1.0-641.0","0","0","87035","","null","","","null","71","","","","","","","","","","","","","","","",""
"","ISI","","html-keyboard-response","457","719004","0.0-1.0-642.0","0","0","87035","","null","","","null","71","NaN","","","","","","","","","","","","","","",""
"","S2","","html-keyboard-response","458","719265","0.0-1.0-643.0","0","0","87035","","null","","","null","71","","NaN","","","","","","","","","","","","","",""
"","response","","html-keyboard-response","459","719394","0.0-1.0-644.0-0.0","0","0","87035","","127","","","68","71","","","2","71","training","adjacent","DC","4","3","M.jpg","R.jpg","0","0","1","",""
"","feedback","","html-keyboard-response","460","720403","0.0-1.0-645.0-0.0","0","0","87035","","null","","","null","71","","","","","","","","","","","","","","","",""
"","ITI","","html-keyboard-response","461","721413","0.0-1.0-648.0","0","0","87035","","null","","","null","71","","","","","","","","","","","","","","","NaN",""
"","S1","","html-keyboard-response","462","721674","0.0-1.0-650.0","0","0","87035","","null","","","null","72","","","","","","","","","","","","","","","",""
"","ISI","","html-keyboard-response","463","722684","0.0-1.0-651.0","0","0","87035","","null","","","null","72","NaN","","","","","","","","","","","","","","",""
"","S2","","html-keyboard-response","464","722945","0.0-1.0-652.0","0","0","87035","","null","","","null","72","","NaN","","","","","","","","","","","","","",""
"","response","","html-keyboard-response","465","723299","0.0-1.0-653.0-0.0","0","0","87035","","352","","","75","72","","","2","72","training","adjacent","DE","4","5","M.jpg","N.jpg","1","1","1","",""
"","feedback","","html-keyboard-response","466","724304","0.0-1.0-654.0-0.0","0","0","87035","","null","","","null","72","","","","","","","","","","","","","","","",""
"","ITI","","html-keyboard-response","467","725314","0.0-1.0-657.0","0","0","87035","","null","","","null","72","","","","","","","","","","","","","","","NaN",""
"","S1","","html-keyboard-response","468","725569","0.0-1.0-659.0","0","0","87035","","null","","","null","73","","","","","","","","","","","","","","","",""
"","ISI","","html-keyboard-response","469","726579","0.0-1.0-660.0","0","0","87035","","null","","","null","73","NaN","","","","","","","","","","","","","","",""
"","S2","","html-keyboard-response","470","726841","0.0-1.0-661.0","0","0","87035","","null","","","null","73","","NaN","","","","","","","","","","","","","",""
"","response","","html-keyboard-response","471","727891","0.0-1.0-662.0-0.0","0","0","87035","","1048","","","75","73","","","2","73","training","adjacent","AB","1","2","Q.jpg","P.jpg","1","1","1","",""
"","feedback","","html-keyboard-response","472","728901","0.0-1.0-663.0-0.0","0","0","87035","","null","","","null","73","","","","","","","","","","","","","","","",""
"","ITI","","html-keyboard-response","473","729906","0.0-1.0-666.0","0","0","87035","","null","","","null","73","","","","","","","","","","","","","","","NaN",""
"","S1","","html-keyboard-response","474","730161","0.0-1.0-668.0","0","0","87035","","null","","","null","74","","","","","","","","","","","","","","","",""
"","ISI","","html-keyboard-response","475","731171","0.0-1.0-669.0","0","0","87035","","null","","","null","74","NaN","","","","","","","","","","","","","","",""
"","S2","","html-keyboard-response","476","731426","0.0-1.0-670.0","0","0","87035","","null","","","null","74","","NaN","","","","","","","","","","","","","",""
"","response","","html-keyboard-response","477","731910","0.0-1.0-671.0-0.0","0","0","87035","","482","","","68","74","","","2","74","training","adjacent","CD","3","4","R.jpg","M.jpg","0","1","0","",""
"","feedback","","html-keyboard-response","478","732913","0.0-1.0-672.0-0.0","0","0","87035","","null","","","null","74","","","","","","","","","","","","","","","",""
"","time_out","","html-keyboard-response","479","734916","0.0-1.0-674.0-0.0","0","0","87035","","null","","","null","74","","","","","","","","","","","","","","","",""
"","ITI","","html-keyboard-response","480","735920","0.0-1.0-675.0","0","0","87035","","null","","","null","74","","","","","","","","","","","","","","","NaN",""
"","S1","","html-keyboard-response","481","736180","0.0-1.0-677.0","0","0","87035","","null","","","null","75","","","","","","","","","","","","","","","",""
"","ISI","","html-keyboard-response","482","737185","0.0-1.0-678.0","0","0","87035","","null","","","null","75","NaN","","","","","","","","","","","","","","",""
"","S2","","html-keyboard-response","483","737441","0.0-1.0-679.0","0","0","87035","","null","","","null","75","","NaN","","","","","","","","","","","","","",""
"","response","","html-keyboard-response","484","738541","0.0-1.0-680.0-0.0","0","0","87035","","1098","","","75","75","","","2","75","training","adjacent","FG","6","7","O.jpg","L.jpg","1","1","1","",""
"","feedback","","html-keyboard-response","485","739548","0.0-1.0-681.0-0.0","0","0","87035","","null","","","null","75","","","","","","","","","","","","","","","",""
"","ITI","","html-keyboard-response","486","740552","0.0-1.0-684.0","0","0","87035","","null","","","null","75","","","","","","","","","","","","","","","NaN",""
"","S1","","html-keyboard-response","487","740814","0.0-1.0-686.0","0","0","87035","","null","","","null","76","","","","","","","","","","","","","","","",""
"","ISI","","html-keyboard-response","488","741818","0.0-1.0-687.0","0","0","87035","","null","","","null","76","NaN","","","","","","","","","","","","","","",""
"","S2","","html-keyboard-response","489","742074","0.0-1.0-688.0","0","0","87035","","null","","","null","76","","NaN","","","","","","","","","","","","","",""
"","response","","html-keyboard-response","490","742776","0.0-1.0-689.0-0.0","0","0","87035","","700","","","68","76","","","2","76","training","adjacent","DE","4","5","M.jpg","N.jpg","0","1","0","",""
"","feedback","","html-keyboard-response","491","743786","0.0-1.0-690.0-0.0","0","0","87035","","null","","","null","76","","","","","","","","","","","","","","","",""
"","time_out","","html-keyboard-response","492","745793","0.0-1.0-692.0-0.0","0","0","87035","","null","","","null","76","","","","","","","","","","","","","","","",""
"","ITI","","html-keyboard-response","493","746804","0.0-1.0-693.0","0","0","87035","","null","","","null","76","","","","","","","","","","","","","","","NaN",""
"","S1","","html-keyboard-response","494","747069","0.0-1.0-695.0","0","0","87035","","null","","","null","77","","","","","","","","","","","","","","","",""
"","ISI","","html-keyboard-response","495","748076","0.0-1.0-696.0","0","0","87035","","null","","","null","77","NaN","","","","","","","","","","","","","","",""
"","S2","","html-keyboard-response","496","748331","0.0-1.0-697.0","0","0","87035","","null","","","null","77","","NaN","","","","","","","","","","","","","",""
"","response","","html-keyboard-response","497","748389","0.0-1.0-698.0-0.0","0","0","87035","","56","","","68","77","","","2","77","training","adjacent","GF","7","6","L.jpg","O.jpg","0","0","1","",""
"","feedback","","html-keyboard-response","498","749394","0.0-1.0-699.0-0.0","0","0","87035","","null","","","null","77","","","","","","","","","","","","","","","",""
"","ITI","","html-keyboard-response","499","750403","0.0-1.0-702.0","0","0","87035","","null","","","null","77","","","","","","","","","","","","","","","NaN",""
"","S1","","html-keyboard-response","500","750659","0.0-1.0-704.0","0","0","87035","","null","","","null","78","","","","","","","","","","","","","","","",""
"","ISI","","html-keyboard-response","501","751669","0.0-1.0-705.0","0","0","87035","","null","","","null","78","NaN","","","","","","","","","","","","","","",""
"","S2","","html-keyboard-response","502","751931","0.0-1.0-706.0","0","0","87035","","null","","","null","78","","NaN","","","","","","","","","","","","","",""
"","response","","html-keyboard-response","503","752394","0.0-1.0-707.0-0.0","0","0","87035","","461","","","75","78","","","2","78","training","adjacent","FE","6","5","O.jpg","N.jpg","1","0","0","",""
"","feedback","","html-keyboard-response","504","753405","0.0-1.0-708.0-0.0","0","0","87035","","null","","","null","78","","","","","","","","","","","","","","","",""
"","time_out","","html-keyboard-response","505","755413","0.0-1.0-710.0-0.0","0","0","87035","","null","","","null","78","","","","","","","","","","","","","","","",""
"","ITI","","html-keyboard-response","506","756418","0.0-1.0-711.0","0","0","87035","","null","","","null","78","","","","","","","","","","","","","","","NaN",""
"","S1","","html-keyboard-response","507","756673","0.0-1.0-713.0","0","0","87035","","null","","","null","79","","","","","","","","","","","","","","","",""
"","ISI","","html-keyboard-response","508","757684","0.0-1.0-714.0","0","0","87035","","null","","","null","79","NaN","","","","","","","","","","","","","","",""
"","S2","","html-keyboard-response","509","757941","0.0-1.0-715.0","0","0","87035","","null","","","null","79","","NaN","","","","","","","","","","","","","",""
"","response","","html-keyboard-response","510","758564","0.0-1.0-716.0-0.0","0","0","87035","","621","","","68","79","","","2","79","training","adjacent","EF","5","6","N.jpg","O.jpg","0","1","0","",""
"","feedback","","html-keyboard-response","511","759570","0.0-1.0-717.0-0.0","0","0","87035","","null","","","null","79","","","","","","","","","","","","","","","",""
"","time_out","","html-keyboard-response","512","761578","0.0-1.0-719.0-0.0","0","0","87035","","null","","","null","79","","","","","","","","","","","","","","","",""
"","ITI","","html-keyboard-response","513","762589","0.0-1.0-720.0","0","0","87035","","null","","","null","79","","","","","","","","","","","","","","","NaN",""
"","S1","","html-keyboard-response","514","762850","0.0-1.0-722.0","0","0","87035","","null","","","null","80","","","","","","","","","","","","","","","",""
"","ISI","","html-keyboard-response","515","763860","0.0-1.0-723.0","0","0","87035","","null","","","null","80","NaN","","","","","","","","","","","","","","",""
"","S2","","html-keyboard-response","516","764115","0.0-1.0-724.0","0","0","87035","","null","","","null","80","","NaN","","","","","","","","","","","","","",""
"","response","","html-keyboard-response","517","765261","0.0-1.0-725.0-0.0","0","0","87035","","1144","","","75","80","","","2","80","training","adjacent","BC","2","3","P.jpg","R.jpg","1","1","1","",""
"","feedback","","html-keyboard-response","518","766269","0.0-1.0-726.0-0.0","0","0","87035","","null","","","null","80","","","","","","","","","","","","","","","",""
"","ITI","","html-keyboard-response","519","767273","0.0-1.0-729.0","0","0","87035","","null","","","null","80","","","","","","","","","","","","","","","NaN",""
"","S1","","html-keyboard-response","520","767529","0.0-1.0-731.0","0","0","87035","","null","","","null","81","","","","","","","","","","","","","","","",""
"","ISI","","html-keyboard-response","521","768538","0.0-1.0-732.0","0","0","87035","","null","","","null","81","NaN","","","","","","","","","","","","","","",""
"","S2","","html-keyboard-response","522","768794","0.0-1.0-733.0","0","0","87035","","null","","","null","81","","NaN","","","","","","","","","","","","","",""
"","response","","html-keyboard-response","523","769484","0.0-1.0-734.0-0.0","0","0","87035","","687","","","75","81","","","2","81","training","adjacent","AB","1","2","Q.jpg","P.jpg","1","1","1","",""
"","feedback","","html-keyboard-response","524","770489","0.0-1.0-735.0-0.0","0","0","87035","","null","","","null","81","","","","","","","","","","","","","","","",""
"","ITI","","html-keyboard-response","525","771499","0.0-1.0-738.0","0","0","87035","","null","","","null","81","","","","","","","","","","","","","","","NaN",""
"","S1","","html-keyboard-response","526","771755","0.0-1.0-740.0","0","0","87035","","null","","","null","82","","","","","","","","","","","","","","","",""
"","ISI","","html-keyboard-response","527","772764","0.0-1.0-741.0","0","0","87035","","null","","","null","82","NaN","","","","","","","","","","","","","","",""
"","S2","","html-keyboard-response","528","773017","0.0-1.0-742.0","0","0","87035","","null","","","null","82","","NaN","","","","","","","","","","","","","",""
"","response","","html-keyboard-response","529","773477","0.0-1.0-743.0-0.0","0","0","87035","","458","","","68","82","","","2","82","training","adjacent","BA","2","1","P.jpg","Q.jpg","0","0","1","",""
"","feedback","","html-keyboard-response","530","774483","0.0-1.0-744.0-0.0","0","0","87035","","null","","","null","82","","","","","","","","","","","","","","","",""
"","ITI","","html-keyboard-response","531","775493","0.0-1.0-747.0","0","0","87035","","null","","","null","82","","","","","","","","","","","","","","","NaN",""
"","S1","","html-keyboard-response","532","775755","0.0-1.0-749.0","0","0","87035","","null","","","null","83","","","","","","","","","","","","","","","",""
"","ISI","","html-keyboard-response","533","776764","0.0-1.0-750.0","0","0","87035","","null","","","null","83","NaN","","","","","","","","","","","","","","",""
"","S2","","html-keyboard-response","534","777026","0.0-1.0-751.0","0","0","87035","","null","","","null","83","","NaN","","","","","","","","","","","","","",""
"","response","","html-keyboard-response","535","777647","0.0-1.0-752.0-0.0","0","0","87035","","620","","","68","83","","","2","83","training","adjacent","FE","6","5","O.jpg","N.jpg","0","0","1","",""
"","feedback","","html-keyboard-response","536","778657","0.0-1.0-753.0-0.0","0","0","87035","","null","","","null","83","","","","","","","","","","","","","","","",""
"","ITI","","html-keyboard-response","537","779667","0.0-1.0-756.0","0","0","87035","","null","","","null","83","","","","","","","","","","","","","","","NaN",""
"","S1","","html-keyboard-response","538","779923","0.0-1.0-758.0","0","0","87035","","null","","","null","84","","","","","","","","","","","","","","","",""
"","ISI","","html-keyboard-response","539","780933","0.0-1.0-759.0","0","0","87035","","null","","","null","84","NaN","","","","","","","","","","","","","","",""
"","S2","","html-keyboard-response","540","781194","0.0-1.0-760.0","0","0","87035","","null","","","null","84","","NaN","","","","","","","","","","","","","",""
"","response","","html-keyboard-response","541","781769","0.0-1.0-761.0-0.0","0","0","87035","","572","","","75","84","","","2","84","training","adjacent","FG","6","7","O.jpg","L.jpg","1","1","1","",""
"","feedback","","html-keyboard-response","542","782779","0.0-1.0-762.0-0.0","0","0","87035","","null","","","null","84","","","","","","","","","","","","","","","",""
"","ITI","","html-keyboard-response","543","783789","0.0-1.0-765.0","0","0","87035","","null","","","null","84","","","","","","","","","","","","","","","NaN",""
"","S1","","html-keyboard-response","544","784050","0.0-1.0-767.0","0","0","87035","","null","","","null","85","","","","","","","","","","","","","","","",""
"","ISI","","html-keyboard-response","545","785060","0.0-1.0-768.0","0","0","87035","","null","","","null","85","NaN","","","","","","","","","","","","","","",""
"","S2","","html-keyboard-response","546","785314","0.0-1.0-769.0","0","0","87035","","null","","","null","85","","NaN","","","","","","","","","","","","","",""
"","response","","html-keyboard-response","547","785887","0.0-1.0-770.0-0.0","0","0","87035","","571","","","68","85","","","2","85","training","adjacent","FE","6","5","O.jpg","N.jpg","0","0","1","",""
"","feedback","","html-keyboard-response","548","786900","0.0-1.0-771.0-0.0","0","0","87035","","null","","","null","85","","","","","","","","","","","","","","","",""
"","ITI","","html-keyboard-response","549","787910","0.0-1.0-774.0","0","0","87035","","null","","","null","85","","","","","","","","","","","","","","","NaN",""
"","S1","","html-keyboard-response","550","788172","0.0-1.0-776.0","0","0","87035","","null","","","null","86","","","","","","","","","","","","","","","",""
"","ISI","","html-keyboard-response","551","789181","0.0-1.0-777.0","0","0","87035","","null","","","null","86","NaN","","","","","","","","","","","","","","",""
"","S2","","html-keyboard-response","552","789443","0.0-1.0-778.0","0","0","87035","","null","","","null","86","","NaN","","","","","","","","","","","","","",""
"","response","","html-keyboard-response","553","790017","0.0-1.0-779.0-0.0","0","0","87035","","572","","","68","86","","","2","86","training","adjacent","CB","3","2","R.jpg","P.jpg","0","0","1","",""
"","feedback","","html-keyboard-response","554","791028","0.0-1.0-780.0-0.0","0","0","87035","","null","","","null","86","","","","","","","","","","","","","","","",""
"","ITI","","html-keyboard-response","555","792038","0.0-1.0-783.0","0","0","87035","","null","","","null","86","","","","","","","","","","","","","","","NaN",""
"","S1","","html-keyboard-response","556","792299","0.0-1.0-785.0","0","0","87035","","null","","","null","87","","","","","","","","","","","","","","","",""
"","ISI","","html-keyboard-response","557","793309","0.0-1.0-786.0","0","0","87035","","null","","","null","87","NaN","","","","","","","","","","","","","","",""
"","S2","","html-keyboard-response","558","793570","0.0-1.0-787.0","0","0","87035","","null","","","null","87","","NaN","","","","","","","","","","","","","",""
"","response","","html-keyboard-response","559","794012","0.0-1.0-788.0-0.0","0","0","87035","","439","","","75","87","","","2","87","training","adjacent","CD","3","4","R.jpg","M.jpg","1","1","1","",""
"","feedback","","html-keyboard-response","560","795017","0.0-1.0-789.0-0.0","0","0","87035","","null","","","null","87","","","","","","","","","","","","","","","",""
"","ITI","","html-keyboard-response","561","796025","0.0-1.0-792.0","0","0","87035","","null","","","null","87","","","","","","","","","","","","","","","NaN",""
"","S1","","html-keyboard-response","562","796281","0.0-1.0-794.0","0","0","87035","","null","","","null","88","","","","","","","","","","","","","","","",""
"","ISI","","html-keyboard-response","563","797291","0.0-1.0-795.0","0","0","87035","","null","","","null","88","NaN","","","","","","","","","","","","","","",""
"","S2","","html-keyboard-response","564","797547","0.0-1.0-796.0","0","0","87035","","null","","","null","88","","NaN","","","","","","","","","","","","","",""
"","response","","html-keyboard-response","565","798249","0.0-1.0-797.0-0.0","0","0","87035","","701","","","75","88","","","2","88","training","adjacent","FG","6","7","O.jpg","L.jpg","1","1","1","",""
"","feedback","","html-keyboard-response","566","799262","0.0-1.0-798.0-0.0","0","0","87035","","null","","","null","88","","","","","","","","","","","","","","","",""
"","ITI","","html-keyboard-response","567","800269","0.0-1.0-801.0","0","0","87035","","null","","","null","88","","","","","","","","","","","","","","","NaN",""
"","S1","","html-keyboard-response","568","800530","0.0-1.0-803.0","0","0","87035","","null","","","null","89","","","","","","","","","","","","","","","",""
"","ISI","","html-keyboard-response","569","801541","0.0-1.0-804.0","0","0","87035","","null","","","null","89","NaN","","","","","","","","","","","","","","",""
"","S2","","html-keyboard-response","570","801805","0.0-1.0-805.0","0","0","87035","","null","","","null","89","","NaN","","","","","","","","","","","","","",""
"","response","","html-keyboard-response","571","802200","0.0-1.0-806.0-0.0","0","0","87035","","393","","","68","89","","","2","89","training","adjacent","DC","4","3","M.jpg","R.jpg","0","0","1","",""
"","feedback","","html-keyboard-response","572","803212","0.0-1.0-807.0-0.0","0","0","87035","","null","","","null","89","","","","","","","","","","","","","","","",""
"","ITI","","html-keyboard-response","573","804219","0.0-1.0-810.0","0","0","87035","","null","","","null","89","","","","","","","","","","","","","","","NaN",""
"","S1","","html-keyboard-response","574","804478","0.0-1.0-812.0","0","0","87035","","null","","","null","90","","","","","","","","","","","","","","","",""
"","ISI","","html-keyboard-response","575","805482","0.0-1.0-813.0","0","0","87035","","null","","","null","90","NaN","","","","","","","","","","","","","","",""
"","S2","","html-keyboard-response","576","805738","0.0-1.0-814.0","0","0","87035","","null","","","null","90","","NaN","","","","","","","","","","","","","",""
"","response","","html-keyboard-response","577","806499","0.0-1.0-815.0-0.0","0","0","87035","","760","","","68","90","","","2","90","training","adjacent","GF","7","6","L.jpg","O.jpg","0","0","1","",""
"","feedback","","html-keyboard-response","578","807508","0.0-1.0-816.0-0.0","0","0","87035","","null","","","null","90","","","","","","","","","","","","","","","",""
"","ITI","","html-keyboard-response","579","808519","0.0-1.0-819.0","0","0","87035","","null","","","null","90","","","","","","","","","","","","","","","NaN",""
"","S1","","html-keyboard-response","580","808779","0.0-1.0-821.0","0","0","87035","","null","","","null","91","","","","","","","","","","","","","","","",""
"","ISI","","html-keyboard-response","581","809790","0.0-1.0-822.0","0","0","87035","","null","","","null","91","NaN","","","","","","","","","","","","","","",""
"","S2","","html-keyboard-response","582","810051","0.0-1.0-823.0","0","0","87035","","null","","","null","91","","NaN","","","","","","","","","","","","","",""
