"success","ttype","start_time","trial_type","trial_index","time_elapsed","internal_node_id","warning","missed_checkup","PID","view_history","rt","responses","repeat_instructions","key_press","index","keypress_isi","keypress_S2","block","trial_num","phase","group_type","pair_type","S1_stim","S2_stim","S1_img","S2_img","S1_chosen","S1_higher","accuracy","keypress_iti","total_bonus_tally"
"true","full_screen","d04142023hr1508","fullscreen","0","26066","0.0-0.0","0","0","80992","","","","","","","","","","","","","","","","","","","","","",""
"","instructions","","instructions","1","84306","0.0-1.0-0.0-0.0","0","0","80992","[{""page_index"":0,""viewing_time"":5246},{""page_index"":1,""viewing_time"":24506},{""page_index"":2,""viewing_time"":27231},{""page_index"":3,""viewing_time"":1255}]","58239","","","","","","","","","","","","","","","","","","","",""
"","comprehension_check","","survey-multi-choice","2","106938","0.0-1.0-0.0-1.0","0","0","80992","","22627","{""Q0"":""True"",""Q1"":""D"",""Q2"":""Only when the screen 'MAKE A CHOICE' is shown"",""Q3"":""Green mark"",""Q4"":""either D or K""}","1","","","","","","","","","","","","","","","","","",""
"","missed_instruction_checkup","","html-keyboard-response","3","108809","0.0-1.0-0.0-2.0-0.0","0","1","80992","","1866","","","32","","","","","","","","","","","","","","","","",""
"","instructions","","instructions","4","139418","0.0-1.0-0.1-0.1","0","0","80992","[{""page_index"":0,""viewing_time"":2591},{""page_index"":1,""viewing_time"":19584},{""page_index"":2,""viewing_time"":7672},{""page_index"":3,""viewing_time"":761}]","30608","","","","","","","","","","","","","","","","","","","",""
"","comprehension_check","","survey-multi-choice","5","148963","0.0-1.0-0.1-1.1","0","0","80992","","9542","{""Q0"":""False"",""Q1"":""D"",""Q2"":""Only when the screen 'MAKE A CHOICE' is shown"",""Q3"":""Green mark"",""Q4"":""either D or K""}","1","","","","","","","","","","","","","","","","","",""
"","missed_instruction_checkup","","html-keyboard-response","6","150438","0.0-1.0-0.1-2.1-0.1","0","1","80992","","1472","","","32","","","","","","","","","","","","","","","","",""
"","instructions","","instructions","7","166970","0.0-1.0-0.2-0.2","0","0","80992","[{""page_index"":0,""viewing_time"":4443},{""page_index"":1,""viewing_time"":10575},{""page_index"":2,""viewing_time"":848},{""page_index"":3,""viewing_time"":664}]","16530","","","","","","","","","","","","","","","","","","","",""
"","comprehension_check","","survey-multi-choice","8","182105","0.0-1.0-0.2-1.2","0","0","80992","","15132","{""Q0"":""True"",""Q1"":""D"",""Q2"":""Once the second image appears and while the screen 'MAKE A CHOICE' is shown"",""Q3"":""Green mark"",""Q4"":""either D or K""}","0","","","","","","","","","","","","","","","","","",""
"","start_exp","","html-keyboard-response","9","184027","0.0-1.0-1.0","0","0","80992","","1920","","","32","","","","","","","","","","","","","","","","",""
"","S1","","html-keyboard-response","10","184280","0.0-1.0-2.0","0","0","80992","","null","","","null","0","","","","","","","","","","","","","","","",""
"","ISI","","html-keyboard-response","11","185306","0.0-1.0-3.0","0","0","80992","","null","","","null","0","NaN","","","","","","","","","","","","","","",""
"","S2","","html-keyboard-response","12","185558","0.0-1.0-4.0","0","0","80992","","null","","","null","0","","NaN","","","","","","","","","","","","","",""
"","response","","html-keyboard-response","13","187311","0.0-1.0-5.0-0.0","0","0","80992","","null","","","null","0","","","1","0","training","adjacent","DE","4","5","R.jpg","Q.jpg","NaN","1","0","",""
"","too_slow_prompt","","html-keyboard-response","14","188314","0.0-1.0-7.0-0.0","1","0","80992","","null","","","null","","","","","","","","","","","","","","","","",""
"","time_out","","html-keyboard-response","15","190317","0.0-1.0-8.0-0.0","0","0","80992","","null","","","null","0","","","","","","","","","","","","","","","",""
"","ITI","","html-keyboard-response","16","191319","0.0-1.0-9.0","0","0","80992","","null","","","null","0","","","","","","","","","","","","","","","NaN",""
"","S1","","html-keyboard-response","17","191571","0.0-1.0-11.0","0","0","80992","","null","","","null","1","","","","","","","","","","","","","","","",""
"","ISI","","html-keyboard-response","18","192574","0.0-1.0-12.0","0","0","80992","","null","","","null","1","NaN","","","","","","","","","","","","","","",""
"","S2","","html-keyboard-response","19","192826","0.0-1.0-13.0","0","0","80992","","null","","","null","1","","NaN","","","","","","","","","","","","","",""
"","response","","html-keyboard-response","20","193301","0.0-1.0-14.0-0.0","0","0","80992","","474","","","68","1","","","1","1","training","adjacent","BA","2","1","N.jpg","P.jpg","1","0","0","",""
"","feedback","","html-keyboard-response","21","194304","0.0-1.0-15.0-0.0","0","0","80992","","null","","","null","1","","","","","","","","","","","","","","","",""
"","time_out","","html-keyboard-response","22","196307","0.0-1.0-17.0-0.0","0","0","80992","","null","","","null","1","","","","","","","","","","","","","","","",""
"","ITI","","html-keyboard-response","23","197309","0.0-1.0-18.0","0","0","80992","","null","","","null","1","","","","","","","","","","","","","","","NaN",""
"","S1","","html-keyboard-response","24","197562","0.0-1.0-20.0","0","0","80992","","null","","","null","2","","","","","","","","","","","","","","","",""
"","ISI","","html-keyboard-response","25","198565","0.0-1.0-21.0","0","0","80992","","null","","","null","2","NaN","","","","","","","","","","","","","","",""
"","S2","","html-keyboard-response","26","198818","0.0-1.0-22.0","0","0","80992","","null","","","null","2","","NaN","","","","","","","","","","","","","",""
"","response","","html-keyboard-response","27","198874","0.0-1.0-23.0-0.0","0","0","80992","","55","","","68","2","","","1","2","training","adjacent","GF","7","6","O.jpg","L.jpg","1","0","0","",""
"","feedback","","html-keyboard-response","28","199881","0.0-1.0-24.0-0.0","0","0","80992","","null","","","null","2","","","","","","","","","","","","","","","",""
"","time_out","","html-keyboard-response","29","201884","0.0-1.0-26.0-0.0","0","0","80992","","null","","","null","2","","","","","","","","","","","","","","","",""
"","ITI","","html-keyboard-response","30","202891","0.0-1.0-27.0","0","0","80992","","null","","","null","2","","","","","","","","","","","","","","","NaN",""
"","S1","","html-keyboard-response","31","203144","0.0-1.0-29.0","0","0","80992","","null","","","null","3","","","","","","","","","","","","","","","",""
"","ISI","","html-keyboard-response","32","204147","0.0-1.0-30.0","0","0","80992","","null","","","null","3","NaN","","","","","","","","","","","","","","",""
"","S2","","html-keyboard-response","33","204400","0.0-1.0-31.0","0","0","80992","","null","","","null","3","","NaN","","","","","","","","","","","","","",""
"","response","","html-keyboard-response","34","204610","0.0-1.0-32.0-0.0","0","0","80992","","209","","","75","3","","","1","3","training","adjacent","FG","6","7","L.jpg","O.jpg","0","1","0","",""
"","feedback","","html-keyboard-response","35","205614","0.0-1.0-33.0-0.0","0","0","80992","","null","","","null","3","","","","","","","","","","","","","","","",""
"","time_out","","html-keyboard-response","36","207616","0.0-1.0-35.0-0.0","0","0","80992","","null","","","null","3","","","","","","","","","","","","","","","",""
"","ITI","","html-keyboard-response","37","208618","0.0-1.0-36.0","0","0","80992","","null","","","null","3","","","","","","","","","","","","","","","NaN",""
"","S1","","html-keyboard-response","38","208870","0.0-1.0-38.0","0","0","80992","","null","","","null","4","","","","","","","","","","","","","","","",""
"","ISI","","html-keyboard-response","39","209872","0.0-1.0-39.0","0","0","80992","","null","","","null","4","NaN","","","","","","","","","","","","","","",""
"","S2","","html-keyboard-response","40","210124","0.0-1.0-40.0","0","0","80992","","null","","","null","4","","NaN","","","","","","","","","","","","","",""
"","response","","html-keyboard-response","41","210277","0.0-1.0-41.0-0.0","0","0","80992","","152","","","68","4","","","1","4","training","adjacent","FE","6","5","L.jpg","Q.jpg","1","0","0","",""
"","feedback","","html-keyboard-response","42","211279","0.0-1.0-42.0-0.0","0","0","80992","","null","","","null","4","","","","","","","","","","","","","","","",""
"","time_out","","html-keyboard-response","43","213281","0.0-1.0-44.0-0.0","0","0","80992","","null","","","null","4","","","","","","","","","","","","","","","",""
"","ITI","","html-keyboard-response","44","214283","0.0-1.0-45.0","0","0","80992","","null","","","null","4","","","","","","","","","","","","","","","NaN",""
"","S1","","html-keyboard-response","45","214536","0.0-1.0-47.0","0","0","80992","","null","","","null","5","","","","","","","","","","","","","","","",""
"","ISI","","html-keyboard-response","46","215538","0.0-1.0-48.0","0","0","80992","","null","","","null","5","NaN","","","","","","","","","","","","","","",""
"","S2","","html-keyboard-response","47","215792","0.0-1.0-49.0","0","0","80992","","null","","","null","5","","NaN","","","","","","","","","","","","","",""
"","response","","html-keyboard-response","48","216315","0.0-1.0-50.0-0.0","0","0","80992","","522","","","75","5","","","1","5","training","adjacent","BC","2","3","N.jpg","M.jpg","0","1","0","",""
"","feedback","","html-keyboard-response","49","217318","0.0-1.0-51.0-0.0","0","0","80992","","null","","","null","5","","","","","","","","","","","","","","","",""
"","time_out","","html-keyboard-response","50","219321","0.0-1.0-53.0-0.0","0","0","80992","","null","","","null","5","","","","","","","","","","","","","","","",""
"","ITI","","html-keyboard-response","51","220324","0.0-1.0-54.0","0","0","80992","","null","","","null","5","","","","","","","","","","","","","","","NaN",""
"","S1","","html-keyboard-response","52","220576","0.0-1.0-56.0","0","0","80992","","null","","","null","6","","","","","","","","","","","","","","","",""
"","ISI","","html-keyboard-response","53","221579","0.0-1.0-57.0","0","0","80992","","null","","","null","6","NaN","","","","","","","","","","","","","","",""
"","S2","","html-keyboard-response","54","221661","0.0-1.0-58.0","0","0","80992","","81","","","75","6","","k","1","6","training","adjacent","EF","5","6","Q.jpg","L.jpg","0","1","0","",""
"","feedback","","html-keyboard-response","55","222664","0.0-1.0-60.0-0.0","0","0","80992","","null","","","null","6","","","","","","","","","","","","","","","",""
"","time_out","","html-keyboard-response","56","224667","0.0-1.0-62.0-0.0","0","0","80992","","null","","","null","6","","","","","","","","","","","","","","","",""
"","ITI","","html-keyboard-response","57","225670","0.0-1.0-63.0","0","0","80992","","null","","","null","6","","","","","","","","","","","","","","","NaN",""
"","S1","","html-keyboard-response","58","225922","0.0-1.0-65.0","0","0","80992","","null","","","null","7","","","","","","","","","","","","","","","",""
"","ISI","","html-keyboard-response","59","226925","0.0-1.0-66.0","0","0","80992","","null","","","null","7","NaN","","","","","","","","","","","","","","",""
"","S2","","html-keyboard-response","60","227178","0.0-1.0-67.0","0","0","80992","","null","","","null","7","","NaN","","","","","","","","","","","","","",""
"","response","","html-keyboard-response","61","227205","0.0-1.0-68.0-0.0","0","0","80992","","26","","","68","7","","","1","7","training","adjacent","EF","5","6","Q.jpg","L.jpg","1","1","1","",""
"","feedback","","html-keyboard-response","62","228208","0.0-1.0-69.0-0.0","0","0","80992","","null","","","null","7","","","","","","","","","","","","","","","",""
"","ITI","","html-keyboard-response","63","229210","0.0-1.0-72.0","0","0","80992","","null","","","null","7","","","","","","","","","","","","","","","NaN",""
"","S1","","html-keyboard-response","64","229462","0.0-1.0-74.0","0","0","80992","","null","","","null","8","","","","","","","","","","","","","","","",""
"","ISI","","html-keyboard-response","65","230465","0.0-1.0-75.0","0","0","80992","","null","","","null","8","NaN","","","","","","","","","","","","","","",""
"","S2","","html-keyboard-response","66","230718","0.0-1.0-76.0","0","0","80992","","null","","","null","8","","NaN","","","","","","","","","","","","","",""
"","response","","html-keyboard-response","67","230913","0.0-1.0-77.0-0.0","0","0","80992","","194","","","75","8","","","1","8","training","adjacent","FE","6","5","L.jpg","Q.jpg","0","0","1","",""
"","feedback","","html-keyboard-response","68","231926","0.0-1.0-78.0-0.0","0","0","80992","","null","","","null","8","","","","","","","","","","","","","","","",""
"","ITI","","html-keyboard-response","69","232928","0.0-1.0-81.0","0","0","80992","","null","","","null","8","","","","","","","","","","","","","","","NaN",""
"","S1","","html-keyboard-response","70","233181","0.0-1.0-83.0","0","0","80992","","null","","","null","9","","","","","","","","","","","","","","","",""
"","ISI","","html-keyboard-response","71","234187","0.0-1.0-84.0","0","0","80992","","null","","","null","9","NaN","","","","","","","","","","","","","","",""
"","S2","","html-keyboard-response","72","234439","0.0-1.0-85.0","0","0","80992","","null","","","null","9","","NaN","","","","","","","","","","","","","",""
"","response","","html-keyboard-response","73","234692","0.0-1.0-86.0-0.0","0","0","80992","","251","","","75","9","","","1","9","training","adjacent","BA","2","1","N.jpg","P.jpg","0","0","1","",""
"","feedback","","html-keyboard-response","74","235695","0.0-1.0-87.0-0.0","0","0","80992","","null","","","null","9","","","","","","","","","","","","","","","",""
"","ITI","","html-keyboard-response","75","236698","0.0-1.0-90.0","0","0","80992","","null","","","null","9","","","","","","","","","","","","","","","NaN",""
"","S1","","html-keyboard-response","76","236950","0.0-1.0-92.0","0","0","80992","","null","","","null","10","","","","","","","","","","","","","","","",""
"","ISI","","html-keyboard-response","77","237953","0.0-1.0-93.0","0","0","80992","","null","","","null","10","NaN","","","","","","","","","","","","","","",""
"","S2","","html-keyboard-response","78","238207","0.0-1.0-94.0","0","0","80992","","null","","","null","10","","NaN","","","","","","","","","","","","","",""
"","response","","html-keyboard-response","79","238395","0.0-1.0-95.0-0.0","0","0","80992","","187","","","75","10","","","1","10","training","adjacent","FG","6","7","L.jpg","O.jpg","0","1","0","",""
"","feedback","","html-keyboard-response","80","239398","0.0-1.0-96.0-0.0","0","0","80992","","null","","","null","10","","","","","","","","","","","","","","","",""
"","time_out","","html-keyboard-response","81","241401","0.0-1.0-98.0-0.0","0","0","80992","","null","","","null","10","","","","","","","","","","","","","","","",""
"","ITI","","html-keyboard-response","82","242403","0.0-1.0-99.0","0","0","80992","","null","","","null","10","","","","","","","","","","","","","","","NaN",""
"","S1","","html-keyboard-response","83","242656","0.0-1.0-101.0","0","0","80992","","null","","","null","11","","","","","","","","","","","","","","","",""
"","ISI","","html-keyboard-response","84","243658","0.0-1.0-102.0","0","0","80992","","null","","","null","11","NaN","","","","","","","","","","","","","","",""
"","S2","","html-keyboard-response","85","243911","0.0-1.0-103.0","0","0","80992","","null","","","null","11","","NaN","","","","","","","","","","","","","",""
"","response","","html-keyboard-response","86","244267","0.0-1.0-104.0-0.0","0","0","80992","","355","","","68","11","","","1","11","training","adjacent","FG","6","7","L.jpg","O.jpg","1","1","1","",""
"","feedback","","html-keyboard-response","87","245283","0.0-1.0-105.0-0.0","0","0","80992","","null","","","null","11","","","","","","","","","","","","","","","",""
"","ITI","","html-keyboard-response","88","246285","0.0-1.0-108.0","0","0","80992","","null","","","null","11","","","","","","","","","","","","","","","NaN",""
"","S1","","html-keyboard-response","89","246538","0.0-1.0-110.0","0","0","80992","","null","","","null","12","","","","","","","","","","","","","","","",""
"","ISI","","html-keyboard-response","90","247541","0.0-1.0-111.0","0","0","80992","","null","","","null","12","NaN","","","","","","","","","","","","","","",""
"","S2","","html-keyboard-response","91","247793","0.0-1.0-112.0","0","0","80992","","null","","","null","12","","NaN","","","","","","","","","","","","","",""
"","response","","html-keyboard-response","92","248096","0.0-1.0-113.0-0.0","0","0","80992","","302","","","68","12","","","1","12","training","adjacent","EF","5","6","Q.jpg","L.jpg","1","1","1","",""
"","feedback","","html-keyboard-response","93","249099","0.0-1.0-114.0-0.0","0","0","80992","","null","","","null","12","","","","","","","","","","","","","","","",""
"","ITI","","html-keyboard-response","94","250102","0.0-1.0-117.0","0","0","80992","","null","","","null","12","","","","","","","","","","","","","","","NaN",""
"","S1","","html-keyboard-response","95","250354","0.0-1.0-119.0","0","0","80992","","null","","","null","13","","","","","","","","","","","","","","","",""
"","ISI","","html-keyboard-response","96","251357","0.0-1.0-120.0","0","0","80992","","null","","","null","13","NaN","","","","","","","","","","","","","","",""
"","S2","","html-keyboard-response","97","251610","0.0-1.0-121.0","0","0","80992","","null","","","null","13","","NaN","","","","","","","","","","","","","",""
"","response","","html-keyboard-response","98","251852","0.0-1.0-122.0-0.0","0","0","80992","","241","","","68","13","","","1","13","training","adjacent","AB","1","2","P.jpg","N.jpg","1","1","1","",""
"","feedback","","html-keyboard-response","99","252856","0.0-1.0-123.0-0.0","0","0","80992","","null","","","null","13","","","","","","","","","","","","","","","",""
"","ITI","","html-keyboard-response","100","253859","0.0-1.0-126.0","0","0","80992","","null","","","null","13","","","","","","","","","","","","","","","NaN",""
"","S1","","html-keyboard-response","101","254112","0.0-1.0-128.0","0","0","80992","","null","","","null","14","","","","","","","","","","","","","","","",""
"","ISI","","html-keyboard-response","102","255115","0.0-1.0-129.0","0","0","80992","","null","","","null","14","NaN","","","","","","","","","","","","","","",""
"","S2","","html-keyboard-response","103","255367","0.0-1.0-130.0","0","0","80992","","null","","","null","14","","NaN","","","","","","","","","","","","","",""
"","response","","html-keyboard-response","104","255561","0.0-1.0-131.0-0.0","0","0","80992","","193","","","75","14","","","1","14","training","adjacent","GF","7","6","O.jpg","L.jpg","0","0","1","",""
"","feedback","","html-keyboard-response","105","256565","0.0-1.0-132.0-0.0","0","0","80992","","null","","","null","14","","","","","","","","","","","","","","","",""
"","ITI","","html-keyboard-response","106","257567","0.0-1.0-135.0","0","0","80992","","null","","","null","14","","","","","","","","","","","","","","","NaN",""
"","S1","","html-keyboard-response","107","257819","0.0-1.0-137.0","0","0","80992","","null","","","null","15","","","","","","","","","","","","","","","",""
"","ISI","","html-keyboard-response","108","258821","0.0-1.0-138.0","0","0","80992","","null","","","null","15","NaN","","","","","","","","","","","","","","",""
"","S2","","html-keyboard-response","109","259074","0.0-1.0-139.0","0","0","80992","","null","","","null","15","","NaN","","","","","","","","","","","","","",""
"","response","","html-keyboard-response","110","259384","0.0-1.0-140.0-0.0","0","0","80992","","309","","","68","15","","","1","15","training","adjacent","CB","3","2","M.jpg","N.jpg","1","0","0","",""
"","feedback","","html-keyboard-response","111","260387","0.0-1.0-141.0-0.0","0","0","80992","","null","","","null","15","","","","","","","","","","","","","","","",""
"","time_out","","html-keyboard-response","112","262389","0.0-1.0-143.0-0.0","0","0","80992","","null","","","null","15","","","","","","","","","","","","","","","",""
"","ITI","","html-keyboard-response","113","263392","0.0-1.0-144.0","0","0","80992","","null","","","null","15","","","","","","","","","","","","","","","NaN",""
"","S1","","html-keyboard-response","114","263645","0.0-1.0-146.0","0","0","80992","","null","","","null","16","","","","","","","","","","","","","","","",""
"","ISI","","html-keyboard-response","115","264648","0.0-1.0-147.0","0","0","80992","","null","","","null","16","NaN","","","","","","","","","","","","","","",""
"","S2","","html-keyboard-response","116","264902","0.0-1.0-148.0","0","0","80992","","null","","","null","16","","NaN","","","","","","","","","","","","","",""
"","response","","html-keyboard-response","117","265323","0.0-1.0-149.0-0.0","0","0","80992","","420","","","75","16","","","1","16","training","adjacent","CB","3","2","M.jpg","N.jpg","0","0","1","",""
"","feedback","","html-keyboard-response","118","266326","0.0-1.0-150.0-0.0","0","0","80992","","null","","","null","16","","","","","","","","","","","","","","","",""
"","ITI","","html-keyboard-response","119","267328","0.0-1.0-153.0","0","0","80992","","null","","","null","16","","","","","","","","","","","","","","","NaN",""
"","S1","","html-keyboard-response","120","267580","0.0-1.0-155.0","0","0","80992","","null","","","null","17","","","","","","","","","","","","","","","",""
"","ISI","","html-keyboard-response","121","268583","0.0-1.0-156.0","0","0","80992","","null","","","null","17","NaN","","","","","","","","","","","","","","",""
"","S2","","html-keyboard-response","122","268836","0.0-1.0-157.0","0","0","80992","","null","","","null","17","","NaN","","","","","","","","","","","","","",""
"","response","","html-keyboard-response","123","268968","0.0-1.0-158.0-0.0","0","0","80992","","131","","","68","17","","","1","17","training","adjacent","BC","2","3","N.jpg","M.jpg","1","1","1","",""
"","feedback","","html-keyboard-response","124","269970","0.0-1.0-159.0-0.0","0","0","80992","","null","","","null","17","","","","","","","","","","","","","","","",""
"","ITI","","html-keyboard-response","125","270973","0.0-1.0-162.0","0","0","80992","","null","","","null","17","","","","","","","","","","","","","","","NaN",""
"","S1","","html-keyboard-response","126","271226","0.0-1.0-164.0","0","0","80992","","null","","","null","18","","","","","","","","","","","","","","","",""
"","ISI","","html-keyboard-response","127","272227","0.0-1.0-165.0","0","0","80992","","null","","","null","18","NaN","","","","","","","","","","","","","","",""
"","S2","","html-keyboard-response","128","272479","0.0-1.0-166.0","0","0","80992","","null","","","null","18","","NaN","","","","","","","","","","","","","",""
"","response","","html-keyboard-response","129","272697","0.0-1.0-167.0-0.0","0","0","80992","","217","","","68","18","","","1","18","training","adjacent","BC","2","3","N.jpg","M.jpg","1","1","1","",""
"","feedback","","html-keyboard-response","130","273699","0.0-1.0-168.0-0.0","0","0","80992","","null","","","null","18","","","","","","","","","","","","","","","",""
"","ITI","","html-keyboard-response","131","274702","0.0-1.0-171.0","0","0","80992","","null","","","null","18","","","","","","","","","","","","","","","NaN",""
"","S1","","html-keyboard-response","132","274953","0.0-1.0-173.0","0","0","80992","","null","","","null","19","","","","","","","","","","","","","","","",""
"","ISI","","html-keyboard-response","133","275956","0.0-1.0-174.0","0","0","80992","","null","","","null","19","NaN","","","","","","","","","","","","","","",""
"","S2","","html-keyboard-response","134","276208","0.0-1.0-175.0","0","0","80992","","null","","","null","19","","NaN","","","","","","","","","","","","","",""
"","response","","html-keyboard-response","135","276605","0.0-1.0-176.0-0.0","0","0","80992","","395","","","68","19","","","1","19","training","adjacent","BA","2","1","N.jpg","P.jpg","1","0","0","",""
"","feedback","","html-keyboard-response","136","277608","0.0-1.0-177.0-0.0","0","0","80992","","null","","","null","19","","","","","","","","","","","","","","","",""
"","time_out","","html-keyboard-response","137","279610","0.0-1.0-179.0-0.0","0","0","80992","","null","","","null","19","","","","","","","","","","","","","","","",""
"","ITI","","html-keyboard-response","138","280614","0.0-1.0-180.0","0","0","80992","","null","","","null","19","","","","","","","","","","","","","","","NaN",""
"","S1","","html-keyboard-response","139","280867","0.0-1.0-182.0","0","0","80992","","null","","","null","20","","","","","","","","","","","","","","","",""
"","ISI","","html-keyboard-response","140","281883","0.0-1.0-183.0","0","0","80992","","null","","","null","20","NaN","","","","","","","","","","","","","","",""
"","S2","","html-keyboard-response","141","282135","0.0-1.0-184.0","0","0","80992","","null","","","null","20","","NaN","","","","","","","","","","","","","",""
"","response","","html-keyboard-response","142","282542","0.0-1.0-185.0-0.0","0","0","80992","","405","","","75","20","","","1","20","training","adjacent","DE","4","5","R.jpg","Q.jpg","0","1","0","",""
"","feedback","","html-keyboard-response","143","283545","0.0-1.0-186.0-0.0","0","0","80992","","null","","","null","20","","","","","","","","","","","","","","","",""
"","time_out","","html-keyboard-response","144","285548","0.0-1.0-188.0-0.0","0","0","80992","","null","","","null","20","","","","","","","","","","","","","","","",""
"","ITI","","html-keyboard-response","145","286550","0.0-1.0-189.0","0","0","80992","","null","","","null","20","","","","","","","","","","","","","","","NaN",""
"","S1","","html-keyboard-response","146","286804","0.0-1.0-191.0","0","0","80992","","null","","","null","21","","","","","","","","","","","","","","","",""
"","ISI","","html-keyboard-response","147","287807","0.0-1.0-192.0","0","0","80992","","null","","","null","21","NaN","","","","","","","","","","","","","","",""
"","S2","","html-keyboard-response","148","288060","0.0-1.0-193.0","0","0","80992","","null","","","null","21","","NaN","","","","","","","","","","","","","",""
"","response","","html-keyboard-response","149","288476","0.0-1.0-194.0-0.0","0","0","80992","","413","","","75","21","","","1","21","training","adjacent","EF","5","6","Q.jpg","L.jpg","0","1","0","",""
"","feedback","","html-keyboard-response","150","289480","0.0-1.0-195.0-0.0","0","0","80992","","null","","","null","21","","","","","","","","","","","","","","","",""
"","time_out","","html-keyboard-response","151","291482","0.0-1.0-197.0-0.0","0","0","80992","","null","","","null","21","","","","","","","","","","","","","","","",""
"","ITI","","html-keyboard-response","152","292483","0.0-1.0-198.0","0","0","80992","","null","","","null","21","","","","","","","","","","","","","","","NaN",""
"","S1","","html-keyboard-response","153","292736","0.0-1.0-200.0","0","0","80992","","null","","","null","22","","","","","","","","","","","","","","","",""
"","ISI","","html-keyboard-response","154","293740","0.0-1.0-201.0","0","0","80992","","null","","","null","22","NaN","","","","","","","","","","","","","","",""
"","S2","","html-keyboard-response","155","293992","0.0-1.0-202.0","0","0","80992","","null","","","null","22","","NaN","","","","","","","","","","","","","",""
"","response","","html-keyboard-response","156","294328","0.0-1.0-203.0-0.0","0","0","80992","","335","","","75","22","","","1","22","training","adjacent","GF","7","6","O.jpg","L.jpg","0","0","1","",""
"","feedback","","html-keyboard-response","157","295331","0.0-1.0-204.0-0.0","0","0","80992","","null","","","null","22","","","","","","","","","","","","","","","",""
"","ITI","","html-keyboard-response","158","296334","0.0-1.0-207.0","0","0","80992","","null","","","null","22","","","","","","","","","","","","","","","NaN",""
"","S1","","html-keyboard-response","159","296587","0.0-1.0-209.0","0","0","80992","","null","","","null","23","","","","","","","","","","","","","","","",""
"","ISI","","html-keyboard-response","160","297589","0.0-1.0-210.0","0","0","80992","","null","","","null","23","NaN","","","","","","","","","","","","","","",""
"","S2","","html-keyboard-response","161","297841","0.0-1.0-211.0","0","0","80992","","null","","","null","23","","NaN","","","","","","","","","","","","","",""
"","response","","html-keyboard-response","162","298109","0.0-1.0-212.0-0.0","0","0","80992","","267","","","75","23","","","1","23","training","adjacent","ED","5","4","Q.jpg","R.jpg","0","0","1","",""
"","feedback","","html-keyboard-response","163","299111","0.0-1.0-213.0-0.0","0","0","80992","","null","","","null","23","","","","","","","","","","","","","","","",""
"","ITI","","html-keyboard-response","164","300114","0.0-1.0-216.0","0","0","80992","","null","","","null","23","","","","","","","","","","","","","","","NaN",""
"","S1","","html-keyboard-response","165","300367","0.0-1.0-218.0","0","0","80992","","null","","","null","24","","","","","","","","","","","","","","","",""
"","ISI","","html-keyboard-response","166","301378","0.0-1.0-219.0","0","0","80992","","null","","","null","24","NaN","","","","","","","","","","","","","","",""
"","S2","","html-keyboard-response","167","301630","0.0-1.0-220.0","0","0","80992","","null","","","null","24","","NaN","","","","","","","","","","","","","",""
"","response","","html-keyboard-response","168","301960","0.0-1.0-221.0-0.0","0","0","80992","","328","","","68","24","","","1","24","training","adjacent","DE","4","5","R.jpg","Q.jpg","1","1","1","",""
"","feedback","","html-keyboard-response","169","302965","0.0-1.0-222.0-0.0","0","0","80992","","null","","","null","24","","","","","","","","","","","","","","","",""
"","ITI","","html-keyboard-response","170","303967","0.0-1.0-225.0","0","0","80992","","null","","","null","24","","","","","","","","","","","","","","","NaN",""
"","S1","","html-keyboard-response","171","304220","0.0-1.0-227.0","0","0","80992","","null","","","null","25","","","","","","","","","","","","","","","",""
"","ISI","","html-keyboard-response","172","305222","0.0-1.0-228.0","0","0","80992","","null","","","null","25","NaN","","","","","","","","","","","","","","",""
"","S2","","html-keyboard-response","173","305474","0.0-1.0-229.0","0","0","80992","","null","","","null","25","","NaN","","","","","","","","","","","","","",""
"","response","","html-keyboard-response","174","305890","0.0-1.0-230.0-0.0","0","0","80992","","414","","","68","25","","","1","25","training","adjacent","BC","2","3","N.jpg","M.jpg","1","1","1","",""
"","feedback","","html-keyboard-response","175","306892","0.0-1.0-231.0-0.0","0","0","80992","","null","","","null","25","","","","","","","","","","","","","","","",""
"","ITI","","html-keyboard-response","176","307896","0.0-1.0-234.0","0","0","80992","","null","","","null","25","","","","","","","","","","","","","","","NaN",""
"","S1","","html-keyboard-response","177","308149","0.0-1.0-236.0","0","0","80992","","null","","","null","26","","","","","","","","","","","","","","","",""
"","ISI","","html-keyboard-response","178","309151","0.0-1.0-237.0","0","0","80992","","null","","","null","26","NaN","","","","","","","","","","","","","","",""
"","S2","","html-keyboard-response","179","309404","0.0-1.0-238.0","0","0","80992","","null","","","null","26","","NaN","","","","","","","","","","","","","",""
"","response","","html-keyboard-response","180","309696","0.0-1.0-239.0-0.0","0","0","80992","","291","","","68","26","","","1","26","training","adjacent","DE","4","5","R.jpg","Q.jpg","1","1","1","",""
"","feedback","","html-keyboard-response","181","310700","0.0-1.0-240.0-0.0","0","0","80992","","null","","","null","26","","","","","","","","","","","","","","","",""
"","ITI","","html-keyboard-response","182","311702","0.0-1.0-243.0","0","0","80992","","null","","","null","26","","","","","","","","","","","","","","","NaN",""
"","S1","","html-keyboard-response","183","311955","0.0-1.0-245.0","0","0","80992","","null","","","null","27","","","","","","","","","","","","","","","",""
"","ISI","","html-keyboard-response","184","312959","0.0-1.0-246.0","0","0","80992","","null","","","null","27","NaN","","","","","","","","","","","","","","",""
"","S2","","html-keyboard-response","185","313212","0.0-1.0-247.0","0","0","80992","","null","","","null","27","","NaN","","","","","","","","","","","","","",""
"","response","","html-keyboard-response","186","313486","0.0-1.0-248.0-0.0","0","0","80992","","273","","","75","27","","","1","27","training","adjacent","FE","6","5","L.jpg","Q.jpg","0","0","1","",""
"","feedback","","html-keyboard-response","187","314500","0.0-1.0-249.0-0.0","0","0","80992","","null","","","null","27","","","","","","","","","","","","","","","",""
"","ITI","","html-keyboard-response","188","315502","0.0-1.0-252.0","0","0","80992","","null","","","null","27","","","","","","","","","","","","","","","NaN",""
"","S1","","html-keyboard-response","189","315755","0.0-1.0-254.0","0","0","80992","","null","","","null","28","","","","","","","","","","","","","","","",""
"","ISI","","html-keyboard-response","190","316759","0.0-1.0-255.0","0","0","80992","","null","","","null","28","NaN","","","","","","","","","","","","","","",""
"","S2","","html-keyboard-response","191","317011","0.0-1.0-256.0","0","0","80992","","null","","","null","28","","NaN","","","","","","","","","","","","","",""
"","response","","html-keyboard-response","192","317310","0.0-1.0-257.0-0.0","0","0","80992","","297","","","68","28","","","1","28","training","adjacent","CD","3","4","M.jpg","R.jpg","1","1","1","",""
"","feedback","","html-keyboard-response","193","318312","0.0-1.0-258.0-0.0","0","0","80992","","null","","","null","28","","","","","","","","","","","","","","","",""
"","ITI","","html-keyboard-response","194","319315","0.0-1.0-261.0","0","0","80992","","null","","","null","28","","","","","","","","","","","","","","","NaN",""
"","S1","","html-keyboard-response","195","319567","0.0-1.0-263.0","0","0","80992","","null","","","null","29","","","","","","","","","","","","","","","",""
"","ISI","","html-keyboard-response","196","320569","0.0-1.0-264.0","0","0","80992","","null","","","null","29","NaN","","","","","","","","","","","","","","",""
"","S2","","html-keyboard-response","197","320821","0.0-1.0-265.0","0","0","80992","","null","","","null","29","","NaN","","","","","","","","","","","","","",""
"","response","","html-keyboard-response","198","321045","0.0-1.0-266.0-0.0","0","0","80992","","222","","","75","29","","","1","29","training","adjacent","ED","5","4","Q.jpg","R.jpg","0","0","1","",""
"","feedback","","html-keyboard-response","199","322047","0.0-1.0-267.0-0.0","0","0","80992","","null","","","null","29","","","","","","","","","","","","","","","",""
"","ITI","","html-keyboard-response","200","323049","0.0-1.0-270.0","0","0","80992","","null","","","null","29","","","","","","","","","","","","","","","NaN",""
"","S1","","html-keyboard-response","201","323303","0.0-1.0-272.0","0","0","80992","","null","","","null","30","","","","","","","","","","","","","","","",""
"","ISI","","html-keyboard-response","202","324307","0.0-1.0-273.0","0","0","80992","","null","","","null","30","NaN","","","","","","","","","","","","","","",""
"","S2","","html-keyboard-response","203","324560","0.0-1.0-274.0","0","0","80992","","null","","","null","30","","NaN","","","","","","","","","","","","","",""
"","response","","html-keyboard-response","204","324903","0.0-1.0-275.0-0.0","0","0","80992","","341","","","75","30","","","1","30","training","adjacent","ED","5","4","Q.jpg","R.jpg","0","0","1","",""
"","feedback","","html-keyboard-response","205","325906","0.0-1.0-276.0-0.0","0","0","80992","","null","","","null","30","","","","","","","","","","","","","","","",""
"","ITI","","html-keyboard-response","206","326908","0.0-1.0-279.0","0","0","80992","","null","","","null","30","","","","","","","","","","","","","","","NaN",""
"","S1","","html-keyboard-response","207","327161","0.0-1.0-281.0","0","0","80992","","null","","","null","31","","","","","","","","","","","","","","","",""
"","ISI","","html-keyboard-response","208","328163","0.0-1.0-282.0","0","0","80992","","null","","","null","31","NaN","","","","","","","","","","","","","","",""
"","S2","","html-keyboard-response","209","328415","0.0-1.0-283.0","0","0","80992","","null","","","null","31","","NaN","","","","","","","","","","","","","",""
"","response","","html-keyboard-response","210","328751","0.0-1.0-284.0-0.0","0","0","80992","","334","","","68","31","","","1","31","training","adjacent","CD","3","4","M.jpg","R.jpg","1","1","1","",""
"","feedback","","html-keyboard-response","211","329754","0.0-1.0-285.0-0.0","0","0","80992","","null","","","null","31","","","","","","","","","","","","","","","",""
"","ITI","","html-keyboard-response","212","330758","0.0-1.0-288.0","0","0","80992","","null","","","null","31","","","","","","","","","","","","","","","NaN",""
"","S1","","html-keyboard-response","213","331011","0.0-1.0-290.0","0","0","80992","","null","","","null","32","","","","","","","","","","","","","","","",""
"","ISI","","html-keyboard-response","214","332012","0.0-1.0-291.0","0","0","80992","","null","","","null","32","NaN","","","","","","","","","","","","","","",""
"","S2","","html-keyboard-response","215","332266","0.0-1.0-292.0","0","0","80992","","null","","","null","32","","NaN","","","","","","","","","","","","","",""
"","response","","html-keyboard-response","216","332564","0.0-1.0-293.0-0.0","0","0","80992","","297","","","75","32","","","1","32","training","adjacent","AB","1","2","P.jpg","N.jpg","0","1","0","",""
"","feedback","","html-keyboard-response","217","333566","0.0-1.0-294.0-0.0","0","0","80992","","null","","","null","32","","","","","","","","","","","","","","","",""
"","time_out","","html-keyboard-response","218","335568","0.0-1.0-296.0-0.0","0","0","80992","","null","","","null","32","","","","","","","","","","","","","","","",""
"","ITI","","html-keyboard-response","219","336571","0.0-1.0-297.0","0","0","80992","","null","","","null","32","","","","","","","","","","","","","","","NaN",""
"","S1","","html-keyboard-response","220","336823","0.0-1.0-299.0","0","0","80992","","null","","","null","33","","","","","","","","","","","","","","","",""
"","ISI","","html-keyboard-response","221","337825","0.0-1.0-300.0","0","0","80992","","null","","","null","33","NaN","","","","","","","","","","","","","","",""
"","S2","","html-keyboard-response","222","338077","0.0-1.0-301.0","0","0","80992","","null","","","null","33","","NaN","","","","","","","","","","","","","",""
"","response","","html-keyboard-response","223","338516","0.0-1.0-302.0-0.0","0","0","80992","","436","","","68","33","","","1","33","training","adjacent","GF","7","6","O.jpg","L.jpg","1","0","0","",""
"","feedback","","html-keyboard-response","224","339519","0.0-1.0-303.0-0.0","0","0","80992","","null","","","null","33","","","","","","","","","","","","","","","",""
"","time_out","","html-keyboard-response","225","341521","0.0-1.0-305.0-0.0","0","0","80992","","null","","","null","33","","","","","","","","","","","","","","","",""
"","ITI","","html-keyboard-response","226","342524","0.0-1.0-306.0","0","0","80992","","null","","","null","33","","","","","","","","","","","","","","","NaN",""
"","S1","","html-keyboard-response","227","342776","0.0-1.0-308.0","0","0","80992","","null","","","null","34","","","","","","","","","","","","","","","",""
"","ISI","","html-keyboard-response","228","343778","0.0-1.0-309.0","0","0","80992","","null","","","null","34","NaN","","","","","","","","","","","","","","",""
"","S2","","html-keyboard-response","229","344032","0.0-1.0-310.0","0","0","80992","","null","","","null","34","","NaN","","","","","","","","","","","","","",""
"","response","","html-keyboard-response","230","344455","0.0-1.0-311.0-0.0","0","0","80992","","422","","","75","34","","","1","34","training","adjacent","AB","1","2","P.jpg","N.jpg","0","1","0","",""
"","feedback","","html-keyboard-response","231","345458","0.0-1.0-312.0-0.0","0","0","80992","","null","","","null","34","","","","","","","","","","","","","","","",""
"","time_out","","html-keyboard-response","232","347460","0.0-1.0-314.0-0.0","0","0","80992","","null","","","null","34","","","","","","","","","","","","","","","",""
"","ITI","","html-keyboard-response","233","348463","0.0-1.0-315.0","0","0","80992","","null","","","null","34","","","","","","","","","","","","","","","NaN",""
"","S1","","html-keyboard-response","234","348714","0.0-1.0-317.0","0","0","80992","","null","","","null","35","","","","","","","","","","","","","","","",""
"","ISI","","html-keyboard-response","235","349716","0.0-1.0-318.0","0","0","80992","","null","","","null","35","NaN","","","","","","","","","","","","","","",""
"","S2","","html-keyboard-response","236","349969","0.0-1.0-319.0","0","0","80992","","null","","","null","35","","NaN","","","","","","","","","","","","","",""
"","response","","html-keyboard-response","237","350282","0.0-1.0-320.0-0.0","0","0","80992","","312","","","68","35","","","1","35","training","adjacent","DC","4","3","R.jpg","M.jpg","1","0","0","",""
"","feedback","","html-keyboard-response","238","351284","0.0-1.0-321.0-0.0","0","0","80992","","null","","","null","35","","","","","","","","","","","","","","","",""
"","time_out","","html-keyboard-response","239","353289","0.0-1.0-323.0-0.0","0","0","80992","","null","","","null","35","","","","","","","","","","","","","","","",""
"","ITI","","html-keyboard-response","240","354292","0.0-1.0-324.0","0","0","80992","","null","","","null","35","","","","","","","","","","","","","","","NaN",""
"","S1","","html-keyboard-response","241","354544","0.0-1.0-326.0","0","0","80992","","null","","","null","36","","","","","","","","","","","","","","","",""
"","ISI","","html-keyboard-response","242","355546","0.0-1.0-327.0","0","0","80992","","null","","","null","36","NaN","","","","","","","","","","","","","","",""
"","S2","","html-keyboard-response","243","355798","0.0-1.0-328.0","0","0","80992","","null","","","null","36","","NaN","","","","","","","","","","","","","",""
"","response","","html-keyboard-response","244","356240","0.0-1.0-329.0-0.0","0","0","80992","","440","","","68","36","","","1","36","training","adjacent","AB","1","2","P.jpg","N.jpg","1","1","1","",""
"","feedback","","html-keyboard-response","245","357242","0.0-1.0-330.0-0.0","0","0","80992","","null","","","null","36","","","","","","","","","","","","","","","",""
"","ITI","","html-keyboard-response","246","358244","0.0-1.0-333.0","0","0","80992","","null","","","null","36","","","","","","","","","","","","","","","NaN",""
"","S1","","html-keyboard-response","247","358497","0.0-1.0-335.0","0","0","80992","","null","","","null","37","","","","","","","","","","","","","","","",""
"","ISI","","html-keyboard-response","248","359500","0.0-1.0-336.0","0","0","80992","","null","","","null","37","NaN","","","","","","","","","","","","","","",""
"","S2","","html-keyboard-response","249","359741","0.0-1.0-337.0","0","0","80992","","240","","","68","37","","d","1","37","training","adjacent","CB","3","2","M.jpg","N.jpg","1","0","0","",""
"","feedback","","html-keyboard-response","250","360744","0.0-1.0-339.0-0.0","0","0","80992","","null","","","null","37","","","","","","","","","","","","","","","",""
"","time_out","","html-keyboard-response","251","362747","0.0-1.0-341.0-0.0","0","0","80992","","null","","","null","37","","","","","","","","","","","","","","","",""
"","ITI","","html-keyboard-response","252","363749","0.0-1.0-342.0","0","0","80992","","null","","","null","37","","","","","","","","","","","","","","","NaN",""
"","S1","","html-keyboard-response","253","364002","0.0-1.0-344.0","0","0","80992","","null","","","null","38","","","","","","","","","","","","","","","",""
"","ISI","","html-keyboard-response","254","365006","0.0-1.0-345.0","0","0","80992","","null","","","null","38","NaN","","","","","","","","","","","","","","",""
"","S2","","html-keyboard-response","255","365259","0.0-1.0-346.0","0","0","80992","","null","","","null","38","","NaN","","","","","","","","","","","","","",""
"","response","","html-keyboard-response","256","365378","0.0-1.0-347.0-0.0","0","0","80992","","118","","","75","38","","","1","38","training","adjacent","BA","2","1","N.jpg","P.jpg","0","0","1","",""
"","feedback","","html-keyboard-response","257","366380","0.0-1.0-348.0-0.0","0","0","80992","","null","","","null","38","","","","","","","","","","","","","","","",""
"","ITI","","html-keyboard-response","258","367382","0.0-1.0-351.0","0","0","80992","","null","","","null","38","","","","","","","","","","","","","","","NaN",""
"","S1","","html-keyboard-response","259","367635","0.0-1.0-353.0","0","0","80992","","null","","","null","39","","","","","","","","","","","","","","","",""
"","ISI","","html-keyboard-response","260","368638","0.0-1.0-354.0","0","0","80992","","null","","","null","39","NaN","","","","","","","","","","","","","","",""
"","S2","","html-keyboard-response","261","368890","0.0-1.0-355.0","0","0","80992","","null","","","null","39","","NaN","","","","","","","","","","","","","",""
"","response","","html-keyboard-response","262","369359","0.0-1.0-356.0-0.0","0","0","80992","","468","","","75","39","","","1","39","training","adjacent","DC","4","3","R.jpg","M.jpg","0","0","1","",""
"","feedback","","html-keyboard-response","263","370361","0.0-1.0-357.0-0.0","0","0","80992","","null","","","null","39","","","","","","","","","","","","","","","",""
"","ITI","","html-keyboard-response","264","371364","0.0-1.0-360.0","0","0","80992","","null","","","null","39","","","","","","","","","","","","","","","NaN",""
"","S1","","html-keyboard-response","265","371616","0.0-1.0-362.0","0","0","80992","","null","","","null","40","","","","","","","","","","","","","","","",""
"","ISI","","html-keyboard-response","266","372619","0.0-1.0-363.0","0","0","80992","","null","","","null","40","NaN","","","","","","","","","","","","","","",""
"","S2","","html-keyboard-response","267","372872","0.0-1.0-364.0","0","0","80992","","null","","","null","40","","NaN","","","","","","","","","","","","","",""
"","response","","html-keyboard-response","268","372930","0.0-1.0-365.0-0.0","0","0","80992","","56","","","68","40","","","1","40","training","adjacent","CB","3","2","M.jpg","N.jpg","1","0","0","",""
"","feedback","","html-keyboard-response","269","373932","0.0-1.0-366.0-0.0","0","0","80992","","null","","","null","40","","","","","","","","","","","","","","","",""
"","time_out","","html-keyboard-response","270","375935","0.0-1.0-368.0-0.0","0","0","80992","","null","","","null","40","","","","","","","","","","","","","","","",""
"","ITI","","html-keyboard-response","271","376938","0.0-1.0-369.0","0","0","80992","","null","","","null","40","","","","","","","","","","","","","","","NaN",""
"","S1","","html-keyboard-response","272","377191","0.0-1.0-371.0","0","0","80992","","null","","","null","41","","","","","","","","","","","","","","","",""
"","ISI","","html-keyboard-response","273","378194","0.0-1.0-372.0","0","0","80992","","null","","","null","41","NaN","","","","","","","","","","","","","","",""
"","S2","","html-keyboard-response","274","378445","0.0-1.0-373.0","0","0","80992","","null","","","null","41","","NaN","","","","","","","","","","","","","",""
"","response","","html-keyboard-response","275","378643","0.0-1.0-374.0-0.0","0","0","80992","","196","","","75","41","","","1","41","training","adjacent","ED","5","4","Q.jpg","R.jpg","0","0","1","",""
"","feedback","","html-keyboard-response","276","379645","0.0-1.0-375.0-0.0","0","0","80992","","null","","","null","41","","","","","","","","","","","","","","","",""
"","ITI","","html-keyboard-response","277","380647","0.0-1.0-378.0","0","0","80992","","null","","","null","41","","","","","","","","","","","","","","","NaN",""
"","S1","","html-keyboard-response","278","380900","0.0-1.0-380.0","0","0","80992","","null","","","null","42","","","","","","","","","","","","","","","",""
"","ISI","","html-keyboard-response","279","381902","0.0-1.0-381.0","0","0","80992","","null","","","null","42","NaN","","","","","","","","","","","","","","",""
"","S2","","html-keyboard-response","280","382155","0.0-1.0-382.0","0","0","80992","","null","","","null","42","","NaN","","","","","","","","","","","","","",""
"","response","","html-keyboard-response","281","382371","0.0-1.0-383.0-0.0","0","0","80992","","213","","","75","42","","","1","42","training","adjacent","DC","4","3","R.jpg","M.jpg","0","0","1","",""
"","feedback","","html-keyboard-response","282","383374","0.0-1.0-384.0-0.0","0","0","80992","","null","","","null","42","","","","","","","","","","","","","","","",""
"","ITI","","html-keyboard-response","283","384376","0.0-1.0-387.0","0","0","80992","","null","","","null","42","","","","","","","","","","","","","","","NaN",""
"","S1","","html-keyboard-response","284","384629","0.0-1.0-389.0","0","0","80992","","null","","","null","43","","","","","","","","","","","","","","","",""
"","ISI","","html-keyboard-response","285","385632","0.0-1.0-390.0","0","0","80992","","null","","","null","43","NaN","","","","","","","","","","","","","","",""
"","S2","","html-keyboard-response","286","385885","0.0-1.0-391.0","0","0","80992","","null","","","null","43","","NaN","","","","","","","","","","","","","",""
"","response","","html-keyboard-response","287","386066","0.0-1.0-392.0-0.0","0","0","80992","","180","","","68","43","","","1","43","training","adjacent","FG","6","7","L.jpg","O.jpg","1","1","1","",""
"","feedback","","html-keyboard-response","288","387070","0.0-1.0-393.0-0.0","0","0","80992","","null","","","null","43","","","","","","","","","","","","","","","",""
"","ITI","","html-keyboard-response","289","388072","0.0-1.0-396.0","0","0","80992","","null","","","null","43","","","","","","","","","","","","","","","NaN",""
"","S1","","html-keyboard-response","290","388324","0.0-1.0-398.0","0","0","80992","","null","","","null","44","","","","","","","","","","","","","","","",""
"","ISI","","html-keyboard-response","291","389326","0.0-1.0-399.0","0","0","80992","","null","","","null","44","NaN","","","","","","","","","","","","","","",""
"","S2","","html-keyboard-response","292","389579","0.0-1.0-400.0","0","0","80992","","null","","","null","44","","NaN","","","","","","","","","","","","","",""
"","response","","html-keyboard-response","293","389729","0.0-1.0-401.0-0.0","0","0","80992","","148","","","75","44","","","1","44","training","adjacent","CD","3","4","M.jpg","R.jpg","0","1","0","",""
"","feedback","","html-keyboard-response","294","390732","0.0-1.0-402.0-0.0","0","0","80992","","null","","","null","44","","","","","","","","","","","","","","","",""
"","time_out","","html-keyboard-response","295","392735","0.0-1.0-404.0-0.0","0","0","80992","","null","","","null","44","","","","","","","","","","","","","","","",""
"","ITI","","html-keyboard-response","296","393737","0.0-1.0-405.0","0","0","80992","","null","","","null","44","","","","","","","","","","","","","","","NaN",""
"","S1","","html-keyboard-response","297","393989","0.0-1.0-407.0","0","0","80992","","null","","","null","45","","","","","","","","","","","","","","","",""
"","ISI","","html-keyboard-response","298","394992","0.0-1.0-408.0","0","0","80992","","null","","","null","45","NaN","","","","","","","","","","","","","","",""
"","S2","","html-keyboard-response","299","395197","0.0-1.0-409.0","0","0","80992","","204","","","68","45","","d","1","45","training","adjacent","FE","6","5","L.jpg","Q.jpg","1","0","0","",""
"","feedback","","html-keyboard-response","300","396201","0.0-1.0-411.0-0.0","0","0","80992","","null","","","null","45","","","","","","","","","","","","","","","",""
"","time_out","","html-keyboard-response","301","398204","0.0-1.0-413.0-0.0","0","0","80992","","null","","","null","45","","","","","","","","","","","","","","","",""
"","ITI","","html-keyboard-response","302","399205","0.0-1.0-414.0","0","0","80992","","null","","","null","45","","","","","","","","","","","","","","","NaN",""
"","S1","","html-keyboard-response","303","399458","0.0-1.0-416.0","0","0","80992","","null","","","null","46","","","","","","","","","","","","","","","",""
"","ISI","","html-keyboard-response","304","400461","0.0-1.0-417.0","0","0","80992","","null","","","null","46","NaN","","","","","","","","","","","","","","",""
"","S2","","html-keyboard-response","305","400713","0.0-1.0-418.0","0","0","80992","","null","","","null","46","","NaN","","","","","","","","","","","","","",""
"","response","","html-keyboard-response","306","400752","0.0-1.0-419.0-0.0","0","0","80992","","36","","","68","46","","","1","46","training","adjacent","CD","3","4","M.jpg","R.jpg","1","1","1","",""
"","feedback","","html-keyboard-response","307","401754","0.0-1.0-420.0-0.0","0","0","80992","","null","","","null","46","","","","","","","","","","","","","","","",""
"","ITI","","html-keyboard-response","308","402756","0.0-1.0-423.0","0","0","80992","","null","","","null","46","","","","","","","","","","","","","","","NaN",""
"","S1","","html-keyboard-response","309","403009","0.0-1.0-425.0","0","0","80992","","null","","","null","47","","","","","","","","","","","","","","","",""
"","ISI","","html-keyboard-response","310","404011","0.0-1.0-426.0","0","0","80992","","null","","","null","47","NaN","","","","","","","","","","","","","","",""
"","S2","","html-keyboard-response","311","404266","0.0-1.0-427.0","0","0","80992","","null","","","null","47","","NaN","","","","","","","","","","","","","",""
"","response","","html-keyboard-response","312","404664","0.0-1.0-428.0-0.0","0","0","80992","","397","","","75","47","","","1","47","training","adjacent","DC","4","3","R.jpg","M.jpg","0","0","1","",""
"","feedback","","html-keyboard-response","313","405668","0.0-1.0-429.0-0.0","0","0","80992","","null","","","null","47","","","","","","","","","","","","","","","",""
"","ITI","","html-keyboard-response","314","406671","0.0-1.0-432.0","0","0","80992","","null","","","null","47","","","","","","","","","","","","","","","NaN",""
"","block_over","","html-keyboard-response","315","418378","0.0-1.0-433.0-0.0","0","0","80992","","11706","","","32","47","","","","","","","","","","","","","","","",""
"","S1","","html-keyboard-response","316","418631","0.0-1.0-434.0","0","0","80992","","null","","","null","48","","","","","","","","","","","","","","","",""
"","ISI","","html-keyboard-response","317","419633","0.0-1.0-435.0","0","0","80992","","null","","","null","48","NaN","","","","","","","","","","","","","","",""
"","S2","","html-keyboard-response","318","419885","0.0-1.0-436.0","0","0","80992","","null","","","null","48","","NaN","","","","","","","","","","","","","",""
"","response","","html-keyboard-response","319","420563","0.0-1.0-437.0-0.0","0","0","80992","","676","","","68","48","","","2","48","training","adjacent","CB","3","2","M.jpg","N.jpg","1","0","0","",""
"","feedback","","html-keyboard-response","320","421567","0.0-1.0-438.0-0.0","0","0","80992","","null","","","null","48","","","","","","","","","","","","","","","",""
"","time_out","","html-keyboard-response","321","423569","0.0-1.0-440.0-0.0","0","0","80992","","null","","","null","48","","","","","","","","","","","","","","","",""
"","ITI","","html-keyboard-response","322","424571","0.0-1.0-441.0","0","0","80992","","null","","","null","48","","","","","","","","","","","","","","","NaN",""
"","S1","","html-keyboard-response","323","424823","0.0-1.0-443.0","0","0","80992","","null","","","null","49","","","","","","","","","","","","","","","",""
"","ISI","","html-keyboard-response","324","425826","0.0-1.0-444.0","0","0","80992","","null","","","null","49","NaN","","","","","","","","","","","","","","",""
"","S2","","html-keyboard-response","325","426078","0.0-1.0-445.0","0","0","80992","","null","","","null","49","","NaN","","","","","","","","","","","","","",""
"","response","","html-keyboard-response","326","426672","0.0-1.0-446.0-0.0","0","0","80992","","592","","","68","49","","","2","49","training","adjacent","EF","5","6","Q.jpg","L.jpg","1","1","1","",""
"","feedback","","html-keyboard-response","327","427674","0.0-1.0-447.0-0.0","0","0","80992","","null","","","null","49","","","","","","","","","","","","","","","",""
"","ITI","","html-keyboard-response","328","428677","0.0-1.0-450.0","0","0","80992","","null","","","null","49","","","","","","","","","","","","","","","NaN",""
"","S1","","html-keyboard-response","329","428929","0.0-1.0-452.0","0","0","80992","","null","","","null","50","","","","","","","","","","","","","","","",""
"","ISI","","html-keyboard-response","330","429932","0.0-1.0-453.0","0","0","80992","","null","","","null","50","NaN","","","","","","","","","","","","","","",""
"","S2","","html-keyboard-response","331","430186","0.0-1.0-454.0","0","0","80992","","null","","","null","50","","NaN","","","","","","","","","","","","","",""
"","response","","html-keyboard-response","332","430462","0.0-1.0-455.0-0.0","0","0","80992","","273","","","75","50","","","2","50","training","adjacent","ED","5","4","Q.jpg","R.jpg","0","0","1","",""
"","feedback","","html-keyboard-response","333","431467","0.0-1.0-456.0-0.0","0","0","80992","","null","","","null","50","","","","","","","","","","","","","","","",""
"","ITI","","html-keyboard-response","334","432470","0.0-1.0-459.0","0","0","80992","","null","","","null","50","","","","","","","","","","","","","","","NaN",""
"","S1","","html-keyboard-response","335","432724","0.0-1.0-461.0","0","0","80992","","null","","","null","51","","","","","","","","","","","","","","","",""
"","ISI","","html-keyboard-response","336","433726","0.0-1.0-462.0","0","0","80992","","null","","","null","51","NaN","","","","","","","","","","","","","","",""
"","S2","","html-keyboard-response","337","433979","0.0-1.0-463.0","0","0","80992","","null","","","null","51","","NaN","","","","","","","","","","","","","",""
"","response","","html-keyboard-response","338","434157","0.0-1.0-464.0-0.0","0","0","80992","","176","","","68","51","","","2","51","training","adjacent","FG","6","7","L.jpg","O.jpg","1","1","1","",""
"","feedback","","html-keyboard-response","339","435159","0.0-1.0-465.0-0.0","0","0","80992","","null","","","null","51","","","","","","","","","","","","","","","",""
"","ITI","","html-keyboard-response","340","436162","0.0-1.0-468.0","0","0","80992","","null","","","null","51","","","","","","","","","","","","","","","NaN",""
"","S1","","html-keyboard-response","341","436415","0.0-1.0-470.0","0","0","80992","","null","","","null","52","","","","","","","","","","","","","","","",""
"","ISI","","html-keyboard-response","342","437417","0.0-1.0-471.0","0","0","80992","","null","","","null","52","NaN","","","","","","","","","","","","","","",""
"","S2","","html-keyboard-response","343","437669","0.0-1.0-472.0","0","0","80992","","null","","","null","52","","NaN","","","","","","","","","","","","","",""
"","response","","html-keyboard-response","344","437917","0.0-1.0-473.0-0.0","0","0","80992","","246","","","75","52","","","2","52","training","adjacent","GF","7","6","O.jpg","L.jpg","0","0","1","",""
"","feedback","","html-keyboard-response","345","438931","0.0-1.0-474.0-0.0","0","0","80992","","null","","","null","52","","","","","","","","","","","","","","","",""
"","ITI","","html-keyboard-response","346","439934","0.0-1.0-477.0","0","0","80992","","null","","","null","52","","","","","","","","","","","","","","","NaN",""
"","S1","","html-keyboard-response","347","440186","0.0-1.0-479.0","0","0","80992","","null","","","null","53","","","","","","","","","","","","","","","",""
"","ISI","","html-keyboard-response","348","441188","0.0-1.0-480.0","0","0","80992","","null","","","null","53","NaN","","","","","","","","","","","","","","",""
"","S2","","html-keyboard-response","349","441440","0.0-1.0-481.0","0","0","80992","","null","","","null","53","","NaN","","","","","","","","","","","","","",""
"","response","","html-keyboard-response","350","441667","0.0-1.0-482.0-0.0","0","0","80992","","226","","","68","53","","","2","53","training","adjacent","ED","5","4","Q.jpg","R.jpg","1","0","0","",""
"","feedback","","html-keyboard-response","351","442669","0.0-1.0-483.0-0.0","0","0","80992","","null","","","null","53","","","","","","","","","","","","","","","",""
"","time_out","","html-keyboard-response","352","444672","0.0-1.0-485.0-0.0","0","0","80992","","null","","","null","53","","","","","","","","","","","","","","","",""
"","ITI","","html-keyboard-response","353","445674","0.0-1.0-486.0","0","0","80992","","null","","","null","53","","","","","","","","","","","","","","","NaN",""
"","S1","","html-keyboard-response","354","445929","0.0-1.0-488.0","0","0","80992","","null","","","null","54","","","","","","","","","","","","","","","",""
"","ISI","","html-keyboard-response","355","446931","0.0-1.0-489.0","0","0","80992","","null","","","null","54","NaN","","","","","","","","","","","","","","",""
"","S2","","html-keyboard-response","356","447183","0.0-1.0-490.0","0","0","80992","","null","","","null","54","","NaN","","","","","","","","","","","","","",""
"","response","","html-keyboard-response","357","447605","0.0-1.0-491.0-0.0","0","0","80992","","421","","","75","54","","","2","54","training","adjacent","ED","5","4","Q.jpg","R.jpg","0","0","1","",""
"","feedback","","html-keyboard-response","358","448607","0.0-1.0-492.0-0.0","0","0","80992","","null","","","null","54","","","","","","","","","","","","","","","",""
"","ITI","","html-keyboard-response","359","449610","0.0-1.0-495.0","0","0","80992","","null","","","null","54","","","","","","","","","","","","","","","NaN",""
"","S1","","html-keyboard-response","360","449863","0.0-1.0-497.0","0","0","80992","","null","","","null","55","","","","","","","","","","","","","","","",""
"","ISI","","html-keyboard-response","361","450871","0.0-1.0-498.0","0","0","80992","","null","","","null","55","NaN","","","","","","","","","","","","","","",""
"","S2","","html-keyboard-response","362","451124","0.0-1.0-499.0","0","0","80992","","null","","","null","55","","NaN","","","","","","","","","","","","","",""
"","response","","html-keyboard-response","363","451481","0.0-1.0-500.0-0.0","0","0","80992","","356","","","68","55","","","2","55","training","adjacent","FE","6","5","L.jpg","Q.jpg","1","0","0","",""
"","feedback","","html-keyboard-response","364","452483","0.0-1.0-501.0-0.0","0","0","80992","","null","","","null","55","","","","","","","","","","","","","","","",""
"","time_out","","html-keyboard-response","365","454486","0.0-1.0-503.0-0.0","0","0","80992","","null","","","null","55","","","","","","","","","","","","","","","",""
"","ITI","","html-keyboard-response","366","455487","0.0-1.0-504.0","0","0","80992","","null","","","null","55","","","","","","","","","","","","","","","NaN",""
"","S1","","html-keyboard-response","367","455740","0.0-1.0-506.0","0","0","80992","","null","","","null","56","","","","","","","","","","","","","","","",""
"","ISI","","html-keyboard-response","368","456742","0.0-1.0-507.0","0","0","80992","","null","","","null","56","NaN","","","","","","","","","","","","","","",""
"","S2","","html-keyboard-response","369","456995","0.0-1.0-508.0","0","0","80992","","null","","","null","56","","NaN","","","","","","","","","","","","","",""
"","response","","html-keyboard-response","370","457472","0.0-1.0-509.0-0.0","0","0","80992","","476","","","75","56","","","2","56","training","adjacent","GF","7","6","O.jpg","L.jpg","0","0","1","",""
"","feedback","","html-keyboard-response","371","458479","0.0-1.0-510.0-0.0","0","0","80992","","null","","","null","56","","","","","","","","","","","","","","","",""
"","ITI","","html-keyboard-response","372","459483","0.0-1.0-513.0","0","0","80992","","null","","","null","56","","","","","","","","","","","","","","","NaN",""
"","S1","","html-keyboard-response","373","459737","0.0-1.0-515.0","0","0","80992","","null","","","null","57","","","","","","","","","","","","","","","",""
"","ISI","","html-keyboard-response","374","460739","0.0-1.0-516.0","0","0","80992","","null","","","null","57","NaN","","","","","","","","","","","","","","",""
"","S2","","html-keyboard-response","375","460992","0.0-1.0-517.0","0","0","80992","","null","","","null","57","","NaN","","","","","","","","","","","","","",""
"","response","","html-keyboard-response","376","461328","0.0-1.0-518.0-0.0","0","0","80992","","333","","","75","57","","","2","57","training","adjacent","DC","4","3","R.jpg","M.jpg","0","0","1","",""
"","feedback","","html-keyboard-response","377","462341","0.0-1.0-519.0-0.0","0","0","80992","","null","","","null","57","","","","","","","","","","","","","","","",""
"","ITI","","html-keyboard-response","378","463344","0.0-1.0-522.0","0","0","80992","","null","","","null","57","","","","","","","","","","","","","","","NaN",""
"","S1","","html-keyboard-response","379","463599","0.0-1.0-524.0","0","0","80992","","null","","","null","58","","","","","","","","","","","","","","","",""
"","ISI","","html-keyboard-response","380","464602","0.0-1.0-525.0","0","0","80992","","null","","","null","58","NaN","","","","","","","","","","","","","","",""
"","S2","","html-keyboard-response","381","464856","0.0-1.0-526.0","0","0","80992","","null","","","null","58","","NaN","","","","","","","","","","","","","",""
"","response","","html-keyboard-response","382","465285","0.0-1.0-527.0-0.0","0","0","80992","","428","","","75","58","","","2","58","training","adjacent","DE","4","5","R.jpg","Q.jpg","0","1","0","",""
"","feedback","","html-keyboard-response","383","466288","0.0-1.0-528.0-0.0","0","0","80992","","null","","","null","58","","","","","","","","","","","","","","","",""
"","time_out","","html-keyboard-response","384","468291","0.0-1.0-530.0-0.0","0","0","80992","","null","","","null","58","","","","","","","","","","","","","","","",""
"","ITI","","html-keyboard-response","385","469293","0.0-1.0-531.0","0","0","80992","","null","","","null","58","","","","","","","","","","","","","","","NaN",""
"","S1","","html-keyboard-response","386","469546","0.0-1.0-533.0","0","0","80992","","null","","","null","59","","","","","","","","","","","","","","","",""
"","ISI","","html-keyboard-response","387","470550","0.0-1.0-534.0","0","0","80992","","null","","","null","59","NaN","","","","","","","","","","","","","","",""
"","S2","","html-keyboard-response","388","470802","0.0-1.0-535.0","0","0","80992","","null","","","null","59","","NaN","","","","","","","","","","","","","",""
"","response","","html-keyboard-response","389","470910","0.0-1.0-536.0-0.0","0","0","80992","","106","","","68","59","","","2","59","training","adjacent","CD","3","4","M.jpg","R.jpg","1","1","1","",""
"","feedback","","html-keyboard-response","390","471914","0.0-1.0-537.0-0.0","0","0","80992","","null","","","null","59","","","","","","","","","","","","","","","",""
"","ITI","","html-keyboard-response","391","472917","0.0-1.0-540.0","0","0","80992","","null","","","null","59","","","","","","","","","","","","","","","NaN",""
"","S1","","html-keyboard-response","392","473169","0.0-1.0-542.0","0","0","80992","","null","","","null","60","","","","","","","","","","","","","","","",""
"","ISI","","html-keyboard-response","393","474171","0.0-1.0-543.0","0","0","80992","","null","","","null","60","NaN","","","","","","","","","","","","","","",""
"","S2","","html-keyboard-response","394","474423","0.0-1.0-544.0","0","0","80992","","null","","","null","60","","NaN","","","","","","","","","","","","","",""
"","response","","html-keyboard-response","395","475017","0.0-1.0-545.0-0.0","0","0","80992","","593","","","68","60","","","2","60","training","adjacent","EF","5","6","Q.jpg","L.jpg","1","1","1","",""
"","feedback","","html-keyboard-response","396","476034","0.0-1.0-546.0-0.0","0","0","80992","","null","","","null","60","","","","","","","","","","","","","","","",""
"","ITI","","html-keyboard-response","397","477036","0.0-1.0-549.0","0","0","80992","","null","","","null","60","","","","","","","","","","","","","","","NaN",""
"","S1","","html-keyboard-response","398","477288","0.0-1.0-551.0","0","0","80992","","null","","","null","61","","","","","","","","","","","","","","","",""
"","ISI","","html-keyboard-response","399","478290","0.0-1.0-552.0","0","0","80992","","null","","","null","61","NaN","","","","","","","","","","","","","","",""
"","S2","","html-keyboard-response","400","478550","0.0-1.0-553.0","0","0","80992","","null","","","null","61","","NaN","","","","","","","","","","","","","",""
"","response","","html-keyboard-response","401","479109","0.0-1.0-554.0-0.0","0","0","80992","","557","","","75","61","","","2","61","training","adjacent","DC","4","3","R.jpg","M.jpg","0","0","1","",""
"","feedback","","html-keyboard-response","402","480111","0.0-1.0-555.0-0.0","0","0","80992","","null","","","null","61","","","","","","","","","","","","","","","",""
"","ITI","","html-keyboard-response","403","481113","0.0-1.0-558.0","0","0","80992","","null","","","null","61","","","","","","","","","","","","","","","NaN",""
"","S1","","html-keyboard-response","404","481366","0.0-1.0-560.0","0","0","80992","","null","","","null","62","","","","","","","","","","","","","","","",""
"","ISI","","html-keyboard-response","405","482369","0.0-1.0-561.0","0","0","80992","","null","","","null","62","NaN","","","","","","","","","","","","","","",""
"","S2","","html-keyboard-response","406","482621","0.0-1.0-562.0","0","0","80992","","null","","","null","62","","NaN","","","","","","","","","","","","","",""
"","response","","html-keyboard-response","407","482918","0.0-1.0-563.0-0.0","0","0","80992","","296","","","75","62","","","2","62","training","adjacent","BC","2","3","N.jpg","M.jpg","0","1","0","",""
"","feedback","","html-keyboard-response","408","483924","0.0-1.0-564.0-0.0","0","0","80992","","null","","","null","62","","","","","","","","","","","","","","","",""
"","time_out","","html-keyboard-response","409","485928","0.0-1.0-566.0-0.0","0","0","80992","","null","","","null","62","","","","","","","","","","","","","","","",""
"","ITI","","html-keyboard-response","410","486931","0.0-1.0-567.0","0","0","80992","","null","","","null","62","","","","","","","","","","","","","","","NaN",""
"","S1","","html-keyboard-response","411","487192","0.0-1.0-569.0","0","0","80992","","null","","","null","63","","","","","","","","","","","","","","","",""
"","ISI","","html-keyboard-response","412","488207","0.0-1.0-570.0","0","0","80992","","null","","","null","63","NaN","","","","","","","","","","","","","","",""
"","S2","","html-keyboard-response","413","488459","0.0-1.0-571.0","0","0","80992","","null","","","null","63","","NaN","","","","","","","","","","","","","",""
"","response","","html-keyboard-response","414","488690","0.0-1.0-572.0-0.0","0","0","80992","","229","","","68","63","","","2","63","training","adjacent","BA","2","1","N.jpg","P.jpg","1","0","0","",""
"","feedback","","html-keyboard-response","415","489692","0.0-1.0-573.0-0.0","0","0","80992","","null","","","null","63","","","","","","","","","","","","","","","",""
"","time_out","","html-keyboard-response","416","491695","0.0-1.0-575.0-0.0","0","0","80992","","null","","","null","63","","","","","","","","","","","","","","","",""
"","ITI","","html-keyboard-response","417","492697","0.0-1.0-576.0","0","0","80992","","null","","","null","63","","","","","","","","","","","","","","","NaN",""
"","S1","","html-keyboard-response","418","492949","0.0-1.0-578.0","0","0","80992","","null","","","null","64","","","","","","","","","","","","","","","",""
"","ISI","","html-keyboard-response","419","493953","0.0-1.0-579.0","0","0","80992","","null","","","null","64","NaN","","","","","","","","","","","","","","",""
"","S2","","html-keyboard-response","420","494206","0.0-1.0-580.0","0","0","80992","","null","","","null","64","","NaN","","","","","","","","","","","","","",""
"","response","","html-keyboard-response","421","494523","0.0-1.0-581.0-0.0","0","0","80992","","315","","","68","64","","","2","64","training","adjacent","BC","2","3","N.jpg","M.jpg","1","1","1","",""
"","feedback","","html-keyboard-response","422","495525","0.0-1.0-582.0-0.0","0","0","80992","","null","","","null","64","","","","","","","","","","","","","","","",""
"","ITI","","html-keyboard-response","423","496529","0.0-1.0-585.0","0","0","80992","","null","","","null","64","","","","","","","","","","","","","","","NaN",""
"","S1","","html-keyboard-response","424","496782","0.0-1.0-587.0","0","0","80992","","null","","","null","65","","","","","","","","","","","","","","","",""
"","ISI","","html-keyboard-response","425","497784","0.0-1.0-588.0","0","0","80992","","null","","","null","65","NaN","","","","","","","","","","","","","","",""
"","S2","","html-keyboard-response","426","498037","0.0-1.0-589.0","0","0","80992","","null","","","null","65","","NaN","","","","","","","","","","","","","",""
"","response","","html-keyboard-response","427","498359","0.0-1.0-590.0-0.0","0","0","80992","","321","","","75","65","","","2","65","training","adjacent","DC","4","3","R.jpg","M.jpg","0","0","1","",""
"","feedback","","html-keyboard-response","428","499361","0.0-1.0-591.0-0.0","0","0","80992","","null","","","null","65","","","","","","","","","","","","","","","",""
"","ITI","","html-keyboard-response","429","500363","0.0-1.0-594.0","0","0","80992","","null","","","null","65","","","","","","","","","","","","","","","NaN",""
"","S1","","html-keyboard-response","430","500616","0.0-1.0-596.0","0","0","80992","","null","","","null","66","","","","","","","","","","","","","","","",""
"","ISI","","html-keyboard-response","431","501618","0.0-1.0-597.0","0","0","80992","","null","","","null","66","NaN","","","","","","","","","","","","","","",""
"","S2","","html-keyboard-response","432","501870","0.0-1.0-598.0","0","0","80992","","null","","","null","66","","NaN","","","","","","","","","","","","","",""
"","response","","html-keyboard-response","433","502114","0.0-1.0-599.0-0.0","0","0","80992","","242","","","75","66","","","2","66","training","adjacent","FE","6","5","L.jpg","Q.jpg","0","0","1","",""
"","feedback","","html-keyboard-response","434","503116","0.0-1.0-600.0-0.0","0","0","80992","","null","","","null","66","","","","","","","","","","","","","","","",""
"","ITI","","html-keyboard-response","435","504120","0.0-1.0-603.0","0","0","80992","","null","","","null","66","","","","","","","","","","","","","","","NaN",""
"","S1","","html-keyboard-response","436","504372","0.0-1.0-605.0","0","0","80992","","null","","","null","67","","","","","","","","","","","","","","","",""
"","ISI","","html-keyboard-response","437","505374","0.0-1.0-606.0","0","0","80992","","null","","","null","67","NaN","","","","","","","","","","","","","","",""
"","S2","","html-keyboard-response","438","505626","0.0-1.0-607.0","0","0","80992","","null","","","null","67","","NaN","","","","","","","","","","","","","",""
"","response","","html-keyboard-response","439","506000","0.0-1.0-608.0-0.0","0","0","80992","","372","","","75","67","","","2","67","training","adjacent","BA","2","1","N.jpg","P.jpg","0","0","1","",""
"","feedback","","html-keyboard-response","440","507002","0.0-1.0-609.0-0.0","0","0","80992","","null","","","null","67","","","","","","","","","","","","","","","",""
"","ITI","","html-keyboard-response","441","508007","0.0-1.0-612.0","0","0","80992","","null","","","null","67","","","","","","","","","","","","","","","NaN",""
"","S1","","html-keyboard-response","442","508259","0.0-1.0-614.0","0","0","80992","","null","","","null","68","","","","","","","","","","","","","","","",""
"","ISI","","html-keyboard-response","443","509261","0.0-1.0-615.0","0","0","80992","","null","","","null","68","NaN","","","","","","","","","","","","","","",""
"","S2","","html-keyboard-response","444","509513","0.0-1.0-616.0","0","0","80992","","null","","","null","68","","NaN","","","","","","","","","","","","","",""
"","response","","html-keyboard-response","445","509999","0.0-1.0-617.0-0.0","0","0","80992","","484","","","68","68","","","2","68","training","adjacent","DC","4","3","R.jpg","M.jpg","1","0","0","",""
"","feedback","","html-keyboard-response","446","511003","0.0-1.0-618.0-0.0","0","0","80992","","null","","","null","68","","","","","","","","","","","","","","","",""
"","time_out","","html-keyboard-response","447","513006","0.0-1.0-620.0-0.0","0","0","80992","","null","","","null","68","","","","","","","","","","","","","","","",""
"","ITI","","html-keyboard-response","448","514009","0.0-1.0-621.0","0","0","80992","","null","","","null","68","","","","","","","","","","","","","","","NaN",""
"","S1","","html-keyboard-response","449","514265","0.0-1.0-623.0","0","0","80992","","null","","","null","69","","","","","","","","","","","","","","","",""
"","ISI","","html-keyboard-response","450","515267","0.0-1.0-624.0","0","0","80992","","null","","","null","69","NaN","","","","","","","","","","","","","","",""
"","S2","","html-keyboard-response","451","515521","0.0-1.0-625.0","0","0","80992","","null","","","null","69","","NaN","","","","","","","","","","","","","",""
"","response","","html-keyboard-response","452","515559","0.0-1.0-626.0-0.0","0","0","80992","","37","","","75","69","","","2","69","training","adjacent","DE","4","5","R.jpg","Q.jpg","0","1","0","",""
"","feedback","","html-keyboard-response","453","516562","0.0-1.0-627.0-0.0","0","0","80992","","null","","","null","69","","","","","","","","","","","","","","","",""
"","time_out","","html-keyboard-response","454","518564","0.0-1.0-629.0-0.0","0","0","80992","","null","","","null","69","","","","","","","","","","","","","","","",""
"","ITI","","html-keyboard-response","455","519567","0.0-1.0-630.0","0","0","80992","","null","","","null","69","","","","","","","","","","","","","","","NaN",""
"","S1","","html-keyboard-response","456","519821","0.0-1.0-632.0","0","0","80992","","null","","","null","70","","","","","","","","","","","","","","","",""
"","ISI","","html-keyboard-response","457","520840","0.0-1.0-633.0","0","0","80992","","null","","","null","70","NaN","","","","","","","","","","","","","","",""
"","S2","","html-keyboard-response","458","521095","0.0-1.0-634.0","0","0","80992","","null","","","null","70","","NaN","","","","","","","","","","","","","",""
"","response","","html-keyboard-response","459","521386","0.0-1.0-635.0-0.0","0","0","80992","","289","","","68","70","","","2","70","training","adjacent","CD","3","4","M.jpg","R.jpg","1","1","1","",""
"","feedback","","html-keyboard-response","460","522388","0.0-1.0-636.0-0.0","0","0","80992","","null","","","null","70","","","","","","","","","","","","","","","",""
"","ITI","","html-keyboard-response","461","523390","0.0-1.0-639.0","0","0","80992","","null","","","null","70","","","","","","","","","","","","","","","NaN",""
"","S1","","html-keyboard-response","462","523643","0.0-1.0-641.0","0","0","80992","","null","","","null","71","","","","","","","","","","","","","","","",""
"","ISI","","html-keyboard-response","463","524647","0.0-1.0-642.0","0","0","80992","","null","","","null","71","NaN","","","","","","","","","","","","","","",""
"","S2","","html-keyboard-response","464","524899","0.0-1.0-643.0","0","0","80992","","null","","","null","71","","NaN","","","","","","","","","","","","","",""
"","response","","html-keyboard-response","465","524943","0.0-1.0-644.0-0.0","0","0","80992","","42","","","75","71","","","2","71","training","adjacent","BC","2","3","N.jpg","M.jpg","0","1","0","",""
"","feedback","","html-keyboard-response","466","525947","0.0-1.0-645.0-0.0","0","0","80992","","null","","","null","71","","","","","","","","","","","","","","","",""
"","time_out","","html-keyboard-response","467","527950","0.0-1.0-647.0-0.0","0","0","80992","","null","","","null","71","","","","","","","","","","","","","","","",""
"","ITI","","html-keyboard-response","468","528958","0.0-1.0-648.0","0","0","80992","","null","","","null","71","","","","","","","","","","","","","","","NaN",""
"","S1","","html-keyboard-response","469","529210","0.0-1.0-650.0","0","0","80992","","null","","","null","72","","","","","","","","","","","","","","","",""
"","ISI","","html-keyboard-response","470","530213","0.0-1.0-651.0","0","0","80992","","821","","","68","72","d","","","","","","","","","","","","","","",""
"","S2","","html-keyboard-response","471","530466","0.0-1.0-652.0","0","0","80992","","null","","","null","72","","NaN","","","","","","","","","","","","","",""
"","response","","html-keyboard-response","472","530977","0.0-1.0-653.0-0.0","0","0","80992","","509","","","68","72","","","2","72","training","adjacent","FE","6","5","L.jpg","Q.jpg","1","0","0","",""
"","feedback","","html-keyboard-response","473","531980","0.0-1.0-654.0-0.0","0","0","80992","","null","","","null","72","","","","","","","","","","","","","","","",""
"","time_out","","html-keyboard-response","474","533984","0.0-1.0-656.0-0.0","0","0","80992","","null","","","null","72","","","","","","","","","","","","","","","",""
"","ITI","","html-keyboard-response","475","534987","0.0-1.0-657.0","0","0","80992","","null","","","null","72","","","","","","","","","","","","","","","NaN",""
"","S1","","html-keyboard-response","476","535239","0.0-1.0-659.0","0","0","80992","","null","","","null","73","","","","","","","","","","","","","","","",""
"","ISI","","html-keyboard-response","477","536241","0.0-1.0-660.0","0","0","80992","","null","","","null","73","NaN","","","","","","","","","","","","","","",""
"","S2","","html-keyboard-response","478","536494","0.0-1.0-661.0","0","0","80992","","null","","","null","73","","NaN","","","","","","","","","","","","","",""
"","response","","html-keyboard-response","479","536962","0.0-1.0-662.0-0.0","0","0","80992","","467","","","68","73","","","2","73","training","adjacent","AB","1","2","P.jpg","N.jpg","1","1","1","",""
"","feedback","","html-keyboard-response","480","537965","0.0-1.0-663.0-0.0","0","0","80992","","null","","","null","73","","","","","","","","","","","","","","","",""
"","ITI","","html-keyboard-response","481","538967","0.0-1.0-666.0","0","0","80992","","null","","","null","73","","","","","","","","","","","","","","","NaN",""
"","S1","","html-keyboard-response","482","539219","0.0-1.0-668.0","0","0","80992","","null","","","null","74","","","","","","","","","","","","","","","",""
"","ISI","","html-keyboard-response","483","540222","0.0-1.0-669.0","0","0","80992","","null","","","null","74","NaN","","","","","","","","","","","","","","",""
"","S2","","html-keyboard-response","484","540475","0.0-1.0-670.0","0","0","80992","","null","","","null","74","","NaN","","","","","","","","","","","","","",""
"","response","","html-keyboard-response","485","540869","0.0-1.0-671.0-0.0","0","0","80992","","392","","","68","74","","","2","74","training","adjacent","EF","5","6","Q.jpg","L.jpg","1","1","1","",""
"","feedback","","html-keyboard-response","486","541871","0.0-1.0-672.0-0.0","0","0","80992","","null","","","null","74","","","","","","","","","","","","","","","",""
"","ITI","","html-keyboard-response","487","542874","0.0-1.0-675.0","0","0","80992","","null","","","null","74","","","","","","","","","","","","","","","NaN",""
"","S1","","html-keyboard-response","488","543127","0.0-1.0-677.0","0","0","80992","","null","","","null","75","","","","","","","","","","","","","","","",""
"","ISI","","html-keyboard-response","489","544129","0.0-1.0-678.0","0","0","80992","","null","","","null","75","NaN","","","","","","","","","","","","","","",""
"","S2","","html-keyboard-response","490","544382","0.0-1.0-679.0","0","0","80992","","null","","","null","75","","NaN","","","","","","","","","","","","","",""
"","response","","html-keyboard-response","491","544707","0.0-1.0-680.0-0.0","0","0","80992","","323","","","75","75","","","2","75","training","adjacent","BA","2","1","N.jpg","P.jpg","0","0","1","",""
"","feedback","","html-keyboard-response","492","545710","0.0-1.0-681.0-0.0","0","0","80992","","null","","","null","75","","","","","","","","","","","","","","","",""
"","ITI","","html-keyboard-response","493","546712","0.0-1.0-684.0","0","0","80992","","null","","","null","75","","","","","","","","","","","","","","","NaN",""
"","S1","","html-keyboard-response","494","546965","0.0-1.0-686.0","0","0","80992","","null","","","null","76","","","","","","","","","","","","","","","",""
"","ISI","","html-keyboard-response","495","547967","0.0-1.0-687.0","0","0","80992","","null","","","null","76","NaN","","","","","","","","","","","","","","",""
"","S2","","html-keyboard-response","496","548219","0.0-1.0-688.0","0","0","80992","","null","","","null","76","","NaN","","","","","","","","","","","","","",""
"","response","","html-keyboard-response","497","548862","0.0-1.0-689.0-0.0","0","0","80992","","641","","","68","76","","","2","76","training","adjacent","EF","5","6","Q.jpg","L.jpg","1","1","1","",""
"","feedback","","html-keyboard-response","498","549864","0.0-1.0-690.0-0.0","0","0","80992","","null","","","null","76","","","","","","","","","","","","","","","",""
"","ITI","","html-keyboard-response","499","550867","0.0-1.0-693.0","0","0","80992","","null","","","null","76","","","","","","","","","","","","","","","NaN",""
"","S1","","html-keyboard-response","500","551119","0.0-1.0-695.0","0","0","80992","","null","","","null","77","","","","","","","","","","","","","","","",""
"","ISI","","html-keyboard-response","501","552121","0.0-1.0-696.0","0","0","80992","","null","","","null","77","NaN","","","","","","","","","","","","","","",""
"","S2","","html-keyboard-response","502","552374","0.0-1.0-697.0","0","0","80992","","null","","","null","77","","NaN","","","","","","","","","","","","","",""
"","response","","html-keyboard-response","503","552895","0.0-1.0-698.0-0.0","0","0","80992","","519","","","68","77","","","2","77","training","adjacent","FG","6","7","L.jpg","O.jpg","1","1","1","",""
"","feedback","","html-keyboard-response","504","553898","0.0-1.0-699.0-0.0","0","0","80992","","null","","","null","77","","","","","","","","","","","","","","","",""
"","ITI","","html-keyboard-response","505","554901","0.0-1.0-702.0","0","0","80992","","null","","","null","77","","","","","","","","","","","","","","","NaN",""
"","S1","","html-keyboard-response","506","555155","0.0-1.0-704.0","0","0","80992","","null","","","null","78","","","","","","","","","","","","","","","",""
"","ISI","","html-keyboard-response","507","556159","0.0-1.0-705.0","0","0","80992","","null","","","null","78","NaN","","","","","","","","","","","","","","",""
"","S2","","html-keyboard-response","508","556413","0.0-1.0-706.0","0","0","80992","","null","","","null","78","","NaN","","","","","","","","","","","","","",""
"","response","","html-keyboard-response","509","557240","0.0-1.0-707.0-0.0","0","0","80992","","826","","","75","78","","","2","78","training","adjacent","GF","7","6","O.jpg","L.jpg","0","0","1","",""
"","feedback","","html-keyboard-response","510","558243","0.0-1.0-708.0-0.0","0","0","80992","","null","","","null","78","","","","","","","","","","","","","","","",""
"","ITI","","html-keyboard-response","511","559246","0.0-1.0-711.0","0","0","80992","","null","","","null","78","","","","","","","","","","","","","","","NaN",""
"","S1","","html-keyboard-response","512","559498","0.0-1.0-713.0","0","0","80992","","null","","","null","79","","","","","","","","","","","","","","","",""
"","ISI","","html-keyboard-response","513","560501","0.0-1.0-714.0","0","0","80992","","null","","","null","79","NaN","","","","","","","","","","","","","","",""
"","S2","","html-keyboard-response","514","560753","0.0-1.0-715.0","0","0","80992","","null","","","null","79","","NaN","","","","","","","","","","","","","",""
"","response","","html-keyboard-response","515","561218","0.0-1.0-716.0-0.0","0","0","80992","","463","","","68","79","","","2","79","training","adjacent","CB","3","2","M.jpg","N.jpg","1","0","0","",""
"","feedback","","html-keyboard-response","516","562221","0.0-1.0-717.0-0.0","0","0","80992","","null","","","null","79","","","","","","","","","","","","","","","",""
"","time_out","","html-keyboard-response","517","564224","0.0-1.0-719.0-0.0","0","0","80992","","null","","","null","79","","","","","","","","","","","","","","","",""
"","ITI","","html-keyboard-response","518","565226","0.0-1.0-720.0","0","0","80992","","null","","","null","79","","","","","","","","","","","","","","","NaN",""
"","S1","","html-keyboard-response","519","565478","0.0-1.0-722.0","0","0","80992","","null","","","null","80","","","","","","","","","","","","","","","",""
"","ISI","","html-keyboard-response","520","566480","0.0-1.0-723.0","0","0","80992","","null","","","null","80","NaN","","","","","","","","","","","","","","",""
"","S2","","html-keyboard-response","521","566733","0.0-1.0-724.0","0","0","80992","","null","","","null","80","","NaN","","","","","","","","","","","","","",""
"","response","","html-keyboard-response","522","567359","0.0-1.0-725.0-0.0","0","0","80992","","625","","","75","80","","","2","80","training","adjacent","AB","1","2","P.jpg","N.jpg","0","1","0","",""
"","feedback","","html-keyboard-response","523","568362","0.0-1.0-726.0-0.0","0","0","80992","","null","","","null","80","","","","","","","","","","","","","","","",""
"","time_out","","html-keyboard-response","524","570364","0.0-1.0-728.0-0.0","0","0","80992","","null","","","null","80","","","","","","","","","","","","","","","",""
"","ITI","","html-keyboard-response","525","571366","0.0-1.0-729.0","0","0","80992","","null","","","null","80","","","","","","","","","","","","","","","NaN",""
"","S1","","html-keyboard-response","526","571619","0.0-1.0-731.0","0","0","80992","","null","","","null","81","","","","","","","","","","","","","","","",""
"","ISI","","html-keyboard-response","527","572621","0.0-1.0-732.0","0","0","80992","","null","","","null","81","NaN","","","","","","","","","","","","","","",""
"","S2","","html-keyboard-response","528","572874","0.0-1.0-733.0","0","0","80992","","null","","","null","81","","NaN","","","","","","","","","","","","","",""
"","response","","html-keyboard-response","529","573116","0.0-1.0-734.0-0.0","0","0","80992","","239","","","75","81","","","2","81","training","adjacent","CB","3","2","M.jpg","N.jpg","0","0","1","",""
"","feedback","","html-keyboard-response","530","574118","0.0-1.0-735.0-0.0","0","0","80992","","null","","","null","81","","","","","","","","","","","","","","","",""
"","ITI","","html-keyboard-response","531","575120","0.0-1.0-738.0","0","0","80992","","null","","","null","81","","","","","","","","","","","","","","","NaN",""
"","S1","","html-keyboard-response","532","575373","0.0-1.0-740.0","0","0","80992","","null","","","null","82","","","","","","","","","","","","","","","",""
"","ISI","","html-keyboard-response","533","576376","0.0-1.0-741.0","0","0","80992","","null","","","null","82","NaN","","","","","","","","","","","","","","",""
"","S2","","html-keyboard-response","534","576629","0.0-1.0-742.0","0","0","80992","","null","","","null","82","","NaN","","","","","","","","","","","","","",""
"","response","","html-keyboard-response","535","577069","0.0-1.0-743.0-0.0","0","0","80992","","438","","","75","82","","","2","82","training","adjacent","FE","6","5","L.jpg","Q.jpg","0","0","1","",""
"","feedback","","html-keyboard-response","536","578072","0.0-1.0-744.0-0.0","0","0","80992","","null","","","null","82","","","","","","","","","","","","","","","",""
"","ITI","","html-keyboard-response","537","579074","0.0-1.0-747.0","0","0","80992","","null","","","null","82","","","","","","","","","","","","","","","NaN",""
"","S1","","html-keyboard-response","538","579327","0.0-1.0-749.0","0","0","80992","","null","","","null","83","","","","","","","","","","","","","","","",""
"","ISI","","html-keyboard-response","539","580329","0.0-1.0-750.0","0","0","80992","","null","","","null","83","NaN","","","","","","","","","","","","","","",""
"","S2","","html-keyboard-response","540","580581","0.0-1.0-751.0","0","0","80992","","null","","","null","83","","NaN","","","","","","","","","","","","","",""
"","response","","html-keyboard-response","541","581095","0.0-1.0-752.0-0.0","0","0","80992","","512","","","68","83","","","2","83","training","adjacent","FG","6","7","L.jpg","O.jpg","1","1","1","",""
"","feedback","","html-keyboard-response","542","582098","0.0-1.0-753.0-0.0","0","0","80992","","null","","","null","83","","","","","","","","","","","","","","","",""
"","ITI","","html-keyboard-response","543","583101","0.0-1.0-756.0","0","0","80992","","null","","","null","83","","","","","","","","","","","","","","","NaN",""
"","S1","","html-keyboard-response","544","583353","0.0-1.0-758.0","0","0","80992","","null","","","null","84","","","","","","","","","","","","","","","",""
"","ISI","","html-keyboard-response","545","584355","0.0-1.0-759.0","0","0","80992","","null","","","null","84","NaN","","","","","","","","","","","","","","",""
"","S2","","html-keyboard-response","546","584609","0.0-1.0-760.0","0","0","80992","","null","","","null","84","","NaN","","","","","","","","","","","","","",""
"","response","","html-keyboard-response","547","585180","0.0-1.0-761.0-0.0","0","0","80992","","569","","","68","84","","","2","84","training","adjacent","FG","6","7","L.jpg","O.jpg","1","1","1","",""
"","feedback","","html-keyboard-response","548","586184","0.0-1.0-762.0-0.0","0","0","80992","","null","","","null","84","","","","","","","","","","","","","","","",""
"","ITI","","html-keyboard-response","549","587187","0.0-1.0-765.0","0","0","80992","","null","","","null","84","","","","","","","","","","","","","","","NaN",""
"","S1","","html-keyboard-response","550","587441","0.0-1.0-767.0","0","0","80992","","null","","","null","85","","","","","","","","","","","","","","","",""
"","ISI","","html-keyboard-response","551","588443","0.0-1.0-768.0","0","0","80992","","null","","","null","85","NaN","","","","","","","","","","","","","","",""
"","S2","","html-keyboard-response","552","588696","0.0-1.0-769.0","0","0","80992","","null","","","null","85","","NaN","","","","","","","","","","","","","",""
"","response","","html-keyboard-response","553","588989","0.0-1.0-770.0-0.0","0","0","80992","","292","","","75","85","","","2","85","training","adjacent","DE","4","5","R.jpg","Q.jpg","0","1","0","",""
"","feedback","","html-keyboard-response","554","589991","0.0-1.0-771.0-0.0","0","0","80992","","null","","","null","85","","","","","","","","","","","","","","","",""
"","time_out","","html-keyboard-response","555","591994","0.0-1.0-773.0-0.0","0","0","80992","","null","","","null","85","","","","","","","","","","","","","","","",""
"","ITI","","html-keyboard-response","556","592996","0.0-1.0-774.0","0","0","80992","","null","","","null","85","","","","","","","","","","","","","","","NaN",""
"","S1","","html-keyboard-response","557","593249","0.0-1.0-776.0","0","0","80992","","null","","","null","86","","","","","","","","","","","","","","","",""
"","ISI","","html-keyboard-response","558","594250","0.0-1.0-777.0","0","0","80992","","null","","","null","86","NaN","","","","","","","","","","","","","","",""
"","S2","","html-keyboard-response","559","594503","0.0-1.0-778.0","0","0","80992","","null","","","null","86","","NaN","","","","","","","","","","","","","",""
"","response","","html-keyboard-response","560","595072","0.0-1.0-779.0-0.0","0","0","80992","","567","","","75","86","","","2","86","training","adjacent","BC","2","3","N.jpg","M.jpg","0","1","0","",""
"","feedback","","html-keyboard-response","561","596075","0.0-1.0-780.0-0.0","0","0","80992","","null","","","null","86","","","","","","","","","","","","","","","",""
"","time_out","","html-keyboard-response","562","598078","0.0-1.0-782.0-0.0","0","0","80992","","null","","","null","86","","","","","","","","","","","","","","","",""
"","ITI","","html-keyboard-response","563","599081","0.0-1.0-783.0","0","0","80992","","null","","","null","86","","","","","","","","","","","","","","","NaN",""
"","S1","","html-keyboard-response","564","599334","0.0-1.0-785.0","0","0","80992","","null","","","null","87","","","","","","","","","","","","","","","",""
"","ISI","","html-keyboard-response","565","600336","0.0-1.0-786.0","0","0","80992","","null","","","null","87","NaN","","","","","","","","","","","","","","",""
"","S2","","html-keyboard-response","566","600589","0.0-1.0-787.0","0","0","80992","","null","","","null","87","","NaN","","","","","","","","","","","","","",""
"","response","","html-keyboard-response","567","600769","0.0-1.0-788.0-0.0","0","0","80992","","178","","","68","87","","","2","87","training","adjacent","AB","1","2","P.jpg","N.jpg","1","1","1","",""
"","feedback","","html-keyboard-response","568","601771","0.0-1.0-789.0-0.0","0","0","80992","","null","","","null","87","","","","","","","","","","","","","","","",""
"","ITI","","html-keyboard-response","569","602774","0.0-1.0-792.0","0","0","80992","","null","","","null","87","","","","","","","","","","","","","","","NaN",""
"","S1","","html-keyboard-response","570","603026","0.0-1.0-794.0","0","0","80992","","null","","","null","88","","","","","","","","","","","","","","","",""
"","ISI","","html-keyboard-response","571","604028","0.0-1.0-795.0","0","0","80992","","null","","","null","88","NaN","","","","","","","","","","","","","","",""
"","S2","","html-keyboard-response","572","604281","0.0-1.0-796.0","0","0","80992","","null","","","null","88","","NaN","","","","","","","","","","","","","",""
"","response","","html-keyboard-response","573","604527","0.0-1.0-797.0-0.0","0","0","80992","","244","","","75","88","","","2","88","training","adjacent","CB","3","2","M.jpg","N.jpg","0","0","1","",""
"","feedback","","html-keyboard-response","574","605530","0.0-1.0-798.0-0.0","0","0","80992","","null","","","null","88","","","","","","","","","","","","","","","",""
"","ITI","","html-keyboard-response","575","606532","0.0-1.0-801.0","0","0","80992","","null","","","null","88","","","","","","","","","","","","","","","NaN",""
"","S1","","html-keyboard-response","576","606785","0.0-1.0-803.0","0","0","80992","","null","","","null","89","","","","","","","","","","","","","","","",""
"","ISI","","html-keyboard-response","577","607787","0.0-1.0-804.0","0","0","80992","","null","","","null","89","NaN","","","","","","","","","","","","","","",""
"","S2","","html-keyboard-response","578","608039","0.0-1.0-805.0","0","0","80992","","null","","","null","89","","NaN","","","","","","","","","","","","","",""
"","response","","html-keyboard-response","579","608458","0.0-1.0-806.0-0.0","0","0","80992","","417","","","75","89","","","2","89","training","adjacent","ED","5","4","Q.jpg","R.jpg","0","0","1","",""
