"success","ttype","start_time","trial_type","trial_index","time_elapsed","internal_node_id","warning","missed_checkup","PID","view_history","rt","responses","repeat_instructions","key_press","index","keypress_isi","keypress_S2","block","trial_num","phase","group_type","pair_type","S1_stim","S2_stim","S1_img","S2_img","S1_chosen","S1_higher","accuracy","keypress_iti","total_bonus_tally"
"true","full_screen","d03072023hr1745","fullscreen","0","8572","0.0-0.0","0","0","47542","","","","","","","","","","","","","","","","","","","","","",""
"","instructions","","instructions","1","215505","0.0-1.0-0.0-0.0","0","0","47542","[{""page_index"":0,""viewing_time"":7774},{""page_index"":1,""viewing_time"":171894},{""page_index"":2,""viewing_time"":10142},{""page_index"":1,""viewing_time"":10698},{""page_index"":0,""viewing_time"":2090},{""page_index"":1,""viewing_time"":544},{""page_index"":2,""viewing_time"":1682},{""page_index"":3,""viewing_time"":2107}]","206932","","","","","","","","","","","","","","","","","","","",""
"","comprehension_check","","survey-multi-choice","2","234129","0.0-1.0-0.0-1.0","0","0","47542","","18620","{""Q0"":""True"",""Q1"":""D"",""Q2"":""Once the second image appears and while the screen 'MAKE A CHOICE' is shown"",""Q3"":""Green mark"",""Q4"":""either D or K""}","0","","","","","","","","","","","","","","","","","",""
"","start_exp","","html-keyboard-response","3","237508","0.0-1.0-1.0","0","0","47542","","3374","","","32","","","","","","","","","","","","","","","","",""
"","S1","","html-keyboard-response","4","237760","0.0-1.0-2.0","0","0","47542","","null","","","null","0","","","","","","","","","","","","","","","",""
"","ISI","","html-keyboard-response","5","238762","0.0-1.0-3.0","0","0","47542","","null","","","null","0","NaN","","","","","","","","","","","","","","",""
"","S2","","html-keyboard-response","6","239015","0.0-1.0-4.0","0","0","47542","","null","","","null","0","","NaN","","","","","","","","","","","","","",""
"","response","","html-keyboard-response","7","239620","0.0-1.0-5.0-0.0","0","0","47542","","602","","","68","0","","","1","0","training","adjacent","FE","6","5","Q.jpg","M.jpg","1","0","0","",""
"","feedback","","html-keyboard-response","8","240623","0.0-1.0-6.0-0.0","0","0","47542","","null","","","null","0","","","","","","","","","","","","","","","",""
"","time_out","","html-keyboard-response","9","242625","0.0-1.0-8.0-0.0","0","0","47542","","null","","","null","0","","","","","","","","","","","","","","","",""
"","ITI","","html-keyboard-response","10","243627","0.0-1.0-9.0","0","0","47542","","null","","","null","0","","","","","","","","","","","","","","","NaN",""
"","S1","","html-keyboard-response","11","243879","0.0-1.0-11.0","0","0","47542","","null","","","null","1","","","","","","","","","","","","","","","",""
"","ISI","","html-keyboard-response","12","244881","0.0-1.0-12.0","0","0","47542","","null","","","null","1","NaN","","","","","","","","","","","","","","",""
"","S2","","html-keyboard-response","13","245133","0.0-1.0-13.0","0","0","47542","","null","","","null","1","","NaN","","","","","","","","","","","","","",""
"","response","","html-keyboard-response","14","245603","0.0-1.0-14.0-0.0","0","0","47542","","469","","","68","1","","","1","1","training","adjacent","DC","4","3","L.jpg","R.jpg","1","0","0","",""
"","feedback","","html-keyboard-response","15","246605","0.0-1.0-15.0-0.0","0","0","47542","","null","","","null","1","","","","","","","","","","","","","","","",""
"","time_out","","html-keyboard-response","16","248607","0.0-1.0-17.0-0.0","0","0","47542","","null","","","null","1","","","","","","","","","","","","","","","",""
"","ITI","","html-keyboard-response","17","249609","0.0-1.0-18.0","0","0","47542","","null","","","null","1","","","","","","","","","","","","","","","NaN",""
"","S1","","html-keyboard-response","18","249861","0.0-1.0-20.0","0","0","47542","","null","","","null","2","","","","","","","","","","","","","","","",""
"","ISI","","html-keyboard-response","19","250863","0.0-1.0-21.0","0","0","47542","","null","","","null","2","NaN","","","","","","","","","","","","","","",""
"","S2","","html-keyboard-response","20","251114","0.0-1.0-22.0","0","0","47542","","null","","","null","2","","NaN","","","","","","","","","","","","","",""
"","response","","html-keyboard-response","21","251467","0.0-1.0-23.0-0.0","0","0","47542","","351","","","75","2","","","1","2","training","adjacent","BC","2","3","P.jpg","R.jpg","0","1","0","",""
"","feedback","","html-keyboard-response","22","252469","0.0-1.0-24.0-0.0","0","0","47542","","null","","","null","2","","","","","","","","","","","","","","","",""
"","time_out","","html-keyboard-response","23","254471","0.0-1.0-26.0-0.0","0","0","47542","","null","","","null","2","","","","","","","","","","","","","","","",""
"","ITI","","html-keyboard-response","24","255473","0.0-1.0-27.0","0","0","47542","","null","","","null","2","","","","","","","","","","","","","","","NaN",""
"","S1","","html-keyboard-response","25","255725","0.0-1.0-29.0","0","0","47542","","null","","","null","3","","","","","","","","","","","","","","","",""
"","ISI","","html-keyboard-response","26","256727","0.0-1.0-30.0","0","0","47542","","null","","","null","3","NaN","","","","","","","","","","","","","","",""
"","S2","","html-keyboard-response","27","256980","0.0-1.0-31.0","0","0","47542","","null","","","null","3","","NaN","","","","","","","","","","","","","",""
"","response","","html-keyboard-response","28","257220","0.0-1.0-32.0-0.0","0","0","47542","","238","","","75","3","","","1","3","training","adjacent","ED","5","4","M.jpg","L.jpg","0","0","1","",""
"","feedback","","html-keyboard-response","29","258222","0.0-1.0-33.0-0.0","0","0","47542","","null","","","null","3","","","","","","","","","","","","","","","",""
"","ITI","","html-keyboard-response","30","259225","0.0-1.0-36.0","0","0","47542","","null","","","null","3","","","","","","","","","","","","","","","NaN",""
"","S1","","html-keyboard-response","31","259483","0.0-1.0-38.0","0","0","47542","","null","","","null","4","","","","","","","","","","","","","","","",""
"","ISI","","html-keyboard-response","32","260485","0.0-1.0-39.0","0","0","47542","","null","","","null","4","NaN","","","","","","","","","","","","","","",""
"","S2","","html-keyboard-response","33","260738","0.0-1.0-40.0","0","0","47542","","null","","","null","4","","NaN","","","","","","","","","","","","","",""
"","response","","html-keyboard-response","34","261067","0.0-1.0-41.0-0.0","0","0","47542","","328","","","75","4","","","1","4","training","adjacent","FE","6","5","Q.jpg","M.jpg","0","0","1","",""
"","feedback","","html-keyboard-response","35","262069","0.0-1.0-42.0-0.0","0","0","47542","","null","","","null","4","","","","","","","","","","","","","","","",""
"","ITI","","html-keyboard-response","36","263071","0.0-1.0-45.0","0","0","47542","","null","","","null","4","","","","","","","","","","","","","","","NaN",""
"","S1","","html-keyboard-response","37","263324","0.0-1.0-47.0","0","0","47542","","null","","","null","5","","","","","","","","","","","","","","","",""
"","ISI","","html-keyboard-response","38","264326","0.0-1.0-48.0","0","0","47542","","null","","","null","5","NaN","","","","","","","","","","","","","","",""
"","S2","","html-keyboard-response","39","264578","0.0-1.0-49.0","0","0","47542","","null","","","null","5","","NaN","","","","","","","","","","","","","",""
"","response","","html-keyboard-response","40","264891","0.0-1.0-50.0-0.0","0","0","47542","","310","","","68","5","","","1","5","training","adjacent","DC","4","3","L.jpg","R.jpg","1","0","0","",""
"","feedback","","html-keyboard-response","41","265893","0.0-1.0-51.0-0.0","0","0","47542","","null","","","null","5","","","","","","","","","","","","","","","",""
"","time_out","","html-keyboard-response","42","267895","0.0-1.0-53.0-0.0","0","0","47542","","null","","","null","5","","","","","","","","","","","","","","","",""
"","ITI","","html-keyboard-response","43","268897","0.0-1.0-54.0","0","0","47542","","null","","","null","5","","","","","","","","","","","","","","","NaN",""
"","S1","","html-keyboard-response","44","269149","0.0-1.0-56.0","0","0","47542","","null","","","null","6","","","","","","","","","","","","","","","",""
"","ISI","","html-keyboard-response","45","270151","0.0-1.0-57.0","0","0","47542","","null","","","null","6","NaN","","","","","","","","","","","","","","",""
"","S2","","html-keyboard-response","46","270403","0.0-1.0-58.0","0","0","47542","","null","","","null","6","","NaN","","","","","","","","","","","","","",""
"","response","","html-keyboard-response","47","270955","0.0-1.0-59.0-0.0","0","0","47542","","551","","","68","6","","","1","6","training","adjacent","FG","6","7","Q.jpg","N.jpg","1","1","1","",""
"","feedback","","html-keyboard-response","48","271958","0.0-1.0-60.0-0.0","0","0","47542","","null","","","null","6","","","","","","","","","","","","","","","",""
"","ITI","","html-keyboard-response","49","272960","0.0-1.0-63.0","0","0","47542","","null","","","null","6","","","","","","","","","","","","","","","NaN",""
"","S1","","html-keyboard-response","50","273211","0.0-1.0-65.0","0","0","47542","","null","","","null","7","","","","","","","","","","","","","","","",""
"","ISI","","html-keyboard-response","51","274213","0.0-1.0-66.0","0","0","47542","","null","","","null","7","NaN","","","","","","","","","","","","","","",""
"","S2","","html-keyboard-response","52","274465","0.0-1.0-67.0","0","0","47542","","null","","","null","7","","NaN","","","","","","","","","","","","","",""
"","response","","html-keyboard-response","53","275083","0.0-1.0-68.0-0.0","0","0","47542","","617","","","68","7","","","1","7","training","adjacent","FG","6","7","Q.jpg","N.jpg","1","1","1","",""
"","feedback","","html-keyboard-response","54","276086","0.0-1.0-69.0-0.0","0","0","47542","","null","","","null","7","","","","","","","","","","","","","","","",""
"","ITI","","html-keyboard-response","55","277087","0.0-1.0-72.0","0","0","47542","","null","","","null","7","","","","","","","","","","","","","","","NaN",""
"","S1","","html-keyboard-response","56","277340","0.0-1.0-74.0","0","0","47542","","null","","","null","8","","","","","","","","","","","","","","","",""
"","ISI","","html-keyboard-response","57","278342","0.0-1.0-75.0","0","0","47542","","null","","","null","8","NaN","","","","","","","","","","","","","","",""
"","S2","","html-keyboard-response","58","278595","0.0-1.0-76.0","0","0","47542","","null","","","null","8","","NaN","","","","","","","","","","","","","",""
"","response","","html-keyboard-response","59","279227","0.0-1.0-77.0-0.0","0","0","47542","","630","","","68","8","","","1","8","training","adjacent","AB","1","2","O.jpg","P.jpg","1","1","1","",""
"","feedback","","html-keyboard-response","60","280240","0.0-1.0-78.0-0.0","0","0","47542","","null","","","null","8","","","","","","","","","","","","","","","",""
"","ITI","","html-keyboard-response","61","281243","0.0-1.0-81.0","0","0","47542","","null","","","null","8","","","","","","","","","","","","","","","NaN",""
"","S1","","html-keyboard-response","62","281495","0.0-1.0-83.0","0","0","47542","","null","","","null","9","","","","","","","","","","","","","","","",""
"","ISI","","html-keyboard-response","63","282497","0.0-1.0-84.0","0","0","47542","","null","","","null","9","NaN","","","","","","","","","","","","","","",""
"","S2","","html-keyboard-response","64","282749","0.0-1.0-85.0","0","0","47542","","null","","","null","9","","NaN","","","","","","","","","","","","","",""
"","response","","html-keyboard-response","65","283395","0.0-1.0-86.0-0.0","0","0","47542","","645","","","68","9","","","1","9","training","adjacent","DC","4","3","L.jpg","R.jpg","1","0","0","",""
"","feedback","","html-keyboard-response","66","284396","0.0-1.0-87.0-0.0","0","0","47542","","null","","","null","9","","","","","","","","","","","","","","","",""
"","time_out","","html-keyboard-response","67","286398","0.0-1.0-89.0-0.0","0","0","47542","","null","","","null","9","","","","","","","","","","","","","","","",""
"","ITI","","html-keyboard-response","68","287401","0.0-1.0-90.0","0","0","47542","","null","","","null","9","","","","","","","","","","","","","","","NaN",""
"","S1","","html-keyboard-response","69","287654","0.0-1.0-92.0","0","0","47542","","null","","","null","10","","","","","","","","","","","","","","","",""
"","ISI","","html-keyboard-response","70","288656","0.0-1.0-93.0","0","0","47542","","null","","","null","10","NaN","","","","","","","","","","","","","","",""
"","S2","","html-keyboard-response","71","288909","0.0-1.0-94.0","0","0","47542","","null","","","null","10","","NaN","","","","","","","","","","","","","",""
"","response","","html-keyboard-response","72","289659","0.0-1.0-95.0-0.0","0","0","47542","","748","","","75","10","","","1","10","training","adjacent","FG","6","7","Q.jpg","N.jpg","0","1","0","",""
"","feedback","","html-keyboard-response","73","290661","0.0-1.0-96.0-0.0","0","0","47542","","null","","","null","10","","","","","","","","","","","","","","","",""
"","time_out","","html-keyboard-response","74","292663","0.0-1.0-98.0-0.0","0","0","47542","","null","","","null","10","","","","","","","","","","","","","","","",""
"","ITI","","html-keyboard-response","75","293665","0.0-1.0-99.0","0","0","47542","","null","","","null","10","","","","","","","","","","","","","","","NaN",""
"","S1","","html-keyboard-response","76","293916","0.0-1.0-101.0","0","0","47542","","null","","","null","11","","","","","","","","","","","","","","","",""
"","ISI","","html-keyboard-response","77","294918","0.0-1.0-102.0","0","0","47542","","null","","","null","11","NaN","","","","","","","","","","","","","","",""
"","S2","","html-keyboard-response","78","295170","0.0-1.0-103.0","0","0","47542","","null","","","null","11","","NaN","","","","","","","","","","","","","",""
"","response","","html-keyboard-response","79","295483","0.0-1.0-104.0-0.0","0","0","47542","","312","","","68","11","","","1","11","training","adjacent","DE","4","5","L.jpg","M.jpg","1","1","1","",""
"","feedback","","html-keyboard-response","80","296485","0.0-1.0-105.0-0.0","0","0","47542","","null","","","null","11","","","","","","","","","","","","","","","",""
"","ITI","","html-keyboard-response","81","297488","0.0-1.0-108.0","0","0","47542","","null","","","null","11","","","","","","","","","","","","","","","NaN",""
"","S1","","html-keyboard-response","82","297739","0.0-1.0-110.0","0","0","47542","","null","","","null","12","","","","","","","","","","","","","","","",""
"","ISI","","html-keyboard-response","83","298741","0.0-1.0-111.0","0","0","47542","","null","","","null","12","NaN","","","","","","","","","","","","","","",""
"","S2","","html-keyboard-response","84","298993","0.0-1.0-112.0","0","0","47542","","null","","","null","12","","NaN","","","","","","","","","","","","","",""
"","response","","html-keyboard-response","85","299275","0.0-1.0-113.0-0.0","0","0","47542","","280","","","68","12","","","1","12","training","adjacent","DE","4","5","L.jpg","M.jpg","1","1","1","",""
"","feedback","","html-keyboard-response","86","300278","0.0-1.0-114.0-0.0","0","0","47542","","null","","","null","12","","","","","","","","","","","","","","","",""
"","ITI","","html-keyboard-response","87","301280","0.0-1.0-117.0","0","0","47542","","null","","","null","12","","","","","","","","","","","","","","","NaN",""
"","S1","","html-keyboard-response","88","301533","0.0-1.0-119.0","0","0","47542","","null","","","null","13","","","","","","","","","","","","","","","",""
"","ISI","","html-keyboard-response","89","302535","0.0-1.0-120.0","0","0","47542","","null","","","null","13","NaN","","","","","","","","","","","","","","",""
"","S2","","html-keyboard-response","90","302788","0.0-1.0-121.0","0","0","47542","","null","","","null","13","","NaN","","","","","","","","","","","","","",""
"","response","","html-keyboard-response","91","303459","0.0-1.0-122.0-0.0","0","0","47542","","669","","","75","13","","","1","13","training","adjacent","EF","5","6","M.jpg","Q.jpg","0","1","0","",""
"","feedback","","html-keyboard-response","92","304461","0.0-1.0-123.0-0.0","0","0","47542","","null","","","null","13","","","","","","","","","","","","","","","",""
"","time_out","","html-keyboard-response","93","306463","0.0-1.0-125.0-0.0","0","0","47542","","null","","","null","13","","","","","","","","","","","","","","","",""
"","ITI","","html-keyboard-response","94","307466","0.0-1.0-126.0","0","0","47542","","null","","","null","13","","","","","","","","","","","","","","","NaN",""
"","S1","","html-keyboard-response","95","307717","0.0-1.0-128.0","0","0","47542","","null","","","null","14","","","","","","","","","","","","","","","",""
"","ISI","","html-keyboard-response","96","308719","0.0-1.0-129.0","0","0","47542","","null","","","null","14","NaN","","","","","","","","","","","","","","",""
"","S2","","html-keyboard-response","97","308971","0.0-1.0-130.0","0","0","47542","","null","","","null","14","","NaN","","","","","","","","","","","","","",""
"","response","","html-keyboard-response","98","309691","0.0-1.0-131.0-0.0","0","0","47542","","719","","","68","14","","","1","14","training","adjacent","EF","5","6","M.jpg","Q.jpg","1","1","1","",""
"","feedback","","html-keyboard-response","99","310694","0.0-1.0-132.0-0.0","0","0","47542","","null","","","null","14","","","","","","","","","","","","","","","",""
"","ITI","","html-keyboard-response","100","311695","0.0-1.0-135.0","0","0","47542","","null","","","null","14","","","","","","","","","","","","","","","NaN",""
"","S1","","html-keyboard-response","101","311948","0.0-1.0-137.0","0","0","47542","","null","","","null","15","","","","","","","","","","","","","","","",""
"","ISI","","html-keyboard-response","102","312950","0.0-1.0-138.0","0","0","47542","","null","","","null","15","NaN","","","","","","","","","","","","","","",""
"","S2","","html-keyboard-response","103","313202","0.0-1.0-139.0","0","0","47542","","null","","","null","15","","NaN","","","","","","","","","","","","","",""
"","response","","html-keyboard-response","104","313499","0.0-1.0-140.0-0.0","0","0","47542","","296","","","68","15","","","1","15","training","adjacent","EF","5","6","M.jpg","Q.jpg","1","1","1","",""
"","feedback","","html-keyboard-response","105","314501","0.0-1.0-141.0-0.0","0","0","47542","","null","","","null","15","","","","","","","","","","","","","","","",""
"","ITI","","html-keyboard-response","106","315503","0.0-1.0-144.0","0","0","47542","","null","","","null","15","","","","","","","","","","","","","","","NaN",""
"","S1","","html-keyboard-response","107","315754","0.0-1.0-146.0","0","0","47542","","null","","","null","16","","","","","","","","","","","","","","","",""
"","ISI","","html-keyboard-response","108","316756","0.0-1.0-147.0","0","0","47542","","null","","","null","16","NaN","","","","","","","","","","","","","","",""
"","S2","","html-keyboard-response","109","317009","0.0-1.0-148.0","0","0","47542","","null","","","null","16","","NaN","","","","","","","","","","","","","",""
"","response","","html-keyboard-response","110","317259","0.0-1.0-149.0-0.0","0","0","47542","","249","","","75","16","","","1","16","training","adjacent","CB","3","2","R.jpg","P.jpg","0","0","1","",""
"","feedback","","html-keyboard-response","111","318261","0.0-1.0-150.0-0.0","0","0","47542","","null","","","null","16","","","","","","","","","","","","","","","",""
"","ITI","","html-keyboard-response","112","319263","0.0-1.0-153.0","0","0","47542","","null","","","null","16","","","","","","","","","","","","","","","NaN",""
"","S1","","html-keyboard-response","113","319515","0.0-1.0-155.0","0","0","47542","","null","","","null","17","","","","","","","","","","","","","","","",""
"","ISI","","html-keyboard-response","114","320517","0.0-1.0-156.0","0","0","47542","","null","","","null","17","NaN","","","","","","","","","","","","","","",""
"","S2","","html-keyboard-response","115","320768","0.0-1.0-157.0","0","0","47542","","null","","","null","17","","NaN","","","","","","","","","","","","","",""
"","response","","html-keyboard-response","116","321283","0.0-1.0-158.0-0.0","0","0","47542","","513","","","75","17","","","1","17","training","adjacent","BA","2","1","P.jpg","O.jpg","0","0","1","",""
"","feedback","","html-keyboard-response","117","322286","0.0-1.0-159.0-0.0","0","0","47542","","null","","","null","17","","","","","","","","","","","","","","","",""
"","ITI","","html-keyboard-response","118","323289","0.0-1.0-162.0","0","0","47542","","null","","","null","17","","","","","","","","","","","","","","","NaN",""
"","S1","","html-keyboard-response","119","323542","0.0-1.0-164.0","0","0","47542","","null","","","null","18","","","","","","","","","","","","","","","",""
"","ISI","","html-keyboard-response","120","324543","0.0-1.0-165.0","0","0","47542","","null","","","null","18","NaN","","","","","","","","","","","","","","",""
"","S2","","html-keyboard-response","121","324795","0.0-1.0-166.0","0","0","47542","","null","","","null","18","","NaN","","","","","","","","","","","","","",""
"","response","","html-keyboard-response","122","325603","0.0-1.0-167.0-0.0","0","0","47542","","807","","","75","18","","","1","18","training","adjacent","CD","3","4","R.jpg","L.jpg","0","1","0","",""
"","feedback","","html-keyboard-response","123","326606","0.0-1.0-168.0-0.0","0","0","47542","","null","","","null","18","","","","","","","","","","","","","","","",""
"","time_out","","html-keyboard-response","124","328607","0.0-1.0-170.0-0.0","0","0","47542","","null","","","null","18","","","","","","","","","","","","","","","",""
"","ITI","","html-keyboard-response","125","329609","0.0-1.0-171.0","0","0","47542","","null","","","null","18","","","","","","","","","","","","","","","NaN",""
"","S1","","html-keyboard-response","126","329861","0.0-1.0-173.0","0","0","47542","","null","","","null","19","","","","","","","","","","","","","","","",""
"","ISI","","html-keyboard-response","127","330862","0.0-1.0-174.0","0","0","47542","","null","","","null","19","NaN","","","","","","","","","","","","","","",""
"","S2","","html-keyboard-response","128","331115","0.0-1.0-175.0","0","0","47542","","null","","","null","19","","NaN","","","","","","","","","","","","","",""
"","response","","html-keyboard-response","129","331955","0.0-1.0-176.0-0.0","0","0","47542","","839","","","75","19","","","1","19","training","adjacent","GF","7","6","N.jpg","Q.jpg","0","0","1","",""
"","feedback","","html-keyboard-response","130","332958","0.0-1.0-177.0-0.0","0","0","47542","","null","","","null","19","","","","","","","","","","","","","","","",""
"","ITI","","html-keyboard-response","131","333959","0.0-1.0-180.0","0","0","47542","","null","","","null","19","","","","","","","","","","","","","","","NaN",""
"","S1","","html-keyboard-response","132","334212","0.0-1.0-182.0","0","0","47542","","null","","","null","20","","","","","","","","","","","","","","","",""
"","ISI","","html-keyboard-response","133","335214","0.0-1.0-183.0","0","0","47542","","null","","","null","20","NaN","","","","","","","","","","","","","","",""
"","S2","","html-keyboard-response","134","335468","0.0-1.0-184.0","0","0","47542","","null","","","null","20","","NaN","","","","","","","","","","","","","",""
"","response","","html-keyboard-response","135","335755","0.0-1.0-185.0-0.0","0","0","47542","","286","","","75","20","","","1","20","training","adjacent","AB","1","2","O.jpg","P.jpg","0","1","0","",""
"","feedback","","html-keyboard-response","136","336757","0.0-1.0-186.0-0.0","0","0","47542","","null","","","null","20","","","","","","","","","","","","","","","",""
"","time_out","","html-keyboard-response","137","338759","0.0-1.0-188.0-0.0","0","0","47542","","null","","","null","20","","","","","","","","","","","","","","","",""
"","ITI","","html-keyboard-response","138","339761","0.0-1.0-189.0","0","0","47542","","null","","","null","20","","","","","","","","","","","","","","","NaN",""
"","S1","","html-keyboard-response","139","340013","0.0-1.0-191.0","0","0","47542","","null","","","null","21","","","","","","","","","","","","","","","",""
"","ISI","","html-keyboard-response","140","341015","0.0-1.0-192.0","0","0","47542","","null","","","null","21","NaN","","","","","","","","","","","","","","",""
"","S2","","html-keyboard-response","141","341267","0.0-1.0-193.0","0","0","47542","","null","","","null","21","","NaN","","","","","","","","","","","","","",""
"","response","","html-keyboard-response","142","341515","0.0-1.0-194.0-0.0","0","0","47542","","247","","","68","21","","","1","21","training","adjacent","AB","1","2","O.jpg","P.jpg","1","1","1","",""
"","feedback","","html-keyboard-response","143","342518","0.0-1.0-195.0-0.0","0","0","47542","","null","","","null","21","","","","","","","","","","","","","","","",""
"","ITI","","html-keyboard-response","144","343520","0.0-1.0-198.0","0","0","47542","","null","","","null","21","","","","","","","","","","","","","","","NaN",""
"","S1","","html-keyboard-response","145","343773","0.0-1.0-200.0","0","0","47542","","null","","","null","22","","","","","","","","","","","","","","","",""
"","ISI","","html-keyboard-response","146","344774","0.0-1.0-201.0","0","0","47542","","null","","","null","22","NaN","","","","","","","","","","","","","","",""
"","S2","","html-keyboard-response","147","345026","0.0-1.0-202.0","0","0","47542","","null","","","null","22","","NaN","","","","","","","","","","","","","",""
"","response","","html-keyboard-response","148","345163","0.0-1.0-203.0-0.0","0","0","47542","","136","","","75","22","","","1","22","training","adjacent","GF","7","6","N.jpg","Q.jpg","0","0","1","",""
"","feedback","","html-keyboard-response","149","346165","0.0-1.0-204.0-0.0","0","0","47542","","null","","","null","22","","","","","","","","","","","","","","","",""
"","ITI","","html-keyboard-response","150","347168","0.0-1.0-207.0","0","0","47542","","null","","","null","22","","","","","","","","","","","","","","","NaN",""
"","S1","","html-keyboard-response","151","347420","0.0-1.0-209.0","0","0","47542","","null","","","null","23","","","","","","","","","","","","","","","",""
"","ISI","","html-keyboard-response","152","348422","0.0-1.0-210.0","0","0","47542","","null","","","null","23","NaN","","","","","","","","","","","","","","",""
"","S2","","html-keyboard-response","153","348674","0.0-1.0-211.0","0","0","47542","","null","","","null","23","","NaN","","","","","","","","","","","","","",""
"","response","","html-keyboard-response","154","348931","0.0-1.0-212.0-0.0","0","0","47542","","255","","","68","23","","","1","23","training","adjacent","BC","2","3","P.jpg","R.jpg","1","1","1","",""
"","feedback","","html-keyboard-response","155","349933","0.0-1.0-213.0-0.0","0","0","47542","","null","","","null","23","","","","","","","","","","","","","","","",""
"","ITI","","html-keyboard-response","156","350935","0.0-1.0-216.0","0","0","47542","","null","","","null","23","","","","","","","","","","","","","","","NaN",""
"","S1","","html-keyboard-response","157","351187","0.0-1.0-218.0","0","0","47542","","null","","","null","24","","","","","","","","","","","","","","","",""
"","ISI","","html-keyboard-response","158","352189","0.0-1.0-219.0","0","0","47542","","null","","","null","24","NaN","","","","","","","","","","","","","","",""
"","S2","","html-keyboard-response","159","352441","0.0-1.0-220.0","0","0","47542","","null","","","null","24","","NaN","","","","","","","","","","","","","",""
"","response","","html-keyboard-response","160","352531","0.0-1.0-221.0-0.0","0","0","47542","","88","","","75","24","","","1","24","training","adjacent","ED","5","4","M.jpg","L.jpg","0","0","1","",""
"","feedback","","html-keyboard-response","161","353534","0.0-1.0-222.0-0.0","0","0","47542","","null","","","null","24","","","","","","","","","","","","","","","",""
"","ITI","","html-keyboard-response","162","354536","0.0-1.0-225.0","0","0","47542","","null","","","null","24","","","","","","","","","","","","","","","NaN",""
"","S1","","html-keyboard-response","163","354789","0.0-1.0-227.0","0","0","47542","","null","","","null","25","","","","","","","","","","","","","","","",""
"","ISI","","html-keyboard-response","164","355790","0.0-1.0-228.0","0","0","47542","","null","","","null","25","NaN","","","","","","","","","","","","","","",""
"","S2","","html-keyboard-response","165","356042","0.0-1.0-229.0","0","0","47542","","null","","","null","25","","NaN","","","","","","","","","","","","","",""
"","response","","html-keyboard-response","166","356091","0.0-1.0-230.0-0.0","0","0","47542","","48","","","75","25","","","1","25","training","adjacent","CD","3","4","R.jpg","L.jpg","0","1","0","",""
"","feedback","","html-keyboard-response","167","357094","0.0-1.0-231.0-0.0","0","0","47542","","null","","","null","25","","","","","","","","","","","","","","","",""
"","time_out","","html-keyboard-response","168","359095","0.0-1.0-233.0-0.0","0","0","47542","","null","","","null","25","","","","","","","","","","","","","","","",""
"","ITI","","html-keyboard-response","169","360098","0.0-1.0-234.0","0","0","47542","","null","","","null","25","","","","","","","","","","","","","","","NaN",""
"","S1","","html-keyboard-response","170","360350","0.0-1.0-236.0","0","0","47542","","null","","","null","26","","","","","","","","","","","","","","","",""
"","ISI","","html-keyboard-response","171","361351","0.0-1.0-237.0","0","0","47542","","null","","","null","26","NaN","","","","","","","","","","","","","","",""
"","S2","","html-keyboard-response","172","361603","0.0-1.0-238.0","0","0","47542","","null","","","null","26","","NaN","","","","","","","","","","","","","",""
"","response","","html-keyboard-response","173","362595","0.0-1.0-239.0-0.0","0","0","47542","","990","","","75","26","","","1","26","training","adjacent","CB","3","2","R.jpg","P.jpg","0","0","1","",""
"","feedback","","html-keyboard-response","174","363599","0.0-1.0-240.0-0.0","0","0","47542","","null","","","null","26","","","","","","","","","","","","","","","",""
"","ITI","","html-keyboard-response","175","364601","0.0-1.0-243.0","0","0","47542","","null","","","null","26","","","","","","","","","","","","","","","NaN",""
"","S1","","html-keyboard-response","176","364854","0.0-1.0-245.0","0","0","47542","","null","","","null","27","","","","","","","","","","","","","","","",""
"","ISI","","html-keyboard-response","177","365856","0.0-1.0-246.0","0","0","47542","","null","","","null","27","NaN","","","","","","","","","","","","","","",""
"","S2","","html-keyboard-response","178","366108","0.0-1.0-247.0","0","0","47542","","null","","","null","27","","NaN","","","","","","","","","","","","","",""
"","response","","html-keyboard-response","179","366483","0.0-1.0-248.0-0.0","0","0","47542","","372","","","75","27","","","1","27","training","adjacent","CB","3","2","R.jpg","P.jpg","0","0","1","",""
"","feedback","","html-keyboard-response","180","367485","0.0-1.0-249.0-0.0","0","0","47542","","null","","","null","27","","","","","","","","","","","","","","","",""
"","ITI","","html-keyboard-response","181","368488","0.0-1.0-252.0","0","0","47542","","null","","","null","27","","","","","","","","","","","","","","","NaN",""
"","S1","","html-keyboard-response","182","368739","0.0-1.0-254.0","0","0","47542","","null","","","null","28","","","","","","","","","","","","","","","",""
"","ISI","","html-keyboard-response","183","369742","0.0-1.0-255.0","0","0","47542","","null","","","null","28","NaN","","","","","","","","","","","","","","",""
"","S2","","html-keyboard-response","184","369994","0.0-1.0-256.0","0","0","47542","","null","","","null","28","","NaN","","","","","","","","","","","","","",""
"","response","","html-keyboard-response","185","370922","0.0-1.0-257.0-0.0","0","0","47542","","927","","","68","28","","","1","28","training","adjacent","FE","6","5","Q.jpg","M.jpg","1","0","0","",""
"","feedback","","html-keyboard-response","186","371925","0.0-1.0-258.0-0.0","0","0","47542","","null","","","null","28","","","","","","","","","","","","","","","",""
"","time_out","","html-keyboard-response","187","373927","0.0-1.0-260.0-0.0","0","0","47542","","null","","","null","28","","","","","","","","","","","","","","","",""
"","ITI","","html-keyboard-response","188","374928","0.0-1.0-261.0","0","0","47542","","null","","","null","28","","","","","","","","","","","","","","","NaN",""
"","S1","","html-keyboard-response","189","375180","0.0-1.0-263.0","0","0","47542","","null","","","null","29","","","","","","","","","","","","","","","",""
"","ISI","","html-keyboard-response","190","376182","0.0-1.0-264.0","0","0","47542","","null","","","null","29","NaN","","","","","","","","","","","","","","",""
"","S2","","html-keyboard-response","191","376433","0.0-1.0-265.0","0","0","47542","","null","","","null","29","","NaN","","","","","","","","","","","","","",""
"","response","","html-keyboard-response","192","376706","0.0-1.0-266.0-0.0","0","0","47542","","271","","","68","29","","","1","29","training","adjacent","BA","2","1","P.jpg","O.jpg","1","0","0","",""
"","feedback","","html-keyboard-response","193","377708","0.0-1.0-267.0-0.0","0","0","47542","","null","","","null","29","","","","","","","","","","","","","","","",""
"","time_out","","html-keyboard-response","194","379710","0.0-1.0-269.0-0.0","0","0","47542","","null","","","null","29","","","","","","","","","","","","","","","",""
"","ITI","","html-keyboard-response","195","380711","0.0-1.0-270.0","0","0","47542","","null","","","null","29","","","","","","","","","","","","","","","NaN",""
"","S1","","html-keyboard-response","196","380963","0.0-1.0-272.0","0","0","47542","","null","","","null","30","","","","","","","","","","","","","","","",""
"","ISI","","html-keyboard-response","197","381964","0.0-1.0-273.0","0","0","47542","","null","","","null","30","NaN","","","","","","","","","","","","","","",""
"","S2","","html-keyboard-response","198","382216","0.0-1.0-274.0","0","0","47542","","null","","","null","30","","NaN","","","","","","","","","","","","","",""
"","response","","html-keyboard-response","199","382322","0.0-1.0-275.0-0.0","0","0","47542","","104","","","75","30","","","1","30","training","adjacent","ED","5","4","M.jpg","L.jpg","0","0","1","",""
"","feedback","","html-keyboard-response","200","383325","0.0-1.0-276.0-0.0","0","0","47542","","null","","","null","30","","","","","","","","","","","","","","","",""
"","ITI","","html-keyboard-response","201","384328","0.0-1.0-279.0","0","0","47542","","null","","","null","30","","","","","","","","","","","","","","","NaN",""
"","S1","","html-keyboard-response","202","384579","0.0-1.0-281.0","0","0","47542","","null","","","null","31","","","","","","","","","","","","","","","",""
"","ISI","","html-keyboard-response","203","385583","0.0-1.0-282.0","0","0","47542","","null","","","null","31","NaN","","","","","","","","","","","","","","",""
"","S2","","html-keyboard-response","204","385835","0.0-1.0-283.0","0","0","47542","","null","","","null","31","","NaN","","","","","","","","","","","","","",""
"","response","","html-keyboard-response","205","385914","0.0-1.0-284.0-0.0","0","0","47542","","77","","","68","31","","","1","31","training","adjacent","BC","2","3","P.jpg","R.jpg","1","1","1","",""
"","feedback","","html-keyboard-response","206","386917","0.0-1.0-285.0-0.0","0","0","47542","","null","","","null","31","","","","","","","","","","","","","","","",""
"","ITI","","html-keyboard-response","207","387919","0.0-1.0-288.0","0","0","47542","","null","","","null","31","","","","","","","","","","","","","","","NaN",""
"","S1","","html-keyboard-response","208","388171","0.0-1.0-290.0","0","0","47542","","null","","","null","32","","","","","","","","","","","","","","","",""
"","ISI","","html-keyboard-response","209","389173","0.0-1.0-291.0","0","0","47542","","null","","","null","32","NaN","","","","","","","","","","","","","","",""
"","S2","","html-keyboard-response","210","389425","0.0-1.0-292.0","0","0","47542","","null","","","null","32","","NaN","","","","","","","","","","","","","",""
"","response","","html-keyboard-response","211","389546","0.0-1.0-293.0-0.0","0","0","47542","","119","","","68","32","","","1","32","training","adjacent","BC","2","3","P.jpg","R.jpg","1","1","1","",""
"","feedback","","html-keyboard-response","212","390548","0.0-1.0-294.0-0.0","0","0","47542","","null","","","null","32","","","","","","","","","","","","","","","",""
"","ITI","","html-keyboard-response","213","391551","0.0-1.0-297.0","0","0","47542","","null","","","null","32","","","","","","","","","","","","","","","NaN",""
"","S1","","html-keyboard-response","214","391803","0.0-1.0-299.0","0","0","47542","","null","","","null","33","","","","","","","","","","","","","","","",""
"","ISI","","html-keyboard-response","215","392806","0.0-1.0-300.0","0","0","47542","","null","","","null","33","NaN","","","","","","","","","","","","","","",""
"","S2","","html-keyboard-response","216","393058","0.0-1.0-301.0","0","0","47542","","null","","","null","33","","NaN","","","","","","","","","","","","","",""
"","response","","html-keyboard-response","217","393402","0.0-1.0-302.0-0.0","0","0","47542","","343","","","68","33","","","1","33","training","adjacent","BA","2","1","P.jpg","O.jpg","1","0","0","",""
"","feedback","","html-keyboard-response","218","394405","0.0-1.0-303.0-0.0","0","0","47542","","null","","","null","33","","","","","","","","","","","","","","","",""
"","time_out","","html-keyboard-response","219","396408","0.0-1.0-305.0-0.0","0","0","47542","","null","","","null","33","","","","","","","","","","","","","","","",""
"","ITI","","html-keyboard-response","220","397410","0.0-1.0-306.0","0","0","47542","","null","","","null","33","","","","","","","","","","","","","","","NaN",""
"","S1","","html-keyboard-response","221","397662","0.0-1.0-308.0","0","0","47542","","null","","","null","34","","","","","","","","","","","","","","","",""
"","ISI","","html-keyboard-response","222","398663","0.0-1.0-309.0","0","0","47542","","null","","","null","34","NaN","","","","","","","","","","","","","","",""
"","S2","","html-keyboard-response","223","398916","0.0-1.0-310.0","0","0","47542","","null","","","null","34","","NaN","","","","","","","","","","","","","",""
"","response","","html-keyboard-response","224","399154","0.0-1.0-311.0-0.0","0","0","47542","","237","","","68","34","","","1","34","training","adjacent","BA","2","1","P.jpg","O.jpg","1","0","0","",""
"","feedback","","html-keyboard-response","225","400156","0.0-1.0-312.0-0.0","0","0","47542","","null","","","null","34","","","","","","","","","","","","","","","",""
"","time_out","","html-keyboard-response","226","402159","0.0-1.0-314.0-0.0","0","0","47542","","null","","","null","34","","","","","","","","","","","","","","","",""
"","ITI","","html-keyboard-response","227","403160","0.0-1.0-315.0","0","0","47542","","null","","","null","34","","","","","","","","","","","","","","","NaN",""
"","S1","","html-keyboard-response","228","403412","0.0-1.0-317.0","0","0","47542","","null","","","null","35","","","","","","","","","","","","","","","",""
"","ISI","","html-keyboard-response","229","404413","0.0-1.0-318.0","0","0","47542","","null","","","null","35","NaN","","","","","","","","","","","","","","",""
"","S2","","html-keyboard-response","230","404665","0.0-1.0-319.0","0","0","47542","","null","","","null","35","","NaN","","","","","","","","","","","","","",""
"","response","","html-keyboard-response","231","405082","0.0-1.0-320.0-0.0","0","0","47542","","415","","","75","35","","","1","35","training","adjacent","CB","3","2","R.jpg","P.jpg","0","0","1","",""
"","feedback","","html-keyboard-response","232","406084","0.0-1.0-321.0-0.0","0","0","47542","","null","","","null","35","","","","","","","","","","","","","","","",""
"","ITI","","html-keyboard-response","233","407086","0.0-1.0-324.0","0","0","47542","","null","","","null","35","","","","","","","","","","","","","","","NaN",""
"","S1","","html-keyboard-response","234","407339","0.0-1.0-326.0","0","0","47542","","null","","","null","36","","","","","","","","","","","","","","","",""
"","ISI","","html-keyboard-response","235","408341","0.0-1.0-327.0","0","0","47542","","null","","","null","36","NaN","","","","","","","","","","","","","","",""
"","S2","","html-keyboard-response","236","408593","0.0-1.0-328.0","0","0","47542","","null","","","null","36","","NaN","","","","","","","","","","","","","",""
"","response","","html-keyboard-response","237","408778","0.0-1.0-329.0-0.0","0","0","47542","","184","","","68","36","","","1","36","training","adjacent","FG","6","7","Q.jpg","N.jpg","1","1","1","",""
"","feedback","","html-keyboard-response","238","409780","0.0-1.0-330.0-0.0","0","0","47542","","null","","","null","36","","","","","","","","","","","","","","","",""
"","ITI","","html-keyboard-response","239","410782","0.0-1.0-333.0","0","0","47542","","null","","","null","36","","","","","","","","","","","","","","","NaN",""
"","S1","","html-keyboard-response","240","411034","0.0-1.0-335.0","0","0","47542","","null","","","null","37","","","","","","","","","","","","","","","",""
"","ISI","","html-keyboard-response","241","412036","0.0-1.0-336.0","0","0","47542","","null","","","null","37","NaN","","","","","","","","","","","","","","",""
"","S2","","html-keyboard-response","242","412287","0.0-1.0-337.0","0","0","47542","","null","","","null","37","","NaN","","","","","","","","","","","","","",""
"","response","","html-keyboard-response","243","412706","0.0-1.0-338.0-0.0","0","0","47542","","417","","","75","37","","","1","37","training","adjacent","CD","3","4","R.jpg","L.jpg","0","1","0","",""
"","feedback","","html-keyboard-response","244","413709","0.0-1.0-339.0-0.0","0","0","47542","","null","","","null","37","","","","","","","","","","","","","","","",""
"","time_out","","html-keyboard-response","245","415710","0.0-1.0-341.0-0.0","0","0","47542","","null","","","null","37","","","","","","","","","","","","","","","",""
"","ITI","","html-keyboard-response","246","416712","0.0-1.0-342.0","0","0","47542","","null","","","null","37","","","","","","","","","","","","","","","NaN",""
"","S1","","html-keyboard-response","247","416965","0.0-1.0-344.0","0","0","47542","","null","","","null","38","","","","","","","","","","","","","","","",""
"","ISI","","html-keyboard-response","248","417968","0.0-1.0-345.0","0","0","47542","","null","","","null","38","NaN","","","","","","","","","","","","","","",""
"","S2","","html-keyboard-response","249","418220","0.0-1.0-346.0","0","0","47542","","null","","","null","38","","NaN","","","","","","","","","","","","","",""
"","response","","html-keyboard-response","250","418698","0.0-1.0-347.0-0.0","0","0","47542","","476","","","68","38","","","1","38","training","adjacent","DE","4","5","L.jpg","M.jpg","1","1","1","",""
"","feedback","","html-keyboard-response","251","419700","0.0-1.0-348.0-0.0","0","0","47542","","null","","","null","38","","","","","","","","","","","","","","","",""
"","ITI","","html-keyboard-response","252","420702","0.0-1.0-351.0","0","0","47542","","null","","","null","38","","","","","","","","","","","","","","","NaN",""
"","S1","","html-keyboard-response","253","420954","0.0-1.0-353.0","0","0","47542","","null","","","null","39","","","","","","","","","","","","","","","",""
"","ISI","","html-keyboard-response","254","421956","0.0-1.0-354.0","0","0","47542","","null","","","null","39","NaN","","","","","","","","","","","","","","",""
"","S2","","html-keyboard-response","255","422208","0.0-1.0-355.0","0","0","47542","","null","","","null","39","","NaN","","","","","","","","","","","","","",""
"","response","","html-keyboard-response","256","422514","0.0-1.0-356.0-0.0","0","0","47542","","305","","","75","39","","","1","39","training","adjacent","GF","7","6","N.jpg","Q.jpg","0","0","1","",""
"","feedback","","html-keyboard-response","257","423518","0.0-1.0-357.0-0.0","0","0","47542","","null","","","null","39","","","","","","","","","","","","","","","",""
"","ITI","","html-keyboard-response","258","424520","0.0-1.0-360.0","0","0","47542","","null","","","null","39","","","","","","","","","","","","","","","NaN",""
"","S1","","html-keyboard-response","259","424772","0.0-1.0-362.0","0","0","47542","","null","","","null","40","","","","","","","","","","","","","","","",""
"","ISI","","html-keyboard-response","260","425775","0.0-1.0-363.0","0","0","47542","","null","","","null","40","NaN","","","","","","","","","","","","","","",""
"","S2","","html-keyboard-response","261","426027","0.0-1.0-364.0","0","0","47542","","null","","","null","40","","NaN","","","","","","","","","","","","","",""
"","response","","html-keyboard-response","262","426445","0.0-1.0-365.0-0.0","0","0","47542","","416","","","75","40","","","1","40","training","adjacent","GF","7","6","N.jpg","Q.jpg","0","0","1","",""
"","feedback","","html-keyboard-response","263","427449","0.0-1.0-366.0-0.0","0","0","47542","","null","","","null","40","","","","","","","","","","","","","","","",""
"","ITI","","html-keyboard-response","264","428451","0.0-1.0-369.0","0","0","47542","","null","","","null","40","","","","","","","","","","","","","","","NaN",""
"","S1","","html-keyboard-response","265","428703","0.0-1.0-371.0","0","0","47542","","null","","","null","41","","","","","","","","","","","","","","","",""
"","ISI","","html-keyboard-response","266","429705","0.0-1.0-372.0","0","0","47542","","null","","","null","41","NaN","","","","","","","","","","","","","","",""
"","S2","","html-keyboard-response","267","429958","0.0-1.0-373.0","0","0","47542","","null","","","null","41","","NaN","","","","","","","","","","","","","",""
"","response","","html-keyboard-response","268","430251","0.0-1.0-374.0-0.0","0","0","47542","","292","","","68","41","","","1","41","training","adjacent","DC","4","3","L.jpg","R.jpg","1","0","0","",""
"","feedback","","html-keyboard-response","269","431254","0.0-1.0-375.0-0.0","0","0","47542","","null","","","null","41","","","","","","","","","","","","","","","",""
"","time_out","","html-keyboard-response","270","433255","0.0-1.0-377.0-0.0","0","0","47542","","null","","","null","41","","","","","","","","","","","","","","","",""
"","ITI","","html-keyboard-response","271","434259","0.0-1.0-378.0","0","0","47542","","null","","","null","41","","","","","","","","","","","","","","","NaN",""
"","S1","","html-keyboard-response","272","434510","0.0-1.0-380.0","0","0","47542","","null","","","null","42","","","","","","","","","","","","","","","",""
"","ISI","","html-keyboard-response","273","435512","0.0-1.0-381.0","0","0","47542","","null","","","null","42","NaN","","","","","","","","","","","","","","",""
"","S2","","html-keyboard-response","274","435764","0.0-1.0-382.0","0","0","47542","","null","","","null","42","","NaN","","","","","","","","","","","","","",""
"","response","","html-keyboard-response","275","436075","0.0-1.0-383.0-0.0","0","0","47542","","310","","","75","42","","","1","42","training","adjacent","CD","3","4","R.jpg","L.jpg","0","1","0","",""
"","feedback","","html-keyboard-response","276","437077","0.0-1.0-384.0-0.0","0","0","47542","","null","","","null","42","","","","","","","","","","","","","","","",""
"","time_out","","html-keyboard-response","277","439079","0.0-1.0-386.0-0.0","0","0","47542","","null","","","null","42","","","","","","","","","","","","","","","",""
"","ITI","","html-keyboard-response","278","440081","0.0-1.0-387.0","0","0","47542","","null","","","null","42","","","","","","","","","","","","","","","NaN",""
"","S1","","html-keyboard-response","279","440333","0.0-1.0-389.0","0","0","47542","","null","","","null","43","","","","","","","","","","","","","","","",""
"","ISI","","html-keyboard-response","280","441335","0.0-1.0-390.0","0","0","47542","","null","","","null","43","NaN","","","","","","","","","","","","","","",""
"","S2","","html-keyboard-response","281","441601","0.0-1.0-391.0","0","0","47542","","null","","","null","43","","NaN","","","","","","","","","","","","","",""
"","response","","html-keyboard-response","282","442091","0.0-1.0-392.0-0.0","0","0","47542","","489","","","75","43","","","1","43","training","adjacent","EF","5","6","M.jpg","Q.jpg","0","1","0","",""
"","feedback","","html-keyboard-response","283","443094","0.0-1.0-393.0-0.0","0","0","47542","","null","","","null","43","","","","","","","","","","","","","","","",""
"","time_out","","html-keyboard-response","284","445095","0.0-1.0-395.0-0.0","0","0","47542","","null","","","null","43","","","","","","","","","","","","","","","",""
"","ITI","","html-keyboard-response","285","446098","0.0-1.0-396.0","0","0","47542","","null","","","null","43","","","","","","","","","","","","","","","NaN",""
"","S1","","html-keyboard-response","286","446350","0.0-1.0-398.0","0","0","47542","","null","","","null","44","","","","","","","","","","","","","","","",""
"","ISI","","html-keyboard-response","287","447351","0.0-1.0-399.0","0","0","47542","","null","","","null","44","NaN","","","","","","","","","","","","","","",""
"","S2","","html-keyboard-response","288","447603","0.0-1.0-400.0","0","0","47542","","null","","","null","44","","NaN","","","","","","","","","","","","","",""
"","response","","html-keyboard-response","289","448187","0.0-1.0-401.0-0.0","0","0","47542","","582","","","75","44","","","1","44","training","adjacent","FE","6","5","Q.jpg","M.jpg","0","0","1","",""
"","feedback","","html-keyboard-response","290","449189","0.0-1.0-402.0-0.0","0","0","47542","","null","","","null","44","","","","","","","","","","","","","","","",""
"","ITI","","html-keyboard-response","291","450191","0.0-1.0-405.0","0","0","47542","","null","","","null","44","","","","","","","","","","","","","","","NaN",""
"","S1","","html-keyboard-response","292","450444","0.0-1.0-407.0","0","0","47542","","null","","","null","45","","","","","","","","","","","","","","","",""
"","ISI","","html-keyboard-response","293","451446","0.0-1.0-408.0","0","0","47542","","null","","","null","45","NaN","","","","","","","","","","","","","","",""
"","S2","","html-keyboard-response","294","451697","0.0-1.0-409.0","0","0","47542","","null","","","null","45","","NaN","","","","","","","","","","","","","",""
"","response","","html-keyboard-response","295","451923","0.0-1.0-410.0-0.0","0","0","47542","","225","","","75","45","","","1","45","training","adjacent","ED","5","4","M.jpg","L.jpg","0","0","1","",""
"","feedback","","html-keyboard-response","296","452924","0.0-1.0-411.0-0.0","0","0","47542","","null","","","null","45","","","","","","","","","","","","","","","",""
"","ITI","","html-keyboard-response","297","453925","0.0-1.0-414.0","0","0","47542","","null","","","null","45","","","","","","","","","","","","","","","NaN",""
"","S1","","html-keyboard-response","298","454179","0.0-1.0-416.0","0","0","47542","","null","","","null","46","","","","","","","","","","","","","","","",""
"","ISI","","html-keyboard-response","299","455180","0.0-1.0-417.0","0","0","47542","","null","","","null","46","NaN","","","","","","","","","","","","","","",""
"","S2","","html-keyboard-response","300","455432","0.0-1.0-418.0","0","0","47542","","null","","","null","46","","NaN","","","","","","","","","","","","","",""
"","response","","html-keyboard-response","301","455651","0.0-1.0-419.0-0.0","0","0","47542","","217","","","75","46","","","1","46","training","adjacent","DE","4","5","L.jpg","M.jpg","0","1","0","",""
"","feedback","","html-keyboard-response","302","456653","0.0-1.0-420.0-0.0","0","0","47542","","null","","","null","46","","","","","","","","","","","","","","","",""
"","time_out","","html-keyboard-response","303","458655","0.0-1.0-422.0-0.0","0","0","47542","","null","","","null","46","","","","","","","","","","","","","","","",""
"","ITI","","html-keyboard-response","304","459657","0.0-1.0-423.0","0","0","47542","","null","","","null","46","","","","","","","","","","","","","","","NaN",""
"","S1","","html-keyboard-response","305","459909","0.0-1.0-425.0","0","0","47542","","null","","","null","47","","","","","","","","","","","","","","","",""
"","ISI","","html-keyboard-response","306","460911","0.0-1.0-426.0","0","0","47542","","null","","","null","47","NaN","","","","","","","","","","","","","","",""
"","S2","","html-keyboard-response","307","461164","0.0-1.0-427.0","0","0","47542","","null","","","null","47","","NaN","","","","","","","","","","","","","",""
"","response","","html-keyboard-response","308","461307","0.0-1.0-428.0-0.0","0","0","47542","","142","","","75","47","","","1","47","training","adjacent","AB","1","2","O.jpg","P.jpg","0","1","0","",""
"","feedback","","html-keyboard-response","309","462309","0.0-1.0-429.0-0.0","0","0","47542","","null","","","null","47","","","","","","","","","","","","","","","",""
"","time_out","","html-keyboard-response","310","464312","0.0-1.0-431.0-0.0","0","0","47542","","null","","","null","47","","","","","","","","","","","","","","","",""
"","ITI","","html-keyboard-response","311","465314","0.0-1.0-432.0","0","0","47542","","null","","","null","47","","","","","","","","","","","","","","","NaN",""
"","block_over","","html-keyboard-response","312","475811","0.0-1.0-433.0-0.0","0","0","47542","","10495","","","32","47","","","","","","","","","","","","","","","",""
"","S1","","html-keyboard-response","313","476064","0.0-1.0-434.0","0","0","47542","","null","","","null","48","","","","","","","","","","","","","","","",""
"","ISI","","html-keyboard-response","314","477066","0.0-1.0-435.0","0","0","47542","","null","","","null","48","NaN","","","","","","","","","","","","","","",""
"","S2","","html-keyboard-response","315","477319","0.0-1.0-436.0","0","0","47542","","null","","","null","48","","NaN","","","","","","","","","","","","","",""
"","response","","html-keyboard-response","316","477979","0.0-1.0-437.0-0.0","0","0","47542","","659","","","68","48","","","2","48","training","adjacent","FE","6","5","Q.jpg","M.jpg","1","0","0","",""
"","feedback","","html-keyboard-response","317","478983","0.0-1.0-438.0-0.0","0","0","47542","","null","","","null","48","","","","","","","","","","","","","","","",""
"","time_out","","html-keyboard-response","318","480985","0.0-1.0-440.0-0.0","0","0","47542","","null","","","null","48","","","","","","","","","","","","","","","",""
"","ITI","","html-keyboard-response","319","481987","0.0-1.0-441.0","0","0","47542","","null","","","null","48","","","","","","","","","","","","","","","NaN",""
"","S1","","html-keyboard-response","320","482239","0.0-1.0-443.0","0","0","47542","","null","","","null","49","","","","","","","","","","","","","","","",""
"","ISI","","html-keyboard-response","321","483242","0.0-1.0-444.0","0","0","47542","","null","","","null","49","NaN","","","","","","","","","","","","","","",""
"","S2","","html-keyboard-response","322","483494","0.0-1.0-445.0","0","0","47542","","null","","","null","49","","NaN","","","","","","","","","","","","","",""
"","response","","html-keyboard-response","323","483811","0.0-1.0-446.0-0.0","0","0","47542","","316","","","75","49","","","2","49","training","adjacent","DE","4","5","L.jpg","M.jpg","0","1","0","",""
"","feedback","","html-keyboard-response","324","484814","0.0-1.0-447.0-0.0","0","0","47542","","null","","","null","49","","","","","","","","","","","","","","","",""
"","time_out","","html-keyboard-response","325","486816","0.0-1.0-449.0-0.0","0","0","47542","","null","","","null","49","","","","","","","","","","","","","","","",""
"","ITI","","html-keyboard-response","326","487818","0.0-1.0-450.0","0","0","47542","","null","","","null","49","","","","","","","","","","","","","","","NaN",""
"","S1","","html-keyboard-response","327","488070","0.0-1.0-452.0","0","0","47542","","null","","","null","50","","","","","","","","","","","","","","","",""
"","ISI","","html-keyboard-response","328","489072","0.0-1.0-453.0","0","0","47542","","null","","","null","50","NaN","","","","","","","","","","","","","","",""
"","S2","","html-keyboard-response","329","489325","0.0-1.0-454.0","0","0","47542","","null","","","null","50","","NaN","","","","","","","","","","","","","",""
"","response","","html-keyboard-response","330","489779","0.0-1.0-455.0-0.0","0","0","47542","","453","","","75","50","","","2","50","training","adjacent","EF","5","6","M.jpg","Q.jpg","0","1","0","",""
"","feedback","","html-keyboard-response","331","490781","0.0-1.0-456.0-0.0","0","0","47542","","null","","","null","50","","","","","","","","","","","","","","","",""
"","time_out","","html-keyboard-response","332","492783","0.0-1.0-458.0-0.0","0","0","47542","","null","","","null","50","","","","","","","","","","","","","","","",""
"","ITI","","html-keyboard-response","333","493786","0.0-1.0-459.0","0","0","47542","","null","","","null","50","","","","","","","","","","","","","","","NaN",""
"","S1","","html-keyboard-response","334","494039","0.0-1.0-461.0","0","0","47542","","null","","","null","51","","","","","","","","","","","","","","","",""
"","ISI","","html-keyboard-response","335","495040","0.0-1.0-462.0","0","0","47542","","null","","","null","51","NaN","","","","","","","","","","","","","","",""
"","S2","","html-keyboard-response","336","495292","0.0-1.0-463.0","0","0","47542","","null","","","null","51","","NaN","","","","","","","","","","","","","",""
"","response","","html-keyboard-response","337","495539","0.0-1.0-464.0-0.0","0","0","47542","","245","","","68","51","","","2","51","training","adjacent","CD","3","4","R.jpg","L.jpg","1","1","1","",""
"","feedback","","html-keyboard-response","338","496541","0.0-1.0-465.0-0.0","0","0","47542","","null","","","null","51","","","","","","","","","","","","","","","",""
"","ITI","","html-keyboard-response","339","497544","0.0-1.0-468.0","0","0","47542","","null","","","null","51","","","","","","","","","","","","","","","NaN",""
"","S1","","html-keyboard-response","340","497796","0.0-1.0-470.0","0","0","47542","","null","","","null","52","","","","","","","","","","","","","","","",""
"","ISI","","html-keyboard-response","341","498799","0.0-1.0-471.0","0","0","47542","","null","","","null","52","NaN","","","","","","","","","","","","","","",""
"","S2","","html-keyboard-response","342","499051","0.0-1.0-472.0","0","0","47542","","null","","","null","52","","NaN","","","","","","","","","","","","","",""
"","response","","html-keyboard-response","343","499338","0.0-1.0-473.0-0.0","0","0","47542","","286","","","68","52","","","2","52","training","adjacent","ED","5","4","M.jpg","L.jpg","1","0","0","",""
"","feedback","","html-keyboard-response","344","500341","0.0-1.0-474.0-0.0","0","0","47542","","null","","","null","52","","","","","","","","","","","","","","","",""
"","time_out","","html-keyboard-response","345","502342","0.0-1.0-476.0-0.0","0","0","47542","","null","","","null","52","","","","","","","","","","","","","","","",""
"","ITI","","html-keyboard-response","346","503345","0.0-1.0-477.0","0","0","47542","","null","","","null","52","","","","","","","","","","","","","","","NaN",""
"","S1","","html-keyboard-response","347","503596","0.0-1.0-479.0","0","0","47542","","null","","","null","53","","","","","","","","","","","","","","","",""
"","ISI","","html-keyboard-response","348","504598","0.0-1.0-480.0","0","0","47542","","null","","","null","53","NaN","","","","","","","","","","","","","","",""
"","S2","","html-keyboard-response","349","504850","0.0-1.0-481.0","0","0","47542","","null","","","null","53","","NaN","","","","","","","","","","","","","",""
"","response","","html-keyboard-response","350","505227","0.0-1.0-482.0-0.0","0","0","47542","","376","","","68","53","","","2","53","training","adjacent","CD","3","4","R.jpg","L.jpg","1","1","1","",""
"","feedback","","html-keyboard-response","351","506229","0.0-1.0-483.0-0.0","0","0","47542","","null","","","null","53","","","","","","","","","","","","","","","",""
"","ITI","","html-keyboard-response","352","507230","0.0-1.0-486.0","0","0","47542","","null","","","null","53","","","","","","","","","","","","","","","NaN",""
"","S1","","html-keyboard-response","353","507483","0.0-1.0-488.0","0","0","47542","","null","","","null","54","","","","","","","","","","","","","","","",""
"","ISI","","html-keyboard-response","354","508486","0.0-1.0-489.0","0","0","47542","","null","","","null","54","NaN","","","","","","","","","","","","","","",""
"","S2","","html-keyboard-response","355","508738","0.0-1.0-490.0","0","0","47542","","null","","","null","54","","NaN","","","","","","","","","","","","","",""
"","response","","html-keyboard-response","356","508987","0.0-1.0-491.0-0.0","0","0","47542","","247","","","68","54","","","2","54","training","adjacent","CD","3","4","R.jpg","L.jpg","1","1","1","",""
"","feedback","","html-keyboard-response","357","509989","0.0-1.0-492.0-0.0","0","0","47542","","null","","","null","54","","","","","","","","","","","","","","","",""
"","ITI","","html-keyboard-response","358","510990","0.0-1.0-495.0","0","0","47542","","null","","","null","54","","","","","","","","","","","","","","","NaN",""
"","S1","","html-keyboard-response","359","511242","0.0-1.0-497.0","0","0","47542","","null","","","null","55","","","","","","","","","","","","","","","",""
"","ISI","","html-keyboard-response","360","512244","0.0-1.0-498.0","0","0","47542","","null","","","null","55","NaN","","","","","","","","","","","","","","",""
"","S2","","html-keyboard-response","361","512496","0.0-1.0-499.0","0","0","47542","","null","","","null","55","","NaN","","","","","","","","","","","","","",""
"","response","","html-keyboard-response","362","512835","0.0-1.0-500.0-0.0","0","0","47542","","338","","","68","55","","","2","55","training","adjacent","EF","5","6","M.jpg","Q.jpg","1","1","1","",""
"","feedback","","html-keyboard-response","363","513838","0.0-1.0-501.0-0.0","0","0","47542","","null","","","null","55","","","","","","","","","","","","","","","",""
"","ITI","","html-keyboard-response","364","514841","0.0-1.0-504.0","0","0","47542","","null","","","null","55","","","","","","","","","","","","","","","NaN",""
"","S1","","html-keyboard-response","365","515093","0.0-1.0-506.0","0","0","47542","","null","","","null","56","","","","","","","","","","","","","","","",""
"","ISI","","html-keyboard-response","366","516095","0.0-1.0-507.0","0","0","47542","","null","","","null","56","NaN","","","","","","","","","","","","","","",""
"","S2","","html-keyboard-response","367","516347","0.0-1.0-508.0","0","0","47542","","null","","","null","56","","NaN","","","","","","","","","","","","","",""
"","response","","html-keyboard-response","368","516651","0.0-1.0-509.0-0.0","0","0","47542","","302","","","68","56","","","2","56","training","adjacent","EF","5","6","M.jpg","Q.jpg","1","1","1","",""
"","feedback","","html-keyboard-response","369","517653","0.0-1.0-510.0-0.0","0","0","47542","","null","","","null","56","","","","","","","","","","","","","","","",""
"","ITI","","html-keyboard-response","370","518656","0.0-1.0-513.0","0","0","47542","","null","","","null","56","","","","","","","","","","","","","","","NaN",""
"","S1","","html-keyboard-response","371","518908","0.0-1.0-515.0","0","0","47542","","null","","","null","57","","","","","","","","","","","","","","","",""
"","ISI","","html-keyboard-response","372","519911","0.0-1.0-516.0","0","0","47542","","null","","","null","57","NaN","","","","","","","","","","","","","","",""
"","S2","","html-keyboard-response","373","520163","0.0-1.0-517.0","0","0","47542","","null","","","null","57","","NaN","","","","","","","","","","","","","",""
"","response","","html-keyboard-response","374","520563","0.0-1.0-518.0-0.0","0","0","47542","","398","","","68","57","","","2","57","training","adjacent","FG","6","7","Q.jpg","N.jpg","1","1","1","",""
"","feedback","","html-keyboard-response","375","521565","0.0-1.0-519.0-0.0","0","0","47542","","null","","","null","57","","","","","","","","","","","","","","","",""
"","ITI","","html-keyboard-response","376","522567","0.0-1.0-522.0","0","0","47542","","null","","","null","57","","","","","","","","","","","","","","","NaN",""
"","S1","","html-keyboard-response","377","522819","0.0-1.0-524.0","0","0","47542","","null","","","null","58","","","","","","","","","","","","","","","",""
"","ISI","","html-keyboard-response","378","523821","0.0-1.0-525.0","0","0","47542","","null","","","null","58","NaN","","","","","","","","","","","","","","",""
"","S2","","html-keyboard-response","379","524074","0.0-1.0-526.0","0","0","47542","","null","","","null","58","","NaN","","","","","","","","","","","","","",""
"","response","","html-keyboard-response","380","524322","0.0-1.0-527.0-0.0","0","0","47542","","247","","","75","58","","","2","58","training","adjacent","AB","1","2","O.jpg","P.jpg","0","1","0","",""
"","feedback","","html-keyboard-response","381","525325","0.0-1.0-528.0-0.0","0","0","47542","","null","","","null","58","","","","","","","","","","","","","","","",""
"","time_out","","html-keyboard-response","382","527327","0.0-1.0-530.0-0.0","0","0","47542","","null","","","null","58","","","","","","","","","","","","","","","",""
"","ITI","","html-keyboard-response","383","528329","0.0-1.0-531.0","0","0","47542","","null","","","null","58","","","","","","","","","","","","","","","NaN",""
"","S1","","html-keyboard-response","384","528581","0.0-1.0-533.0","0","0","47542","","null","","","null","59","","","","","","","","","","","","","","","",""
"","ISI","","html-keyboard-response","385","529583","0.0-1.0-534.0","0","0","47542","","null","","","null","59","NaN","","","","","","","","","","","","","","",""
"","S2","","html-keyboard-response","386","529835","0.0-1.0-535.0","0","0","47542","","null","","","null","59","","NaN","","","","","","","","","","","","","",""
"","response","","html-keyboard-response","387","530131","0.0-1.0-536.0-0.0","0","0","47542","","294","","","68","59","","","2","59","training","adjacent","ED","5","4","M.jpg","L.jpg","1","0","0","",""
"","feedback","","html-keyboard-response","388","531133","0.0-1.0-537.0-0.0","0","0","47542","","null","","","null","59","","","","","","","","","","","","","","","",""
"","time_out","","html-keyboard-response","389","533135","0.0-1.0-539.0-0.0","0","0","47542","","null","","","null","59","","","","","","","","","","","","","","","",""
"","ITI","","html-keyboard-response","390","534137","0.0-1.0-540.0","0","0","47542","","null","","","null","59","","","","","","","","","","","","","","","NaN",""
"","S1","","html-keyboard-response","391","534389","0.0-1.0-542.0","0","0","47542","","null","","","null","60","","","","","","","","","","","","","","","",""
"","ISI","","html-keyboard-response","392","535390","0.0-1.0-543.0","0","0","47542","","null","","","null","60","NaN","","","","","","","","","","","","","","",""
"","S2","","html-keyboard-response","393","535642","0.0-1.0-544.0","0","0","47542","","null","","","null","60","","NaN","","","","","","","","","","","","","",""
"","response","","html-keyboard-response","394","536243","0.0-1.0-545.0-0.0","0","0","47542","","599","","","68","60","","","2","60","training","adjacent","BC","2","3","P.jpg","R.jpg","1","1","1","",""
"","feedback","","html-keyboard-response","395","537245","0.0-1.0-546.0-0.0","0","0","47542","","null","","","null","60","","","","","","","","","","","","","","","",""
"","ITI","","html-keyboard-response","396","538248","0.0-1.0-549.0","0","0","47542","","null","","","null","60","","","","","","","","","","","","","","","NaN",""
"","S1","","html-keyboard-response","397","538500","0.0-1.0-551.0","0","0","47542","","null","","","null","61","","","","","","","","","","","","","","","",""
"","ISI","","html-keyboard-response","398","539501","0.0-1.0-552.0","0","0","47542","","null","","","null","61","NaN","","","","","","","","","","","","","","",""
"","S2","","html-keyboard-response","399","539754","0.0-1.0-553.0","0","0","47542","","null","","","null","61","","NaN","","","","","","","","","","","","","",""
"","response","","html-keyboard-response","400","540219","0.0-1.0-554.0-0.0","0","0","47542","","464","","","68","61","","","2","61","training","adjacent","FE","6","5","Q.jpg","M.jpg","1","0","0","",""
"","feedback","","html-keyboard-response","401","541221","0.0-1.0-555.0-0.0","0","0","47542","","null","","","null","61","","","","","","","","","","","","","","","",""
"","time_out","","html-keyboard-response","402","543223","0.0-1.0-557.0-0.0","0","0","47542","","null","","","null","61","","","","","","","","","","","","","","","",""
"","ITI","","html-keyboard-response","403","544225","0.0-1.0-558.0","0","0","47542","","null","","","null","61","","","","","","","","","","","","","","","NaN",""
"","S1","","html-keyboard-response","404","544477","0.0-1.0-560.0","0","0","47542","","null","","","null","62","","","","","","","","","","","","","","","",""
"","ISI","","html-keyboard-response","405","545479","0.0-1.0-561.0","0","0","47542","","null","","","null","62","NaN","","","","","","","","","","","","","","",""
"","S2","","html-keyboard-response","406","545731","0.0-1.0-562.0","0","0","47542","","null","","","null","62","","NaN","","","","","","","","","","","","","",""
"","response","","html-keyboard-response","407","546691","0.0-1.0-563.0-0.0","0","0","47542","","957","","","68","62","","","2","62","training","adjacent","DE","4","5","L.jpg","M.jpg","1","1","1","",""
"","feedback","","html-keyboard-response","408","547693","0.0-1.0-564.0-0.0","0","0","47542","","null","","","null","62","","","","","","","","","","","","","","","",""
"","ITI","","html-keyboard-response","409","548695","0.0-1.0-567.0","0","0","47542","","null","","","null","62","","","","","","","","","","","","","","","NaN",""
"","S1","","html-keyboard-response","410","548948","0.0-1.0-569.0","0","0","47542","","null","","","null","63","","","","","","","","","","","","","","","",""
"","ISI","","html-keyboard-response","411","549950","0.0-1.0-570.0","0","0","47542","","null","","","null","63","NaN","","","","","","","","","","","","","","",""
"","S2","","html-keyboard-response","412","550202","0.0-1.0-571.0","0","0","47542","","null","","","null","63","","NaN","","","","","","","","","","","","","",""
"","response","","html-keyboard-response","413","551155","0.0-1.0-572.0-0.0","0","0","47542","","952","","","68","63","","","2","63","training","adjacent","ED","5","4","M.jpg","L.jpg","1","0","0","",""
"","feedback","","html-keyboard-response","414","552158","0.0-1.0-573.0-0.0","0","0","47542","","null","","","null","63","","","","","","","","","","","","","","","",""
"","time_out","","html-keyboard-response","415","554160","0.0-1.0-575.0-0.0","0","0","47542","","null","","","null","63","","","","","","","","","","","","","","","",""
"","ITI","","html-keyboard-response","416","555162","0.0-1.0-576.0","0","0","47542","","null","","","null","63","","","","","","","","","","","","","","","NaN",""
"","S1","","html-keyboard-response","417","555414","0.0-1.0-578.0","0","0","47542","","null","","","null","64","","","","","","","","","","","","","","","",""
"","ISI","","html-keyboard-response","418","556417","0.0-1.0-579.0","0","0","47542","","null","","","null","64","NaN","","","","","","","","","","","","","","",""
"","S2","","html-keyboard-response","419","556669","0.0-1.0-580.0","0","0","47542","","null","","","null","64","","NaN","","","","","","","","","","","","","",""
"","response","","html-keyboard-response","420","557107","0.0-1.0-581.0-0.0","0","0","47542","","436","","","68","64","","","2","64","training","adjacent","CB","3","2","R.jpg","P.jpg","1","0","0","",""
"","feedback","","html-keyboard-response","421","558109","0.0-1.0-582.0-0.0","0","0","47542","","null","","","null","64","","","","","","","","","","","","","","","",""
"","time_out","","html-keyboard-response","422","560111","0.0-1.0-584.0-0.0","0","0","47542","","null","","","null","64","","","","","","","","","","","","","","","",""
"","ITI","","html-keyboard-response","423","561113","0.0-1.0-585.0","0","0","47542","","null","","","null","64","","","","","","","","","","","","","","","NaN",""
"","S1","","html-keyboard-response","424","561365","0.0-1.0-587.0","0","0","47542","","null","","","null","65","","","","","","","","","","","","","","","",""
"","ISI","","html-keyboard-response","425","562367","0.0-1.0-588.0","0","0","47542","","null","","","null","65","NaN","","","","","","","","","","","","","","",""
"","S2","","html-keyboard-response","426","562619","0.0-1.0-589.0","0","0","47542","","null","","","null","65","","NaN","","","","","","","","","","","","","",""
"","response","","html-keyboard-response","427","563226","0.0-1.0-590.0-0.0","0","0","47542","","607","","","75","65","","","2","65","training","adjacent","BC","2","3","P.jpg","R.jpg","0","1","0","",""
"","feedback","","html-keyboard-response","428","564229","0.0-1.0-591.0-0.0","0","0","47542","","null","","","null","65","","","","","","","","","","","","","","","",""
"","time_out","","html-keyboard-response","429","566230","0.0-1.0-593.0-0.0","0","0","47542","","null","","","null","65","","","","","","","","","","","","","","","",""
"","ITI","","html-keyboard-response","430","567232","0.0-1.0-594.0","0","0","47542","","null","","","null","65","","","","","","","","","","","","","","","NaN",""
"","S1","","html-keyboard-response","431","567485","0.0-1.0-596.0","0","0","47542","","null","","","null","66","","","","","","","","","","","","","","","",""
"","ISI","","html-keyboard-response","432","568487","0.0-1.0-597.0","0","0","47542","","null","","","null","66","NaN","","","","","","","","","","","","","","",""
"","S2","","html-keyboard-response","433","568739","0.0-1.0-598.0","0","0","47542","","null","","","null","66","","NaN","","","","","","","","","","","","","",""
"","response","","html-keyboard-response","434","569035","0.0-1.0-599.0-0.0","0","0","47542","","294","","","68","66","","","2","66","training","adjacent","AB","1","2","O.jpg","P.jpg","1","1","1","",""
"","feedback","","html-keyboard-response","435","570037","0.0-1.0-600.0-0.0","0","0","47542","","null","","","null","66","","","","","","","","","","","","","","","",""
"","ITI","","html-keyboard-response","436","571040","0.0-1.0-603.0","0","0","47542","","null","","","null","66","","","","","","","","","","","","","","","NaN",""
"","S1","","html-keyboard-response","437","571292","0.0-1.0-605.0","0","0","47542","","null","","","null","67","","","","","","","","","","","","","","","",""
"","ISI","","html-keyboard-response","438","572294","0.0-1.0-606.0","0","0","47542","","null","","","null","67","NaN","","","","","","","","","","","","","","",""
"","S2","","html-keyboard-response","439","572546","0.0-1.0-607.0","0","0","47542","","null","","","null","67","","NaN","","","","","","","","","","","","","",""
"","response","","html-keyboard-response","440","572731","0.0-1.0-608.0-0.0","0","0","47542","","183","","","75","67","","","2","67","training","adjacent","GF","7","6","N.jpg","Q.jpg","0","0","1","",""
"","feedback","","html-keyboard-response","441","573733","0.0-1.0-609.0-0.0","0","0","47542","","null","","","null","67","","","","","","","","","","","","","","","",""
"","ITI","","html-keyboard-response","442","574735","0.0-1.0-612.0","0","0","47542","","null","","","null","67","","","","","","","","","","","","","","","NaN",""
"","S1","","html-keyboard-response","443","574989","0.0-1.0-614.0","0","0","47542","","null","","","null","68","","","","","","","","","","","","","","","",""
"","ISI","","html-keyboard-response","444","575990","0.0-1.0-615.0","0","0","47542","","null","","","null","68","NaN","","","","","","","","","","","","","","",""
"","S2","","html-keyboard-response","445","576243","0.0-1.0-616.0","0","0","47542","","null","","","null","68","","NaN","","","","","","","","","","","","","",""
"","response","","html-keyboard-response","446","576418","0.0-1.0-617.0-0.0","0","0","47542","","174","","","75","68","","","2","68","training","adjacent","GF","7","6","N.jpg","Q.jpg","0","0","1","",""
"","feedback","","html-keyboard-response","447","577421","0.0-1.0-618.0-0.0","0","0","47542","","null","","","null","68","","","","","","","","","","","","","","","",""
"","ITI","","html-keyboard-response","448","578430","0.0-1.0-621.0","0","0","47542","","null","","","null","68","","","","","","","","","","","","","","","NaN",""
"","S1","","html-keyboard-response","449","578682","0.0-1.0-623.0","0","0","47542","","null","","","null","69","","","","","","","","","","","","","","","",""
"","ISI","","html-keyboard-response","450","579685","0.0-1.0-624.0","0","0","47542","","null","","","null","69","NaN","","","","","","","","","","","","","","",""
"","S2","","html-keyboard-response","451","579938","0.0-1.0-625.0","0","0","47542","","null","","","null","69","","NaN","","","","","","","","","","","","","",""
"","response","","html-keyboard-response","452","581218","0.0-1.0-626.0-0.0","0","0","47542","","1278","","","68","69","","","2","69","training","adjacent","DE","4","5","L.jpg","M.jpg","1","1","1","",""
"","feedback","","html-keyboard-response","453","582220","0.0-1.0-627.0-0.0","0","0","47542","","null","","","null","69","","","","","","","","","","","","","","","",""
"","ITI","","html-keyboard-response","454","583223","0.0-1.0-630.0","0","0","47542","","null","","","null","69","","","","","","","","","","","","","","","NaN",""
"","S1","","html-keyboard-response","455","583476","0.0-1.0-632.0","0","0","47542","","null","","","null","70","","","","","","","","","","","","","","","",""
"","ISI","","html-keyboard-response","456","584489","0.0-1.0-633.0","0","0","47542","","null","","","null","70","NaN","","","","","","","","","","","","","","",""
"","S2","","html-keyboard-response","457","584741","0.0-1.0-634.0","0","0","47542","","null","","","null","70","","NaN","","","","","","","","","","","","","",""
"","response","","html-keyboard-response","458","585490","0.0-1.0-635.0-0.0","0","0","47542","","747","","","68","70","","","2","70","training","adjacent","FG","6","7","Q.jpg","N.jpg","1","1","1","",""
"","feedback","","html-keyboard-response","459","586493","0.0-1.0-636.0-0.0","0","0","47542","","null","","","null","70","","","","","","","","","","","","","","","",""
"","ITI","","html-keyboard-response","460","587496","0.0-1.0-639.0","0","0","47542","","null","","","null","70","","","","","","","","","","","","","","","NaN",""
"","S1","","html-keyboard-response","461","587748","0.0-1.0-641.0","0","0","47542","","null","","","null","71","","","","","","","","","","","","","","","",""
"","ISI","","html-keyboard-response","462","588750","0.0-1.0-642.0","0","0","47542","","null","","","null","71","NaN","","","","","","","","","","","","","","",""
"","S2","","html-keyboard-response","463","589002","0.0-1.0-643.0","0","0","47542","","null","","","null","71","","NaN","","","","","","","","","","","","","",""
"","response","","html-keyboard-response","464","589314","0.0-1.0-644.0-0.0","0","0","47542","","311","","","68","71","","","2","71","training","adjacent","AB","1","2","O.jpg","P.jpg","1","1","1","",""
"","feedback","","html-keyboard-response","465","590317","0.0-1.0-645.0-0.0","0","0","47542","","null","","","null","71","","","","","","","","","","","","","","","",""
"","ITI","","html-keyboard-response","466","591320","0.0-1.0-648.0","0","0","47542","","null","","","null","71","","","","","","","","","","","","","","","NaN",""
"","S1","","html-keyboard-response","467","591571","0.0-1.0-650.0","0","0","47542","","null","","","null","72","","","","","","","","","","","","","","","",""
"","ISI","","html-keyboard-response","468","592574","0.0-1.0-651.0","0","0","47542","","null","","","null","72","NaN","","","","","","","","","","","","","","",""
"","S2","","html-keyboard-response","469","592826","0.0-1.0-652.0","0","0","47542","","null","","","null","72","","NaN","","","","","","","","","","","","","",""
"","response","","html-keyboard-response","470","593794","0.0-1.0-653.0-0.0","0","0","47542","","967","","","68","72","","","2","72","training","adjacent","BC","2","3","P.jpg","R.jpg","1","1","1","",""
"","feedback","","html-keyboard-response","471","594796","0.0-1.0-654.0-0.0","0","0","47542","","null","","","null","72","","","","","","","","","","","","","","","",""
"","ITI","","html-keyboard-response","472","595798","0.0-1.0-657.0","0","0","47542","","null","","","null","72","","","","","","","","","","","","","","","NaN",""
"","S1","","html-keyboard-response","473","596050","0.0-1.0-659.0","0","0","47542","","null","","","null","73","","","","","","","","","","","","","","","",""
"","ISI","","html-keyboard-response","474","597052","0.0-1.0-660.0","0","0","47542","","null","","","null","73","NaN","","","","","","","","","","","","","","",""
"","S2","","html-keyboard-response","475","597304","0.0-1.0-661.0","0","0","47542","","null","","","null","73","","NaN","","","","","","","","","","","","","",""
"","response","","html-keyboard-response","476","598018","0.0-1.0-662.0-0.0","0","0","47542","","712","","","68","73","","","2","73","training","adjacent","CB","3","2","R.jpg","P.jpg","1","0","0","",""
"","feedback","","html-keyboard-response","477","599021","0.0-1.0-663.0-0.0","0","0","47542","","null","","","null","73","","","","","","","","","","","","","","","",""
"","time_out","","html-keyboard-response","478","601023","0.0-1.0-665.0-0.0","0","0","47542","","null","","","null","73","","","","","","","","","","","","","","","",""
"","ITI","","html-keyboard-response","479","602025","0.0-1.0-666.0","0","0","47542","","null","","","null","73","","","","","","","","","","","","","","","NaN",""
"","S1","","html-keyboard-response","480","602276","0.0-1.0-668.0","0","0","47542","","null","","","null","74","","","","","","","","","","","","","","","",""
"","ISI","","html-keyboard-response","481","603279","0.0-1.0-669.0","0","0","47542","","null","","","null","74","NaN","","","","","","","","","","","","","","",""
"","S2","","html-keyboard-response","482","603533","0.0-1.0-670.0","0","0","47542","","null","","","null","74","","NaN","","","","","","","","","","","","","",""
"","response","","html-keyboard-response","483","603818","0.0-1.0-671.0-0.0","0","0","47542","","284","","","68","74","","","2","74","training","adjacent","DE","4","5","L.jpg","M.jpg","1","1","1","",""
"","feedback","","html-keyboard-response","484","604820","0.0-1.0-672.0-0.0","0","0","47542","","null","","","null","74","","","","","","","","","","","","","","","",""
"","ITI","","html-keyboard-response","485","605822","0.0-1.0-675.0","0","0","47542","","null","","","null","74","","","","","","","","","","","","","","","NaN",""
"","S1","","html-keyboard-response","486","606075","0.0-1.0-677.0","0","0","47542","","null","","","null","75","","","","","","","","","","","","","","","",""
"","ISI","","html-keyboard-response","487","607076","0.0-1.0-678.0","0","0","47542","","null","","","null","75","NaN","","","","","","","","","","","","","","",""
"","S2","","html-keyboard-response","488","607328","0.0-1.0-679.0","0","0","47542","","null","","","null","75","","NaN","","","","","","","","","","","","","",""
"","response","","html-keyboard-response","489","607826","0.0-1.0-680.0-0.0","0","0","47542","","496","","","68","75","","","2","75","training","adjacent","BC","2","3","P.jpg","R.jpg","1","1","1","",""
"","feedback","","html-keyboard-response","490","608829","0.0-1.0-681.0-0.0","0","0","47542","","null","","","null","75","","","","","","","","","","","","","","","",""
"","ITI","","html-keyboard-response","491","609831","0.0-1.0-684.0","0","0","47542","","null","","","null","75","","","","","","","","","","","","","","","NaN",""
"","S1","","html-keyboard-response","492","610083","0.0-1.0-686.0","0","0","47542","","null","","","null","76","","","","","","","","","","","","","","","",""
"","ISI","","html-keyboard-response","493","611085","0.0-1.0-687.0","0","0","47542","","null","","","null","76","NaN","","","","","","","","","","","","","","",""
"","S2","","html-keyboard-response","494","611338","0.0-1.0-688.0","0","0","47542","","null","","","null","76","","NaN","","","","","","","","","","","","","",""
"","response","","html-keyboard-response","495","611458","0.0-1.0-689.0-0.0","0","0","47542","","119","","","75","76","","","2","76","training","adjacent","CD","3","4","R.jpg","L.jpg","0","1","0","",""
"","feedback","","html-keyboard-response","496","612461","0.0-1.0-690.0-0.0","0","0","47542","","null","","","null","76","","","","","","","","","","","","","","","",""
"","time_out","","html-keyboard-response","497","614463","0.0-1.0-692.0-0.0","0","0","47542","","null","","","null","76","","","","","","","","","","","","","","","",""
"","ITI","","html-keyboard-response","498","615465","0.0-1.0-693.0","0","0","47542","","null","","","null","76","","","","","","","","","","","","","","","NaN",""
"","S1","","html-keyboard-response","499","615716","0.0-1.0-695.0","0","0","47542","","null","","","null","77","","","","","","","","","","","","","","","",""
"","ISI","","html-keyboard-response","500","616719","0.0-1.0-696.0","0","0","47542","","null","","","null","77","NaN","","","","","","","","","","","","","","",""
"","S2","","html-keyboard-response","501","616970","0.0-1.0-697.0","0","0","47542","","null","","","null","77","","NaN","","","","","","","","","","","","","",""
"","response","","html-keyboard-response","502","617818","0.0-1.0-698.0-0.0","0","0","47542","","847","","","68","77","","","2","77","training","adjacent","DC","4","3","L.jpg","R.jpg","1","0","0","",""
"","feedback","","html-keyboard-response","503","618820","0.0-1.0-699.0-0.0","0","0","47542","","null","","","null","77","","","","","","","","","","","","","","","",""
"","time_out","","html-keyboard-response","504","620822","0.0-1.0-701.0-0.0","0","0","47542","","null","","","null","77","","","","","","","","","","","","","","","",""
"","ITI","","html-keyboard-response","505","621824","0.0-1.0-702.0","0","0","47542","","null","","","null","77","","","","","","","","","","","","","","","NaN",""
"","S1","","html-keyboard-response","506","622075","0.0-1.0-704.0","0","0","47542","","null","","","null","78","","","","","","","","","","","","","","","",""
"","ISI","","html-keyboard-response","507","623083","0.0-1.0-705.0","0","0","47542","","null","","","null","78","NaN","","","","","","","","","","","","","","",""
"","S2","","html-keyboard-response","508","623334","0.0-1.0-706.0","0","0","47542","","null","","","null","78","","NaN","","","","","","","","","","","","","",""
"","response","","html-keyboard-response","509","623674","0.0-1.0-707.0-0.0","0","0","47542","","338","","","75","78","","","2","78","training","adjacent","DC","4","3","L.jpg","R.jpg","0","0","1","",""
"","feedback","","html-keyboard-response","510","624676","0.0-1.0-708.0-0.0","0","0","47542","","null","","","null","78","","","","","","","","","","","","","","","",""
"","ITI","","html-keyboard-response","511","625679","0.0-1.0-711.0","0","0","47542","","null","","","null","78","","","","","","","","","","","","","","","NaN",""
"","S1","","html-keyboard-response","512","625931","0.0-1.0-713.0","0","0","47542","","null","","","null","79","","","","","","","","","","","","","","","",""
"","ISI","","html-keyboard-response","513","626933","0.0-1.0-714.0","0","0","47542","","null","","","null","79","NaN","","","","","","","","","","","","","","",""
"","S2","","html-keyboard-response","514","627186","0.0-1.0-715.0","0","0","47542","","null","","","null","79","","NaN","","","","","","","","","","","","","",""
"","response","","html-keyboard-response","515","627698","0.0-1.0-716.0-0.0","0","0","47542","","511","","","68","79","","","2","79","training","adjacent","FE","6","5","Q.jpg","M.jpg","1","0","0","",""
"","feedback","","html-keyboard-response","516","628701","0.0-1.0-717.0-0.0","0","0","47542","","null","","","null","79","","","","","","","","","","","","","","","",""
"","time_out","","html-keyboard-response","517","630703","0.0-1.0-719.0-0.0","0","0","47542","","null","","","null","79","","","","","","","","","","","","","","","",""
"","ITI","","html-keyboard-response","518","631705","0.0-1.0-720.0","0","0","47542","","null","","","null","79","","","","","","","","","","","","","","","NaN",""
"","S1","","html-keyboard-response","519","631957","0.0-1.0-722.0","0","0","47542","","null","","","null","80","","","","","","","","","","","","","","","",""
"","ISI","","html-keyboard-response","520","632959","0.0-1.0-723.0","0","0","47542","","null","","","null","80","NaN","","","","","","","","","","","","","","",""
"","S2","","html-keyboard-response","521","633211","0.0-1.0-724.0","0","0","47542","","null","","","null","80","","NaN","","","","","","","","","","","","","",""
"","response","","html-keyboard-response","522","633946","0.0-1.0-725.0-0.0","0","0","47542","","734","","","68","80","","","2","80","training","adjacent","FG","6","7","Q.jpg","N.jpg","1","1","1","",""
"","feedback","","html-keyboard-response","523","634949","0.0-1.0-726.0-0.0","0","0","47542","","null","","","null","80","","","","","","","","","","","","","","","",""
"","ITI","","html-keyboard-response","524","635951","0.0-1.0-729.0","0","0","47542","","null","","","null","80","","","","","","","","","","","","","","","NaN",""
"","S1","","html-keyboard-response","525","636203","0.0-1.0-731.0","0","0","47542","","null","","","null","81","","","","","","","","","","","","","","","",""
"","ISI","","html-keyboard-response","526","637206","0.0-1.0-732.0","0","0","47542","","null","","","null","81","NaN","","","","","","","","","","","","","","",""
"","S2","","html-keyboard-response","527","637458","0.0-1.0-733.0","0","0","47542","","null","","","null","81","","NaN","","","","","","","","","","","","","",""
"","response","","html-keyboard-response","528","638186","0.0-1.0-734.0-0.0","0","0","47542","","726","","","68","81","","","2","81","training","adjacent","BA","2","1","P.jpg","O.jpg","1","0","0","",""
"","feedback","","html-keyboard-response","529","639189","0.0-1.0-735.0-0.0","0","0","47542","","null","","","null","81","","","","","","","","","","","","","","","",""
"","time_out","","html-keyboard-response","530","641192","0.0-1.0-737.0-0.0","0","0","47542","","null","","","null","81","","","","","","","","","","","","","","","",""
"","ITI","","html-keyboard-response","531","642194","0.0-1.0-738.0","0","0","47542","","null","","","null","81","","","","","","","","","","","","","","","NaN",""
"","S1","","html-keyboard-response","532","642446","0.0-1.0-740.0","0","0","47542","","null","","","null","82","","","","","","","","","","","","","","","",""
"","ISI","","html-keyboard-response","533","643448","0.0-1.0-741.0","0","0","47542","","null","","","null","82","NaN","","","","","","","","","","","","","","",""
"","S2","","html-keyboard-response","534","643700","0.0-1.0-742.0","0","0","47542","","null","","","null","82","","NaN","","","","","","","","","","","","","",""
"","response","","html-keyboard-response","535","644154","0.0-1.0-743.0-0.0","0","0","47542","","452","","","75","82","","","2","82","training","adjacent","ED","5","4","M.jpg","L.jpg","0","0","1","",""
"","feedback","","html-keyboard-response","536","645156","0.0-1.0-744.0-0.0","0","0","47542","","null","","","null","82","","","","","","","","","","","","","","","",""
"","ITI","","html-keyboard-response","537","646159","0.0-1.0-747.0","0","0","47542","","null","","","null","82","","","","","","","","","","","","","","","NaN",""
"","S1","","html-keyboard-response","538","646411","0.0-1.0-749.0","0","0","47542","","null","","","null","83","","","","","","","","","","","","","","","",""
"","ISI","","html-keyboard-response","539","647413","0.0-1.0-750.0","0","0","47542","","null","","","null","83","NaN","","","","","","","","","","","","","","",""
"","S2","","html-keyboard-response","540","647666","0.0-1.0-751.0","0","0","47542","","null","","","null","83","","NaN","","","","","","","","","","","","","",""
"","response","","html-keyboard-response","541","648346","0.0-1.0-752.0-0.0","0","0","47542","","679","","","75","83","","","2","83","training","adjacent","EF","5","6","M.jpg","Q.jpg","0","1","0","",""
"","feedback","","html-keyboard-response","542","649348","0.0-1.0-753.0-0.0","0","0","47542","","null","","","null","83","","","","","","","","","","","","","","","",""
"","time_out","","html-keyboard-response","543","651350","0.0-1.0-755.0-0.0","0","0","47542","","null","","","null","83","","","","","","","","","","","","","","","",""
"","ITI","","html-keyboard-response","544","652352","0.0-1.0-756.0","0","0","47542","","null","","","null","83","","","","","","","","","","","","","","","NaN",""
"","S1","","html-keyboard-response","545","652604","0.0-1.0-758.0","0","0","47542","","null","","","null","84","","","","","","","","","","","","","","","",""
"","ISI","","html-keyboard-response","546","653606","0.0-1.0-759.0","0","0","47542","","null","","","null","84","NaN","","","","","","","","","","","","","","",""
"","S2","","html-keyboard-response","547","653858","0.0-1.0-760.0","0","0","47542","","null","","","null","84","","NaN","","","","","","","","","","","","","",""
"","response","","html-keyboard-response","548","654242","0.0-1.0-761.0-0.0","0","0","47542","","382","","","68","84","","","2","84","training","adjacent","DC","4","3","L.jpg","R.jpg","1","0","0","",""
"","feedback","","html-keyboard-response","549","655244","0.0-1.0-762.0-0.0","0","0","47542","","null","","","null","84","","","","","","","","","","","","","","","",""
"","time_out","","html-keyboard-response","550","657246","0.0-1.0-764.0-0.0","0","0","47542","","null","","","null","84","","","","","","","","","","","","","","","",""
"","ITI","","html-keyboard-response","551","658249","0.0-1.0-765.0","0","0","47542","","null","","","null","84","","","","","","","","","","","","","","","NaN",""
"","S1","","html-keyboard-response","552","658502","0.0-1.0-767.0","0","0","47542","","null","","","null","85","","","","","","","","","","","","","","","",""
"","ISI","","html-keyboard-response","553","659504","0.0-1.0-768.0","0","0","47542","","null","","","null","85","NaN","","","","","","","","","","","","","","",""
"","S2","","html-keyboard-response","554","659756","0.0-1.0-769.0","0","0","47542","","null","","","null","85","","NaN","","","","","","","","","","","","","",""
"","response","","html-keyboard-response","555","659978","0.0-1.0-770.0-0.0","0","0","47542","","221","","","75","85","","","2","85","training","adjacent","GF","7","6","N.jpg","Q.jpg","0","0","1","",""
"","feedback","","html-keyboard-response","556","660980","0.0-1.0-771.0-0.0","0","0","47542","","null","","","null","85","","","","","","","","","","","","","","","",""
"","ITI","","html-keyboard-response","557","661982","0.0-1.0-774.0","0","0","47542","","null","","","null","85","","","","","","","","","","","","","","","NaN",""
"","S1","","html-keyboard-response","558","662234","0.0-1.0-776.0","0","0","47542","","null","","","null","86","","","","","","","","","","","","","","","",""
"","ISI","","html-keyboard-response","559","663236","0.0-1.0-777.0","0","0","47542","","null","","","null","86","NaN","","","","","","","","","","","","","","",""
"","S2","","html-keyboard-response","560","663489","0.0-1.0-778.0","0","0","47542","","null","","","null","86","","NaN","","","","","","","","","","","","","",""
"","response","","html-keyboard-response","561","663834","0.0-1.0-779.0-0.0","0","0","47542","","343","","","75","86","","","2","86","training","adjacent","DC","4","3","L.jpg","R.jpg","0","0","1","",""
"","feedback","","html-keyboard-response","562","664837","0.0-1.0-780.0-0.0","0","0","47542","","null","","","null","86","","","","","","","","","","","","","","","",""
"","ITI","","html-keyboard-response","563","665839","0.0-1.0-783.0","0","0","47542","","null","","","null","86","","","","","","","","","","","","","","","NaN",""
"","S1","","html-keyboard-response","564","666091","0.0-1.0-785.0","0","0","47542","","null","","","null","87","","","","","","","","","","","","","","","",""
"","ISI","","html-keyboard-response","565","667092","0.0-1.0-786.0","0","0","47542","","null","","","null","87","NaN","","","","","","","","","","","","","","",""
"","S2","","html-keyboard-response","566","667345","0.0-1.0-787.0","0","0","47542","","null","","","null","87","","NaN","","","","","","","","","","","","","",""
"","response","","html-keyboard-response","567","667658","0.0-1.0-788.0-0.0","0","0","47542","","312","","","68","87","","","2","87","training","adjacent","AB","1","2","O.jpg","P.jpg","1","1","1","",""
"","feedback","","html-keyboard-response","568","668660","0.0-1.0-789.0-0.0","0","0","47542","","null","","","null","87","","","","","","","","","","","","","","","",""
"","ITI","","html-keyboard-response","569","669662","0.0-1.0-792.0","0","0","47542","","null","","","null","87","","","","","","","","","","","","","","","NaN",""
"","S1","","html-keyboard-response","570","669914","0.0-1.0-794.0","0","0","47542","","null","","","null","88","","","","","","","","","","","","","","","",""
"","ISI","","html-keyboard-response","571","670916","0.0-1.0-795.0","0","0","47542","","null","","","null","88","NaN","","","","","","","","","","","","","","",""
"","S2","","html-keyboard-response","572","671169","0.0-1.0-796.0","0","0","47542","","null","","","null","88","","NaN","","","","","","","","","","","","","",""
"","response","","html-keyboard-response","573","672850","0.0-1.0-797.0-0.0","0","0","47542","","1680","","","68","88","","","2","88","training","adjacent","BA","2","1","P.jpg","O.jpg","1","0","0","",""
"","feedback","","html-keyboard-response","574","673853","0.0-1.0-798.0-0.0","0","0","47542","","null","","","null","88","","","","","","","","","","","","","","","",""
"","time_out","","html-keyboard-response","575","675855","0.0-1.0-800.0-0.0","0","0","47542","","null","","","null","88","","","","","","","","","","","","","","","",""
"","ITI","","html-keyboard-response","576","676857","0.0-1.0-801.0","0","0","47542","","null","","","null","88","","","","","","","","","","","","","","","NaN",""
"","S1","","html-keyboard-response","577","677109","0.0-1.0-803.0","0","0","47542","","null","","","null","89","","","","","","","","","","","","","","","",""
"","ISI","","html-keyboard-response","578","678111","0.0-1.0-804.0","0","0","47542","","null","","","null","89","NaN","","","","","","","","","","","","","","",""
"","S2","","html-keyboard-response","579","678363","0.0-1.0-805.0","0","0","47542","","null","","","null","89","","NaN","","","","","","","","","","","","","",""
"","response","","html-keyboard-response","580","679258","0.0-1.0-806.0-0.0","0","0","47542","","894","","","75","89","","","2","89","training","adjacent","GF","7","6","N.jpg","Q.jpg","0","0","1","",""
"","feedback","","html-keyboard-response","581","680261","0.0-1.0-807.0-0.0","0","0","47542","","null","","","null","89","","","","","","","","","","","","","","","",""
